Trial	CorrectionTrial	StartTime	CenterReward	CenterSpoutRotation	nStimReps	Duration	Modality	LED_Location	LED_trial_V	LED_bgnd_V	Speaker_Location	Speaker_trial_V	Speaker_bgnd_V	TargetSpout	HoldTime	Response	RespTime	ValveTime	Correct	CenterPixelVal	
1	0	10.423	0	-150	1	0.250	2	3	0.0	0.0	5	45.0	30.000	3	0.551	3	11.904	0.150	1	255	
2	0	17.661	0	-150	1	0.250	2	9	0.0	0.0	11	45.0	30.000	9	0.526	3	19.050	0.000	0	255	
3	1	31.860	0	-150	1	0.250	2	9	0.0	0.0	11	45.0	30.000	9	0.576	3	33.771	0.000	0	255	
4	1	38.221	0	-150	1	0.250	2	9	0.0	0.0	11	45.0	30.000	9	0.501	9	39.122	0.150	1	255	
5	0	42.492	0	-150	1	0.250	2	3	0.0	0.0	5	45.0	30.000	3	0.601	3	43.502	0.150	1	255	
6	0	46.347	0	-150	1	0.250	2	9	0.0	0.0	11	45.0	30.000	9	0.501	9	47.144	0.150	1	255	
7	0	50.813	0	-150	1	0.250	2	3	0.0	0.0	5	45.0	30.000	3	0.576	3	51.415	0.150	1	255	
8	0	55.915	0	-150	1	0.250	2	9	0.0	0.0	11	45.0	30.000	9	0.526	3	56.833	0.000	0	255	
9	1	61.914	0	-150	1	0.250	2	9	0.0	0.0	11	45.0	30.000	9	0.601	9	62.623	0.150	1	255	
10	0	66.123	0	-150	1	0.250	2	3	0.0	0.0	5	45.0	30.000	3	0.551	3	66.366	0.150	1	255	
11	0	70.327	0	-150	1	0.250	2	3	0.0	0.0	5	45.0	30.000	3	0.526	3	71.189	0.150	1	255	
12	0	79.508	0	-150	1	0.250	2	9	0.0	0.0	11	45.0	30.000	9	0.551	9	80.265	0.150	1	255	
13	0	87.522	0	-150	1	0.250	2	9	0.0	0.0	11	45.0	30.000	9	0.501	9	88.155	0.150	1	255	
14	0	91.808	0	-150	1	0.250	2	9	0.0	0.0	11	45.0	30.000	9	0.576	3	92.785	0.000	0	255	
15	1	106.987	0	-150	1	0.250	2	9	0.0	0.0	11	45.0	30.000	9	0.601	9	107.817	0.150	1	255	
16	0	111.247	0	-150	1	0.250	2	3	0.0	0.0	5	45.0	30.000	3	0.601	3	112.324	0.150	1	255	
17	0	115.666	0	-150	1	0.250	2	9	0.0	0.0	11	45.0	30.000	9	0.526	9	116.417	0.150	1	255	
18	0	119.421	0	-150	1	0.250	2	3	0.0	0.0	5	45.0	30.000	3	0.501	3	120.008	0.150	1	255	
19	0	123.306	0	-150	1	0.250	2	9	0.0	0.0	11	45.0	30.000	9	0.576	3	124.086	0.000	0	255	
20	1	127.730	0	-150	1	0.250	2	9	0.0	0.0	11	45.0	30.000	9	0.551	9	128.458	0.150	1	255	
21	0	131.472	0	-150	1	0.250	2	3	0.0	0.0	5	45.0	30.000	3	0.526	3	132.109	0.150	1	255	
22	0	135.763	0	-150	1	0.250	2	9	0.0	0.0	11	45.0	30.000	9	0.601	3	136.527	0.000	0	255	
23	1	140.934	0	-150	1	0.250	2	9	0.0	0.0	11	45.0	30.000	9	0.551	9	141.762	0.150	1	255	
24	0	144.896	0	-150	1	0.250	2	9	0.0	0.0	11	45.0	30.000	9	0.501	3	145.453	0.000	0	255	
25	1	153.551	0	-150	1	0.250	2	9	0.0	0.0	11	45.0	30.000	9	0.576	9	154.033	0.150	1	255	
26	0	157.003	0	-150	1	0.250	2	3	0.0	0.0	5	45.0	30.000	3	0.526	3	157.690	0.150	1	255	
27	0	161.156	0	-150	1	0.250	2	3	0.0	0.0	5	45.0	30.000	3	0.551	3	161.662	0.150	1	255	
28	0	164.886	0	-150	1	0.250	2	9	0.0	0.0	11	45.0	30.000	9	0.501	3	165.786	0.000	0	255	
29	1	171.266	0	-150	1	0.250	2	9	0.0	0.0	11	45.0	30.000	9	0.576	9	171.781	0.150	1	255	
30	0	177.892	1	-150	1	0.250	2	9	0.0	0.0	1	45.0	30.000	9	0.601	9	178.809	0.150	1	255	
31	0	186.061	0	-150	1	0.250	2	9	0.0	0.0	11	45.0	30.000	9	0.576	3	187.053	0.000	0	255	
32	1	192.010	0	-150	1	0.250	2	9	0.0	0.0	11	45.0	30.000	9	0.501	9	192.663	0.150	1	255	
33	0	196.096	0	-150	1	0.250	2	3	0.0	0.0	4	45.0	30.000	3	0.526	9	196.985	0.000	0	255	
34	0	200.349	0	-150	1	0.250	2	3	0.0	0.0	10	45.0	30.000	3	0.601	3	201.209	0.150	1	255	
35	0	204.637	0	-150	1	0.250	2	3	0.0	0.0	5	45.0	30.000	3	0.551	3	205.516	0.150	1	255	
36	0	208.977	0	-150	1	0.250	2	3	0.0	0.0	2	45.0	30.000	3	0.551	9	209.406	0.000	0	255	
37	0	212.385	0	-150	1	0.250	2	9	0.0	0.0	12	45.0	30.000	9	0.601	9	212.870	0.150	1	255	
38	0	215.955	0	-150	1	0.250	2	3	0.0	0.0	5	45.0	30.000	3	0.501	3	216.554	0.150	1	255	
39	0	219.805	0	-150	1	0.250	2	9	0.0	0.0	11	45.0	30.000	9	0.576	9	220.411	0.150	1	255	
40	0	223.379	0	-150	1	0.250	2	3	0.0	0.0	3	45.0	30.000	3	0.526	3	224.092	0.150	1	255	
41	0	227.358	1	-150	1	0.250	2	3	0.0	0.0	5	45.0	30.000	3	0.551	9	228.194	0.000	0	255	
42	1	232.680	0	-150	1	0.250	2	3	0.0	0.0	5	45.0	30.000	3	0.501	3	234.792	0.150	1	255	
43	0	238.116	0	-150	1	0.250	2	3	0.0	0.0	6	45.0	30.000	3	0.526	3	238.868	0.150	1	255	
44	0	242.605	0	-150	1	0.250	2	9	0.0	0.0	11	45.0	30.000	9	0.576	9	243.287	0.150	1	255	
45	0	245.761	1	-150	1	0.250	2	9	0.0	0.0	5	45.0	30.000	9	0.601	3	246.605	0.000	0	255	
46	0	249.703	0	-150	1	0.250	2	9	0.0	0.0	11	45.0	30.000	9	0.551	3	252.728	0.000	0	255	
47	1	256.960	1	-150	1	0.250	2	9	0.0	0.0	11	45.0	30.000	9	0.601	9	257.846	0.150	1	255	
48	0	260.963	0	-150	1	0.250	2	9	0.0	0.0	3	45.0	30.000	9	0.501	9	263.524	0.150	1	255	
49	0	266.511	0	-150	1	0.250	2	3	0.0	0.0	4	45.0	30.000	3	0.576	3	267.261	0.150	1	255	
50	0	271.200	1	-150	1	0.250	2	9	0.0	0.0	11	45.0	30.000	9	0.526	9	275.496	0.150	1	255	
51	0	278.421	1	-150	1	0.250	2	3	0.0	0.0	5	45.0	30.000	3	0.576	3	279.477	0.150	1	255	
52	0	283.270	0	-150	1	0.250	2	9	0.0	0.0	11	45.0	30.000	9	0.501	9	286.213	0.150	1	255	
53	0	289.412	0	-150	1	0.250	2	3	0.0	0.0	5	45.0	30.000	3	0.526	3	290.268	0.150	1	255	
54	0	294.081	0	-150	1	0.250	2	9	0.0	0.0	11	45.0	30.000	9	0.601	9	294.869	0.150	1	255	
55	0	298.039	0	-150	1	0.250	2	3	0.0	0.0	4	45.0	30.000	3	0.551	9	298.613	0.000	0	255	
56	0	305.038	0	-150	1	0.250	2	3	0.0	0.0	5	45.0	30.000	3	0.526	3	305.823	0.150	1	255	
57	0	309.457	0	-150	1	0.250	2	9	0.0	0.0	11	45.0	30.000	9	0.601	3	310.005	0.000	0	255	
58	1	314.489	0	-150	1	0.250	2	9	0.0	0.0	11	45.0	30.000	9	0.576	9	315.215	0.150	1	255	
59	0	317.752	0	-150	1	0.250	2	3	0.0	0.0	5	45.0	30.000	3	0.501	3	318.506	0.150	1	255	
60	0	322.219	0	-150	1	0.250	2	9	0.0	0.0	11	45.0	30.000	9	0.551	9	323.012	0.150	1	255	
61	0	326.167	1	-150	1	0.250	2	9	0.0	0.0	11	45.0	30.000	9	0.526	3	326.980	0.000	0	255	
62	1	332.971	0	-150	1	0.250	2	9	0.0	0.0	11	45.0	30.000	9	0.601	3	334.861	0.000	0	255	
63	1	343.085	0	-150	1	0.250	2	9	0.0	0.0	11	45.0	30.000	9	0.551	9	343.840	0.150	1	255	
64	0	346.344	0	-150	1	0.250	2	9	0.0	0.0	11	45.0	30.000	9	0.501	9	347.231	0.150	1	255	
65	0	350.087	0	-150	1	0.250	2	3	0.0	0.0	6	45.0	30.000	3	0.576	3	350.778	0.150	1	255	
66	0	354.266	0	-150	1	0.250	2	9	0.0	0.0	7	45.0	30.000	9	0.551	3	354.897	0.000	0	255	
67	0	358.406	0	-150	1	0.250	2	3	0.0	0.0	5	45.0	30.000	3	0.526	3	359.030	0.150	1	255	
68	0	362.700	0	-150	1	0.250	2	9	0.0	0.0	11	45.0	30.000	9	0.601	3	363.277	0.000	0	255	
69	1	367.086	0	-150	1	0.250	2	9	0.0	0.0	11	45.0	30.000	9	0.501	9	367.981	0.150	1	255	
70	0	370.997	1	-150	1	0.250	2	9	0.0	0.0	3	45.0	30.000	9	0.576	9	371.572	0.150	1	255	
71	0	374.676	0	-150	1	0.250	2	3	0.0	0.0	3	45.0	30.000	3	0.601	9	377.756	0.000	0	255	
72	0	381.036	0	-150	1	0.250	2	9	0.0	0.0	11	45.0	30.000	9	0.526	3	382.069	0.000	0	255	
73	1	386.396	0	-150	1	0.250	2	9	0.0	0.0	11	45.0	30.000	9	0.576	9	387.197	0.150	1	255	
74	0	390.350	0	-150	1	0.250	2	3	0.0	0.0	5	45.0	30.000	3	0.501	3	391.450	0.150	1	255	
75	0	395.028	0	-150	1	0.250	2	3	0.0	0.0	5	45.0	30.000	3	0.551	3	395.980	0.150	1	255	
76	0	399.678	0	-150	1	0.250	2	3	0.0	0.0	12	45.0	30.000	3	0.601	9	400.022	0.000	0	255	
77	0	402.533	1	-150	1	0.250	2	9	0.0	0.0	12	45.0	30.000	9	0.551	9	405.955	0.150	1	255	
78	0	409.070	0	-150	1	0.250	2	9	0.0	0.0	11	45.0	30.000	9	0.526	9	410.256	0.150	1	255	
79	0	413.590	0	-150	1	0.250	2	9	0.0	0.0	11	45.0	30.000	9	0.501	3	414.798	0.000	0	255	
80	1	419.279	0	-150	1	0.250	2	9	0.0	0.0	11	45.0	30.000	9	0.576	9	420.494	0.150	1	255	
81	0	423.460	0	-150	1	0.250	2	9	0.0	0.0	11	45.0	30.000	9	0.576	9	424.169	0.150	1	255	
82	0	426.751	1	-150	1	0.250	2	9	0.0	0.0	11	45.0	30.000	9	0.526	3	427.456	0.000	0	255	
83	1	435.621	0	-150	1	0.250	2	9	0.0	0.0	11	45.0	30.000	9	0.501	3	436.845	0.000	0	255	
84	1	440.759	1	-150	1	0.250	2	9	0.0	0.0	11	45.0	30.000	9	0.551	9	441.708	0.150	1	255	
85	0	444.559	0	-150	1	0.250	2	3	0.0	0.0	11	45.0	30.000	3	0.601	9	446.666	0.000	0	255	
86	0	449.927	0	-150	1	0.250	2	3	0.0	0.0	5	45.0	30.000	3	0.576	3	450.907	0.150	1	255	
87	0	454.229	0	-150	1	0.250	2	3	0.0	0.0	5	45.0	30.000	3	0.601	3	454.974	0.150	1	255	
88	0	458.101	0	-150	1	0.250	2	9	0.0	0.0	11	45.0	30.000	9	0.526	9	458.813	0.150	1	255	
89	0	461.261	1	-150	1	0.250	2	9	0.0	0.0	11	45.0	30.000	9	0.501	9	464.394	0.150	1	255	
90	0	467.323	0	-150	1	0.250	2	3	0.0	0.0	5	45.0	30.000	3	0.551	3	468.493	0.150	1	255	
91	0	471.954	0	-150	1	0.250	2	3	0.0	0.0	5	45.0	30.000	3	0.576	3	473.145	0.150	1	255	
92	0	476.466	0	-150	1	0.250	2	3	0.0	0.0	5	45.0	30.000	3	0.551	3	477.466	0.150	1	255	
93	0	481.965	0	-150	1	0.250	2	3	0.0	0.0	5	45.0	30.000	3	0.501	3	483.442	0.150	1	255	
94	0	488.162	1	-150	1	0.250	2	3	0.0	0.0	12	45.0	30.000	3	0.526	9	488.863	0.000	0	255	
95	0	491.963	0	-150	1	0.250	2	9	0.0	0.0	1	45.0	30.000	9	0.601	9	493.299	0.150	1	255	
96	0	496.000	1	-150	1	0.250	2	9	0.0	0.0	11	45.0	30.000	9	0.551	3	500.609	0.000	0	255	
97	1	504.563	0	-150	1	0.250	2	9	0.0	0.0	11	45.0	30.000	9	0.601	9	505.528	0.150	1	255	
98	0	508.529	0	-150	1	0.250	2	9	0.0	0.0	11	45.0	30.000	9	0.501	9	509.148	0.150	1	255	
99	0	512.286	0	-150	1	0.250	2	3	0.0	0.0	6	45.0	30.000	3	0.576	3	513.320	0.150	1	255	
100	0	516.659	0	-150	1	0.250	2	3	0.0	0.0	5	45.0	30.000	3	0.526	3	518.082	0.150	1	255	
101	0	521.767	0	-150	1	0.250	2	3	0.0	0.0	5	45.0	30.000	3	0.551	3	522.552	0.150	1	255	
102	0	526.521	0	-150	1	0.250	2	3	0.0	0.0	5	45.0	30.000	3	0.501	9	527.320	0.000	0	255	
103	1	531.143	0	-150	1	0.250	2	3	0.0	0.0	5	45.0	30.000	3	0.576	9	531.853	0.000	0	255	
104	1	538.513	0	-150	1	0.250	2	3	0.0	0.0	5	45.0	30.000	3	0.601	3	539.463	0.150	1	255	
105	0	543.192	0	-150	1	0.250	2	3	0.0	0.0	7	45.0	30.000	3	0.526	3	544.108	0.150	1	255	
106	0	547.681	0	-150	1	0.250	2	9	0.0	0.0	4	45.0	30.000	9	0.601	9	548.473	0.150	1	255	
107	0	551.397	0	-150	1	0.250	2	3	0.0	0.0	5	45.0	30.000	3	0.501	3	552.133	0.150	1	255	
108	0	555.618	0	-150	1	0.250	2	3	0.0	0.0	2	45.0	30.000	3	0.576	9	556.384	0.000	0	255	
109	0	558.708	0	-150	1	0.250	2	3	0.0	0.0	5	45.0	30.000	3	0.551	9	559.250	0.000	0	255	
110	1	565.909	0	-150	1	0.250	2	3	0.0	0.0	5	45.0	30.000	3	0.526	3	567.043	0.150	1	255	
111	0	569.803	0	-150	1	0.250	2	9	0.0	0.0	11	45.0	30.000	9	0.576	9	570.899	0.150	1	255	
112	0	573.291	0	-150	1	0.250	2	9	0.0	0.0	11	45.0	30.000	9	0.526	9	573.999	0.150	1	255	
113	0	576.756	0	-150	1	0.250	2	3	0.0	0.0	5	45.0	30.000	3	0.551	3	577.393	0.150	1	255	
114	0	580.971	0	-150	1	0.250	2	9	0.0	0.0	3	45.0	30.000	9	0.601	9	581.723	0.150	1	255	
115	0	586.473	0	-150	1	0.250	2	9	0.0	0.0	11	45.0	30.000	9	0.501	3	587.008	0.000	0	255	
116	1	591.148	0	-150	1	0.250	2	9	0.0	0.0	11	45.0	30.000	9	0.601	3	591.438	0.000	0	255	
117	1	597.157	0	-150	1	0.250	2	9	0.0	0.0	11	45.0	30.000	9	0.526	9	597.842	0.150	1	255	
118	0	601.119	0	-150	1	0.250	2	9	0.0	0.0	11	45.0	30.000	9	0.576	9	601.748	0.150	1	255	
119	0	604.756	0	-150	1	0.250	2	3	0.0	0.0	9	45.0	30.000	3	0.551	3	605.982	0.150	1	255	
120	0	608.837	0	-150	1	0.250	2	9	0.0	0.0	11	45.0	30.000	9	0.501	9	609.404	0.150	1	255	
121	0	612.259	0	-150	1	0.250	2	9	0.0	0.0	11	45.0	30.000	9	0.526	3	613.098	0.000	0	255	
122	1	621.028	0	-150	1	0.250	2	9	0.0	0.0	11	45.0	30.000	9	0.576	9	621.499	0.150	1	255	
123	0	624.248	0	-150	1	0.250	2	9	0.0	0.0	11	45.0	30.000	9	0.601	9	625.248	0.150	1	255	
124	0	628.130	0	-150	1	0.250	2	3	0.0	0.0	5	45.0	30.000	3	0.501	3	629.021	0.150	1	255	
125	0	632.245	0	-150	1	0.250	2	3	0.0	0.0	5	45.0	30.000	3	0.551	3	633.077	0.150	1	255	
126	0	636.654	0	-150	1	0.250	2	9	0.0	0.0	3	45.0	30.000	9	0.501	9	637.405	0.150	1	255	
127	0	640.907	0	-150	1	0.250	2	9	0.0	0.0	3	45.0	30.000	9	0.551	9	641.983	0.150	1	255	
128	0	645.228	0	-150	1	0.250	2	9	0.0	0.0	11	45.0	30.000	9	0.576	9	646.039	0.150	1	255	
129	0	649.137	0	-150	1	0.250	2	9	0.0	0.0	7	45.0	30.000	9	0.601	3	649.996	0.000	0	255	
130	0	653.628	0	-150	1	0.250	2	3	0.0	0.0	10	45.0	30.000	3	0.526	3	654.690	0.150	1	255	
131	0	669.231	0	-150	1	0.250	2	9	0.0	0.0	7	45.0	30.000	9	0.551	3	670.494	0.000	0	255	
132	0	673.395	0	-150	1	0.250	2	3	0.0	0.0	5	45.0	30.000	3	0.601	3	674.446	0.150	1	255	
133	0	677.418	0	-150	1	0.250	2	3	0.0	0.0	7	45.0	30.000	3	0.501	3	678.474	0.150	1	255	
134	0	681.285	0	-150	1	0.250	2	3	0.0	0.0	1	45.0	30.000	3	0.576	9	681.863	0.000	0	255	
