Trial	CorrectionTrial	StartTime	CenterReward	CenterSpoutRotation	nStimReps	Duration	Modality	LED Location	LED_trial_V	LED_bgnd_V	Speaker Location	Speaker_trial_V	Speaker_bgnd_V	TargetSpout	HoldTime	Response	RespTime	ValveTime	Correct	
1	0	44.814	1	0	-1	0.300	2	3	3.0	1.0	3	-1.0	-1.000	3	0.451	3	73.061	0.200	1	
2	0	74.912	1	0	-1	0.300	2	9	3.0	1.0	9	-1.0	-1.000	9	0.401	9	86.168	0.300	1	
3	0	92.039	1	0	-1	0.300	2	3	3.0	1.0	3	-1.0	-1.000	3	0.301	3	129.403	0.200	1	
4	0	131.901	1	0	-1	0.300	2	3	3.0	1.0	3	-1.0	-1.000	3	0.351	3	209.285	0.200	1	
5	0	212.519	1	0	-1	0.300	2	9	3.0	1.0	9	-1.0	-1.000	9	0.501	9	219.280	0.300	1	
6	0	225.475	1	0	-1	0.300	2	9	3.0	1.0	9	-1.0	-1.000	9	0.451	9	238.459	0.300	1	
7	0	243.341	1	0	-1	0.300	2	9	3.0	1.0	9	-1.0	-1.000	9	0.401	9	257.830	0.300	1	
8	0	262.684	1	0	-1	0.300	2	3	3.0	1.0	3	-1.0	-1.000	3	0.351	3	292.563	0.200	1	
9	0	298.994	1	0	-1	0.300	2	3	3.0	1.0	3	-1.0	-1.000	3	0.501	3	310.726	0.200	1	
10	0	316.030	1	0	-1	0.300	2	3	3.0	1.0	3	-1.0	-1.000	3	0.301	3	321.878	0.200	1	
11	0	325.354	1	0	-1	0.300	2	9	3.0	1.0	9	-1.0	-1.000	9	0.301	9	341.724	0.300	1	
12	0	346.247	1	0	-1	0.300	2	3	3.0	1.0	3	-1.0	-1.000	3	0.451	3	364.830	0.200	1	
13	0	368.270	1	0	-1	0.300	2	9	3.0	1.0	9	-1.0	-1.000	9	0.401	9	378.286	0.300	1	
14	0	382.741	1	0	-1	0.300	2	9	3.0	1.0	9	-1.0	-1.000	9	0.351	9	396.938	0.300	1	
15	0	399.410	1	0	-1	0.300	2	3	3.0	1.0	3	-1.0	-1.000	3	0.501	3	413.848	0.200	1	
16	0	416.167	1	0	-1	0.300	2	9	3.0	1.0	9	-1.0	-1.000	9	0.501	9	435.038	0.300	1	
17	0	438.636	1	0	-1	0.300	2	9	3.0	1.0	9	-1.0	-1.000	9	0.401	9	454.240	0.300	1	
18	0	458.199	1	0	-1	0.300	2	3	3.0	1.0	3	-1.0	-1.000	3	0.351	3	467.245	0.200	1	
19	0	470.071	1	0	-1	0.300	2	9	3.0	1.0	9	-1.0	-1.000	9	0.451	9	479.979	0.300	1	
20	0	483.325	1	0	-1	0.300	2	3	3.0	1.0	3	-1.0	-1.000	3	0.301	3	502.167	0.200	1	
21	0	504.116	1	0	-1	0.300	2	3	3.0	1.0	3	-1.0	-1.000	3	0.401	3	510.726	0.200	1	
22	0	512.416	1	0	-1	0.300	2	9	3.0	1.0	9	-1.0	-1.000	9	0.351	9	517.763	0.300	1	
23	0	521.330	1	0	-1	0.300	2	9	3.0	1.0	9	-1.0	-1.000	9	0.451	9	533.301	0.300	1	
24	0	537.056	1	0	-1	0.300	2	9	3.0	1.0	9	-1.0	-1.000	9	0.501	9	547.634	0.300	1	
25	0	549.879	1	0	-1	0.300	2	3	3.0	1.0	3	-1.0	-1.000	3	0.301	3	564.012	0.200	1	
26	0	567.010	1	0	-1	0.300	2	3	3.0	1.0	3	-1.0	-1.000	3	0.401	3	572.965	0.200	1	
27	0	577.333	1	0	-1	0.300	2	3	3.0	1.0	3	-1.0	-1.000	3	0.351	3	603.052	0.200	1	
28	0	605.108	1	0	-1	0.300	2	3	3.0	1.0	3	-1.0	-1.000	3	0.301	3	613.403	0.200	1	
29	0	616.064	1	0	-1	0.300	2	3	3.0	1.0	3	-1.0	-1.000	3	0.501	3	635.266	0.200	1	
30	0	637.372	1	0	-1	0.300	2	3	3.0	1.0	3	-1.0	-1.000	3	0.451	3	645.175	0.200	1	
31	0	647.265	1	0	-1	0.300	2	3	3.0	1.0	3	-1.0	-1.000	3	0.301	3	667.873	0.200	1	
32	0	672.077	1	0	-1	0.300	2	9	3.0	1.0	9	-1.0	-1.000	9	0.501	9	697.103	0.300	1	
33	0	700.312	1	0	-1	0.300	2	3	3.0	1.0	3	-1.0	-1.000	3	0.351	3	716.231	0.200	1	
34	0	718.485	1	0	-1	0.300	2	9	3.0	1.0	9	-1.0	-1.000	9	0.451	9	744.077	0.300	1	
35	0	746.239	1	0	-1	0.300	2	3	3.0	1.0	3	-1.0	-1.000	3	0.401	3	781.979	0.200	1	
36	0	786.304	1	0	-1	0.300	2	9	3.0	1.0	9	-1.0	-1.000	9	0.301	9	817.637	0.300	1	
37	0	823.192	1	0	-1	0.300	2	9	3.0	1.0	9	-1.0	-1.000	9	0.451	9	835.282	0.300	1	
38	0	837.223	1	0	-1	0.300	2	3	3.0	1.0	3	-1.0	-1.000	3	0.401	3	848.807	0.200	1	
39	0	851.039	1	0	-1	0.300	2	9	3.0	1.0	9	-1.0	-1.000	9	0.501	9	864.650	0.300	1	
40	0	869.319	1	0	-1	0.300	2	9	3.0	1.0	9	-1.0	-1.000	9	0.351	9	879.649	0.300	1	
41	0	882.359	1	0	-1	0.300	2	9	3.0	1.0	9	-1.0	-1.000	9	0.351	9	893.676	0.300	1	
42	0	896.587	1	0	-1	0.300	2	3	3.0	1.0	3	-1.0	-1.000	3	0.501	3	921.668	0.200	1	
43	0	923.551	1	0	-1	0.300	2	9	3.0	1.0	9	-1.0	-1.000	9	0.301	9	948.552	0.300	1	
44	0	951.058	1	0	-1	0.300	2	9	3.0	1.0	9	-1.0	-1.000	9	0.401	9	959.775	0.300	1	
45	0	962.637	1	0	-1	0.300	2	9	3.0	1.0	9	-1.0	-1.000	9	0.451	9	970.798	0.300	1	
46	0	974.676	1	0	-1	0.300	2	9	3.0	1.0	9	-1.0	-1.000	9	0.501	9	982.977	0.300	1	
47	0	986.006	1	0	-1	0.300	2	3	3.0	1.0	3	-1.0	-1.000	3	0.301	3	1000.311	0.200	1	
48	0	1002.495	1	0	-1	0.300	2	9	3.0	1.0	9	-1.0	-1.000	9	0.451	9	1018.207	0.300	1	
49	0	1020.381	1	0	-1	0.300	2	3	3.0	1.0	3	-1.0	-1.000	3	0.351	3	1111.895	0.200	1	
