Trial	CorrectionTrial	StartTime	CenterReward	CenterSpoutRotation	nStimReps	Duration	Modality	LED_Location	LED_trial_V	LED_bgnd_V	Speaker_Location	Speaker_trial_V	Speaker_bgnd_V	TargetSpout	HoldTime	Response	RespTime	ValveTime	Correct	CenterPixelVal	
1	0	16.031	1	90	3	0.250	2	9	4.0	1.0	6	48.0	30.000	9	0.401	9	19.707	0.115	1	256	
2	0	22.470	0	90	3	0.250	2	9	4.0	1.0	6	48.0	30.000	9	0.501	3	23.622	0.000	0	256	
3	1	25.018	0	90	3	0.250	2	9	4.0	1.0	6	48.0	30.000	9	0.601	9	28.635	0.115	1	256	
4	0	33.062	1	90	3	0.250	2	9	4.0	1.0	6	48.0	30.000	9	0.401	3	36.693	0.000	0	256	
5	1	37.873	1	90	3	0.250	2	9	4.0	1.0	6	48.0	30.000	9	0.551	9	43.917	0.115	1	256	
6	0	47.673	0	90	3	0.250	2	9	4.0	1.0	6	48.0	30.000	9	0.601	3	51.705	0.000	0	256	
7	1	57.623	0	90	3	0.250	2	9	4.0	1.0	6	48.0	30.000	9	0.501	3	59.431	0.000	0	256	
8	1	60.811	0	90	3	0.250	2	9	4.0	1.0	6	48.0	30.000	9	0.401	9	62.481	0.115	1	256	
9	0	66.212	1	90	3	0.250	2	9	4.0	1.0	6	48.0	30.000	9	0.601	9	70.754	0.115	1	256	
10	0	74.128	1	90	3	0.250	2	9	4.0	1.0	6	48.0	30.000	9	0.551	3	78.221	0.000	0	256	
11	1	79.655	1	90	3	0.250	2	9	4.0	1.0	6	48.0	30.000	9	0.501	9	85.836	0.115	1	256	
12	0	89.297	0	90	3	0.250	2	9	4.0	1.0	6	48.0	30.000	9	0.401	9	92.389	0.115	1	256	
13	0	96.471	0	90	3	0.250	2	9	4.0	1.0	6	48.0	30.000	9	0.451	3	99.631	0.000	0	256	
14	1	100.647	1	90	3	0.250	2	9	4.0	1.0	6	48.0	30.000	9	0.551	9	105.146	0.115	1	256	
15	0	108.705	0	90	3	0.250	2	9	4.0	1.0	6	48.0	30.000	9	0.501	3	111.283	0.000	0	256	
16	1	112.225	0	90	3	0.250	2	9	4.0	1.0	6	48.0	30.000	9	0.451	9	113.848	0.115	1	256	
17	0	117.465	1	90	3	0.250	2	9	4.0	1.0	6	48.0	30.000	9	0.401	9	123.433	0.115	1	256	
18	0	126.258	1	90	3	0.250	2	9	4.0	1.0	6	48.0	30.000	9	0.601	3	129.881	0.000	0	256	
19	1	131.723	1	90	3	0.250	2	9	4.0	1.0	6	48.0	30.000	9	0.501	9	136.846	0.115	1	256	
20	0	143.126	0	90	3	0.250	2	9	4.0	1.0	6	48.0	30.000	9	0.551	9	147.091	0.115	1	256	
21	0	150.463	1	90	3	0.250	2	9	4.0	1.0	6	48.0	30.000	9	0.601	3	155.127	0.000	0	256	
22	1	156.493	0	90	3	0.250	2	9	4.0	1.0	6	48.0	30.000	9	0.551	9	160.147	0.115	1	256	
23	0	165.568	1	90	3	0.250	2	9	4.0	1.0	6	48.0	30.000	9	0.401	9	174.085	0.115	1	256	
24	0	180.188	0	90	3	0.250	2	9	4.0	1.0	6	48.0	30.000	9	0.501	9	183.280	0.115	1	256	
25	0	187.110	1	90	3	0.250	2	9	4.0	1.0	6	48.0	30.000	9	0.551	3	192.594	0.000	0	256	
26	1	193.781	0	90	3	0.250	2	9	4.0	1.0	6	48.0	30.000	9	0.451	9	196.704	0.115	1	256	
27	0	200.407	0	90	3	0.250	2	9	4.0	1.0	6	48.0	30.000	9	0.401	9	204.079	0.115	1	256	
28	0	209.069	0	90	3	0.250	2	9	4.0	1.0	6	48.0	30.000	9	0.401	9	211.880	0.115	1	256	
29	0	216.705	1	90	3	0.250	2	9	4.0	1.0	6	48.0	30.000	9	0.601	9	223.792	0.115	1	256	
30	0	227.007	0	90	3	0.250	2	9	4.0	1.0	6	48.0	30.000	9	0.451	3	229.183	0.000	0	256	
31	1	230.432	0	90	3	0.250	2	9	4.0	1.0	6	48.0	30.000	9	0.501	9	233.673	0.115	1	256	
32	0	238.055	1	90	3	0.250	2	9	4.0	1.0	6	48.0	30.000	9	0.601	3	242.424	0.000	0	256	
33	1	244.134	0	90	3	0.250	2	9	4.0	1.0	6	48.0	30.000	9	0.501	9	246.753	0.115	1	256	
34	0	250.677	1	90	3	0.250	2	9	4.0	1.0	6	48.0	30.000	9	0.401	3	254.976	0.000	0	256	
35	1	257.681	1	90	3	0.250	2	9	4.0	1.0	6	48.0	30.000	9	0.601	9	263.352	0.115	1	256	
36	0	266.731	0	90	3	0.250	2	9	4.0	1.0	6	48.0	30.000	9	0.601	3	269.169	0.000	0	256	
37	1	270.176	1	90	3	0.250	2	9	4.0	1.0	6	48.0	30.000	9	0.551	9	270.749	0.115	1	256	
38	0	275.025	0	90	3	0.250	2	9	4.0	1.0	6	48.0	30.000	9	0.451	9	281.691	0.115	1	256	
39	0	286.555	1	90	3	0.250	2	9	4.0	1.0	6	48.0	30.000	9	0.501	9	292.608	0.115	1	256	
40	0	295.523	1	90	3	0.250	2	9	4.0	1.0	6	48.0	30.000	9	0.401	9	304.200	0.115	1	256	
41	0	307.787	1	90	3	0.250	2	9	4.0	1.0	6	48.0	30.000	9	0.551	9	315.266	0.115	1	256	
42	0	319.374	1	90	3	0.250	2	9	4.0	1.0	6	48.0	30.000	9	0.551	9	325.786	0.115	1	256	
43	0	330.354	1	90	3	0.250	2	9	4.0	1.0	6	48.0	30.000	9	0.401	9	339.972	0.115	1	256	
44	0	343.251	1	90	3	0.250	2	9	4.0	1.0	6	48.0	30.000	9	0.451	9	349.195	0.115	1	256	
45	0	354.879	0	90	3	0.250	2	9	4.0	1.0	6	48.0	30.000	9	0.501	9	357.662	0.115	1	256	
46	0	361.386	1	90	3	0.250	2	9	4.0	1.0	6	48.0	30.000	9	0.501	9	367.546	0.115	1	256	
47	0	373.953	1	90	3	0.250	2	9	4.0	1.0	6	48.0	30.000	9	0.551	9	384.995	0.115	1	256	
48	0	388.357	0	90	3	0.250	2	9	4.0	1.0	6	48.0	30.000	9	0.601	9	389.799	0.115	1	256	
49	0	394.643	1	90	3	0.250	2	9	4.0	1.0	6	48.0	30.000	9	0.551	9	399.260	0.115	1	256	
50	0	403.110	1	90	3	0.250	2	9	4.0	1.0	6	48.0	30.000	9	0.501	9	412.273	0.115	1	256	
51	0	415.805	1	90	3	0.250	2	9	4.0	1.0	6	48.0	30.000	9	0.601	9	420.920	0.115	1	256	
52	0	425.409	1	90	3	0.250	2	9	4.0	1.0	6	48.0	30.000	9	0.401	9	434.717	0.115	1	256	
53	0	437.339	1	90	3	0.250	2	9	4.0	1.0	6	48.0	30.000	9	0.551	9	447.052	0.115	1	256	
54	0	450.682	1	90	3	0.250	2	9	4.0	1.0	6	48.0	30.000	9	0.401	9	459.023	0.115	1	256	
55	0	462.496	1	90	3	0.250	2	9	4.0	1.0	6	48.0	30.000	9	0.601	9	470.065	0.115	1	256	
56	0	473.905	0	90	3	0.250	2	9	4.0	1.0	6	48.0	30.000	9	0.451	9	477.341	0.115	1	256	
57	0	480.981	1	90	3	0.250	2	9	4.0	1.0	6	48.0	30.000	9	0.601	9	486.202	0.115	1	256	
58	0	489.139	1	90	3	0.250	2	9	4.0	1.0	6	48.0	30.000	9	0.501	9	496.895	0.115	1	256	
59	0	500.123	1	90	3	0.250	2	9	4.0	1.0	6	48.0	30.000	9	0.451	9	506.318	0.115	1	256	
60	0	519.174	0	90	3	0.250	2	9	4.0	1.0	6	48.0	30.000	9	0.501	9	522.486	0.115	1	256	
61	0	526.239	0	90	3	0.250	2	9	4.0	1.0	6	48.0	30.000	9	0.451	9	530.795	0.115	1	256	
62	0	534.174	1	90	3	0.250	2	9	4.0	1.0	6	48.0	30.000	9	0.601	9	539.631	0.115	1	256	
63	0	542.985	0	90	3	0.250	2	9	4.0	1.0	6	48.0	30.000	9	0.551	9	547.959	0.115	1	256	
64	0	551.471	1	90	3	0.250	2	9	4.0	1.0	6	48.0	30.000	9	0.451	9	556.461	0.115	1	256	
65	0	558.605	1	90	3	0.250	2	9	4.0	1.0	6	48.0	30.000	9	0.451	9	565.344	0.115	1	256	
66	0	568.238	0	90	3	0.250	2	9	4.0	1.0	6	48.0	30.000	9	0.401	9	571.346	0.115	1	256	
67	0	575.524	1	90	3	0.250	2	9	4.0	1.0	6	48.0	30.000	9	0.601	9	582.143	0.115	1	256	
68	0	585.475	1	90	3	0.250	2	9	4.0	1.0	6	48.0	30.000	9	0.501	9	594.716	0.115	1	256	
69	0	596.058	0	90	3	0.250	2	9	4.0	1.0	6	48.0	30.000	9	0.401	9	596.740	0.115	1	256	
70	0	598.554	0	90	3	0.250	2	9	4.0	1.0	6	48.0	30.000	9	0.501	9	599.516	0.115	1	256	
71	0	604.315	0	90	3	0.250	2	3	4.0	1.0	12	48.0	30.000	3	0.451	9	608.289	0.000	0	256	
72	1	610.083	1	90	3	0.250	2	3	4.0	1.0	12	48.0	30.000	3	0.501	3	613.705	0.150	1	256	
73	0	619.144	1	90	3	0.250	2	3	4.0	1.0	12	48.0	30.000	3	0.601	3	620.245	0.150	1	256	
74	0	621.040	1	90	3	0.250	2	3	4.0	1.0	12	48.0	30.000	3	0.401	3	626.491	0.150	1	256	
75	0	630.738	0	90	3	0.250	2	3	4.0	1.0	12	48.0	30.000	3	0.501	3	634.470	0.150	1	256	
76	0	637.759	0	90	3	0.250	2	3	4.0	1.0	12	48.0	30.000	3	0.601	9	639.568	0.000	0	256	
77	1	642.527	1	90	3	0.250	2	3	4.0	1.0	12	48.0	30.000	3	0.451	3	644.016	0.150	1	256	
78	0	650.797	0	90	3	0.250	2	3	4.0	1.0	12	48.0	30.000	3	0.551	9	653.519	0.000	0	256	
79	1	655.218	1	90	3	0.250	2	3	4.0	1.0	12	48.0	30.000	3	0.501	3	658.478	0.150	1	256	
80	0	662.452	0	90	3	0.250	2	3	4.0	1.0	12	48.0	30.000	3	0.601	3	663.331	0.150	1	256	
81	0	666.052	0	90	3	0.250	2	3	4.0	1.0	12	48.0	30.000	3	0.451	3	668.515	0.150	1	256	
82	0	673.282	1	90	3	0.250	2	3	4.0	1.0	12	48.0	30.000	3	0.401	9	676.966	0.000	0	256	
83	1	679.184	1	90	3	0.250	2	3	4.0	1.0	12	48.0	30.000	3	0.551	3	682.932	0.150	1	256	
84	0	687.136	0	90	3	0.250	2	3	4.0	1.0	12	48.0	30.000	3	0.501	9	690.351	0.000	0	256	
85	1	692.623	0	90	3	0.250	2	3	4.0	1.0	12	48.0	30.000	3	0.401	3	695.004	0.150	1	256	
86	0	697.822	0	90	3	0.250	2	3	4.0	1.0	12	48.0	30.000	3	0.451	9	699.362	0.000	0	256	
87	1	700.878	0	90	3	0.250	2	3	4.0	1.0	12	48.0	30.000	3	0.601	3	702.402	0.150	1	256	
88	0	706.792	1	90	3	0.250	2	3	4.0	1.0	12	48.0	30.000	3	0.501	9	711.556	0.000	0	256	
89	1	714.045	0	90	3	0.250	2	3	4.0	1.0	12	48.0	30.000	3	0.551	3	716.347	0.150	1	256	
90	0	719.408	1	90	3	0.250	2	3	4.0	1.0	12	48.0	30.000	3	0.551	9	724.679	0.000	0	256	
91	1	726.527	1	90	3	0.250	2	3	4.0	1.0	12	48.0	30.000	3	0.401	3	727.963	0.150	1	256	
92	0	728.452	1	90	3	0.250	2	3	4.0	1.0	12	48.0	30.000	3	0.601	3	733.985	0.150	1	256	
93	0	740.161	0	90	3	0.250	2	3	4.0	1.0	12	48.0	30.000	3	0.501	9	742.368	0.000	0	256	
94	1	744.261	0	90	3	0.250	2	3	4.0	1.0	12	48.0	30.000	3	0.451	3	744.758	0.150	1	256	
95	0	749.654	1	90	3	0.250	2	3	4.0	1.0	12	48.0	30.000	3	0.551	3	753.542	0.150	1	256	
96	0	755.994	1	90	3	0.250	2	3	4.0	1.0	12	48.0	30.000	3	0.451	9	759.443	0.000	0	256	
97	1	778.741	0	90	3	0.250	2	3	4.0	1.0	12	48.0	30.000	3	0.401	3	780.981	0.150	1	256	
98	0	784.246	1	90	3	0.250	2	3	4.0	1.0	12	48.0	30.000	3	0.601	9	787.003	0.000	0	256	
99	1	788.210	0	90	3	0.250	2	3	4.0	1.0	12	48.0	30.000	3	0.501	3	792.399	0.150	1	256	
100	0	795.601	1	90	3	0.250	2	3	4.0	1.0	12	48.0	30.000	3	0.601	3	796.518	0.150	1	256	
