SessionDate,Trial,CorrectionTrial,StartTime,CenterReward,CenterSpoutRotation,nStimReps,Duration,Modality,LED Location,LED_trial_V,LED_bgnd_V,Speaker Location,Speaker_trial_V,Speaker_bgnd_V,TargetSpout,HoldTime,Response,RespTime,ValveTime,Correct,SessionID,StartDateTime,StimulusTotalDuration,response_angle_world,speaker_angle_world,speaker_angle_platform,response_angle_platform,not_probe,ferret,block
2018-10-02 14:33:54,1,0,34.995,0,180,1,0.25,2,9,0.0,1.0,6,45.0,30.0,9,0.501,1.0,36.251,0.23,1,270,2018-10-02 14:34:28.995,0.25,-90,0,-180,90,1,F1703_Grainger,Block_J5-290
2018-10-02 14:33:54,2,0,47.631,0,180,1,0.25,2,3,0.0,1.0,3,45.0,30.0,3,0.35100000000000003,0.0,49.143,0.18,1,270,2018-10-02 14:34:41.631,0.25,90,90,-90,-90,0,F1703_Grainger,Block_J5-290
2018-10-02 14:33:54,3,0,67.528,0,180,1,0.25,2,9,0.0,1.0,6,45.0,30.0,9,0.451,1.0,69.116,0.23,1,270,2018-10-02 14:35:01.528,0.25,-90,0,-180,90,1,F1703_Grainger,Block_J5-290
2018-10-02 14:33:54,4,0,86.04,0,180,1,0.25,2,3,0.0,1.0,12,45.0,30.0,3,0.301,1.0,87.943,0.0,0,270,2018-10-02 14:35:20.040,0.25,-90,-180,0,90,1,F1703_Grainger,Block_J5-290
2018-10-02 14:33:54,6,0,108.719,0,180,1,0.25,2,3,0.0,1.0,12,45.0,30.0,3,0.451,0.0,112.539,0.18,1,270,2018-10-02 14:35:42.719,0.25,90,-180,0,-90,1,F1703_Grainger,Block_J5-290
2018-10-02 14:33:54,7,0,119.656,0,180,1,0.25,2,3,0.0,1.0,12,45.0,30.0,3,0.35100000000000003,0.0,121.512,0.18,1,270,2018-10-02 14:35:53.656,0.25,90,-180,0,-90,1,F1703_Grainger,Block_J5-290
2018-10-02 14:33:54,8,0,128.753,0,180,1,0.25,2,3,0.0,1.0,12,45.0,30.0,3,0.401,0.0,129.9,0.18,1,270,2018-10-02 14:36:02.753,0.25,90,-180,0,-90,1,F1703_Grainger,Block_J5-290
2018-10-02 14:33:54,9,0,136.624,0,180,1,0.25,2,9,0.0,1.0,6,45.0,30.0,9,0.301,1.0,138.246,0.23,1,270,2018-10-02 14:36:10.624,0.25,-90,0,-180,90,1,F1703_Grainger,Block_J5-290
2018-10-02 14:33:54,10,0,149.597,1,180,1,0.25,2,9,0.0,1.0,6,45.0,30.0,9,0.501,1.0,150.683,0.23,1,270,2018-10-02 14:36:23.597,0.25,-90,0,-180,90,1,F1703_Grainger,Block_J5-290
2018-10-02 14:33:54,11,0,166.521,0,180,1,0.25,2,3,0.0,1.0,12,45.0,30.0,3,0.301,0.0,169.71099999999996,0.18,1,270,2018-10-02 14:36:40.521,0.25,90,-180,0,-90,1,F1703_Grainger,Block_J5-290
2018-10-02 14:33:54,12,0,176.72400000000005,0,180,1,0.25,2,3,0.0,1.0,3,45.0,30.0,3,0.35100000000000003,0.0,178.088,0.18,1,270,2018-10-02 14:36:50.724,0.25,90,90,-90,-90,0,F1703_Grainger,Block_J5-290
2018-10-02 14:33:54,13,0,185.373,0,180,1,0.25,2,9,0.0,1.0,6,45.0,30.0,9,0.401,1.0,187.177,0.23,1,270,2018-10-02 14:36:59.373,0.25,-90,0,-180,90,1,F1703_Grainger,Block_J5-290
2018-10-02 14:33:54,14,0,203.362,0,180,1,0.25,2,3,0.0,1.0,12,45.0,30.0,3,0.451,0.0,204.664,0.18,1,270,2018-10-02 14:37:17.362,0.25,90,-180,0,-90,1,F1703_Grainger,Block_J5-290
2018-10-02 14:33:54,15,0,231.16,0,180,1,0.25,2,9,0.0,1.0,6,45.0,30.0,9,0.501,1.0,231.906,0.23,1,270,2018-10-02 14:37:45.160,0.25,-90,0,-180,90,1,F1703_Grainger,Block_J5-290
2018-10-02 14:33:54,16,0,248.995,1,180,1,0.25,2,9,0.0,1.0,6,45.0,30.0,9,0.501,0.0,251.08,0.0,0,270,2018-10-02 14:38:02.995,0.25,90,0,-180,-90,1,F1703_Grainger,Block_J5-290
2018-10-02 14:33:54,21,0,287.673,0,180,1,0.25,2,9,0.0,1.0,6,45.0,30.0,9,0.401,1.0,288.931,0.23,1,270,2018-10-02 14:38:41.673,0.25,-90,0,-180,90,1,F1703_Grainger,Block_J5-290
2018-10-02 14:33:54,22,0,318.972,0,180,1,0.25,2,9,0.0,1.0,6,45.0,30.0,9,0.501,1.0,320.705,0.23,1,270,2018-10-02 14:39:12.972,0.25,-90,0,-180,90,1,F1703_Grainger,Block_J5-290
2018-10-02 14:33:54,23,0,336.47,0,180,1,0.25,2,3,0.0,1.0,9,45.0,30.0,3,0.35100000000000003,1.0,338.2530000000001,0.0,0,270,2018-10-02 14:39:30.470,0.25,-90,-90,90,90,0,F1703_Grainger,Block_J5-290
2018-10-02 14:33:54,24,0,361.7,0,180,1,0.25,2,3,0.0,1.0,12,45.0,30.0,3,0.301,0.0,362.725,0.18,1,270,2018-10-02 14:39:55.700,0.25,90,-180,0,-90,1,F1703_Grainger,Block_J5-290
2018-10-02 14:33:54,25,0,370.673,0,180,1,0.25,2,9,0.0,1.0,6,45.0,30.0,9,0.451,0.0,372.852,0.0,0,270,2018-10-02 14:40:04.673,0.25,90,0,-180,-90,1,F1703_Grainger,Block_J5-290
2018-10-02 14:33:54,27,0,390.13,0,180,1,0.25,2,9,0.0,1.0,6,45.0,30.0,9,0.35100000000000003,1.0,391.376,0.23,1,270,2018-10-02 14:40:24.130,0.25,-90,0,-180,90,1,F1703_Grainger,Block_J5-290
2018-10-02 14:33:54,28,0,404.536,1,180,1,0.25,2,3,0.0,1.0,12,45.0,30.0,3,0.401,0.0,405.85,0.18,1,270,2018-10-02 14:40:38.536,0.25,90,-180,0,-90,1,F1703_Grainger,Block_J5-290
2018-10-02 14:33:54,29,0,412.826,1,180,1,0.25,2,9,0.0,1.0,6,45.0,30.0,9,0.301,0.0,417.043,0.0,0,270,2018-10-02 14:40:46.826,0.25,90,0,-180,-90,1,F1703_Grainger,Block_J5-290
2018-10-02 14:33:54,32,0,450.541,0,180,1,0.25,2,9,0.0,1.0,6,45.0,30.0,9,0.451,1.0,451.79,0.23,1,270,2018-10-02 14:41:24.541,0.25,-90,0,-180,90,1,F1703_Grainger,Block_J5-290
2018-10-02 14:33:54,33,0,464.177,0,180,1,0.25,2,3,0.0,1.0,12,45.0,30.0,3,0.401,0.0,466.173,0.18,1,270,2018-10-02 14:41:38.177,0.25,90,-180,0,-90,1,F1703_Grainger,Block_J5-290
2018-10-02 14:33:54,34,0,474.532,0,180,1,0.25,2,9,0.0,1.0,6,45.0,30.0,9,0.35100000000000003,0.0,476.361,0.0,0,270,2018-10-02 14:41:48.532,0.25,90,0,-180,-90,1,F1703_Grainger,Block_J5-290
2018-10-02 14:33:54,39,0,517.498,0,180,1,0.25,2,3,0.0,1.0,12,45.0,30.0,3,0.35100000000000003,0.0,518.992,0.18,1,270,2018-10-02 14:42:31.498,0.25,90,-180,0,-90,1,F1703_Grainger,Block_J5-290
2018-10-02 14:33:54,40,0,526.289,0,180,1,0.25,2,9,0.0,1.0,6,45.0,30.0,9,0.301,1.0,528.034,0.23,1,270,2018-10-02 14:42:40.289,0.25,-90,0,-180,90,1,F1703_Grainger,Block_J5-290
2018-10-02 14:33:54,41,0,540.5459999999998,0,180,1,0.25,2,9,0.0,1.0,6,45.0,30.0,9,0.401,1.0,541.538,0.23,1,270,2018-10-02 14:42:54.546,0.25,-90,0,-180,90,1,F1703_Grainger,Block_J5-290
2018-10-02 14:33:54,42,0,559.497,0,180,1,0.25,2,9,0.0,1.0,6,45.0,30.0,9,0.301,1.0,560.545,0.23,1,270,2018-10-02 14:43:13.497,0.25,-90,0,-180,90,1,F1703_Grainger,Block_J5-290
2018-10-02 14:33:54,43,0,580.582,0,180,1,0.25,2,3,0.0,1.0,12,45.0,30.0,3,0.35100000000000003,0.0,581.742,0.18,1,270,2018-10-02 14:43:34.582,0.25,90,-180,0,-90,1,F1703_Grainger,Block_J5-290
2018-10-02 14:33:54,44,0,594.097,1,180,1,0.25,2,9,0.0,1.0,6,45.0,30.0,9,0.501,0.0,595.2090000000002,0.0,0,270,2018-10-02 14:43:48.097,0.25,90,0,-180,-90,1,F1703_Grainger,Block_J5-290
2018-10-02 14:33:54,46,0,609.206,0,180,1,0.25,2,3,0.0,1.0,12,45.0,30.0,3,0.35100000000000003,0.0,612.919,0.18,1,270,2018-10-02 14:44:03.206,0.25,90,-180,0,-90,1,F1703_Grainger,Block_J5-290
2018-10-02 14:33:54,47,0,621.0509999999998,0,180,1,0.25,2,3,0.0,1.0,12,45.0,30.0,3,0.451,0.0,623.148,0.18,1,270,2018-10-02 14:44:15.051,0.25,90,-180,0,-90,1,F1703_Grainger,Block_J5-290
2018-10-02 14:33:54,48,0,631.629,0,180,1,0.25,2,9,0.0,1.0,3,45.0,30.0,9,0.301,0.0,633.308,0.0,0,270,2018-10-02 14:44:25.629,0.25,90,90,-90,-90,0,F1703_Grainger,Block_J5-290
2018-10-02 14:33:54,49,0,641.001,0,180,1,0.25,2,3,0.0,1.0,12,45.0,30.0,3,0.501,0.0,642.808,0.18,1,270,2018-10-02 14:44:35.001,0.25,90,-180,0,-90,1,F1703_Grainger,Block_J5-290
2018-10-02 14:33:54,50,0,649.835,0,180,1,0.25,2,9,0.0,1.0,6,45.0,30.0,9,0.401,0.0,652.2330000000002,0.0,0,270,2018-10-02 14:44:43.835,0.25,90,0,-180,-90,1,F1703_Grainger,Block_J5-290
2018-10-02 14:33:54,54,0,680.421,0,180,1,0.25,2,3,0.0,1.0,9,45.0,30.0,3,0.35100000000000003,1.0,681.645,0.0,0,270,2018-10-02 14:45:14.421,0.25,-90,-90,90,90,0,F1703_Grainger,Block_J5-290
2018-10-02 14:33:54,55,0,694.332,0,180,1,0.25,2,3,0.0,1.0,12,45.0,30.0,3,0.451,0.0,695.937,0.18,1,270,2018-10-02 14:45:28.332,0.25,90,-180,0,-90,1,F1703_Grainger,Block_J5-290
2018-10-02 14:33:54,56,0,705.04,0,180,1,0.25,2,3,0.0,1.0,12,45.0,30.0,3,0.401,0.0,706.547,0.18,1,270,2018-10-02 14:45:39.040,0.25,90,-180,0,-90,1,F1703_Grainger,Block_J5-290
2018-10-02 14:33:54,57,0,719.591,0,180,1,0.25,2,9,0.0,1.0,9,45.0,30.0,9,0.301,0.0,722.316,0.0,0,270,2018-10-02 14:45:53.591,0.25,90,-90,90,-90,0,F1703_Grainger,Block_J5-290
2018-10-02 14:33:54,58,0,728.755,0,180,1,0.25,2,3,0.0,1.0,12,45.0,30.0,3,0.451,0.0,731.362,0.18,1,270,2018-10-02 14:46:02.755,0.25,90,-180,0,-90,1,F1703_Grainger,Block_J5-290
2018-10-02 14:33:54,59,0,739.451,0,180,1,0.25,2,9,0.0,1.0,6,45.0,30.0,9,0.501,1.0,740.68,0.23,1,270,2018-10-02 14:46:13.451,0.25,-90,0,-180,90,1,F1703_Grainger,Block_J5-290
2018-10-02 14:33:54,60,0,752.682,0,180,1,0.25,2,3,0.0,1.0,12,45.0,30.0,3,0.35100000000000003,0.0,754.057,0.18,1,270,2018-10-02 14:46:26.682,0.25,90,-180,0,-90,1,F1703_Grainger,Block_J5-290
2018-10-02 14:33:54,61,0,762.3539999999998,0,180,1,0.25,2,3,0.0,1.0,3,45.0,30.0,3,0.501,0.0,763.8960000000002,0.18,1,270,2018-10-02 14:46:36.354,0.25,90,90,-90,-90,0,F1703_Grainger,Block_J5-290
2018-10-02 14:33:54,62,0,772.6419999999998,0,180,1,0.25,2,9,0.0,1.0,6,45.0,30.0,9,0.451,1.0,774.102,0.23,1,270,2018-10-02 14:46:46.642,0.25,-90,0,-180,90,1,F1703_Grainger,Block_J5-290
2018-10-02 14:33:54,63,0,803.645,1,180,1,0.25,2,9,0.0,1.0,6,45.0,30.0,9,0.401,0.0,806.64,0.0,0,270,2018-10-02 14:47:17.645,0.25,90,0,-180,-90,1,F1703_Grainger,Block_J5-290
2018-10-02 14:33:54,65,0,823.373,0,180,1,0.25,2,3,0.0,1.0,12,45.0,30.0,3,0.301,0.0,826.1089999999998,0.18,1,270,2018-10-02 14:47:37.373,0.25,90,-180,0,-90,1,F1703_Grainger,Block_J5-290
2018-10-02 14:33:54,66,0,834.2439999999998,0,180,1,0.25,2,3,0.0,1.0,12,45.0,30.0,3,0.301,0.0,835.8510000000001,0.18,1,270,2018-10-02 14:47:48.244,0.25,90,-180,0,-90,1,F1703_Grainger,Block_J5-290
2018-10-02 14:33:54,67,0,843.352,0,180,1,0.25,2,3,0.0,1.0,12,45.0,30.0,3,0.401,0.0,844.9810000000001,0.18,1,270,2018-10-02 14:47:57.352,0.25,90,-180,0,-90,1,F1703_Grainger,Block_J5-290
2018-10-02 14:33:54,68,0,852.145,0,180,1,0.25,2,3,0.0,1.0,12,45.0,30.0,3,0.501,0.0,853.325,0.18,1,270,2018-10-02 14:48:06.145,0.25,90,-180,0,-90,1,F1703_Grainger,Block_J5-290
2018-10-02 14:33:54,69,0,860.095,0,180,1,0.25,2,9,0.0,1.0,6,45.0,30.0,9,0.451,1.0,861.451,0.23,1,270,2018-10-02 14:48:14.095,0.25,-90,0,-180,90,1,F1703_Grainger,Block_J5-290
2018-10-02 14:33:54,70,0,870.579,0,180,1,0.25,2,3,0.0,1.0,12,45.0,30.0,3,0.35100000000000003,0.0,872.91,0.18,1,270,2018-10-02 14:48:24.579,0.25,90,-180,0,-90,1,F1703_Grainger,Block_J5-290
2018-10-02 14:33:54,71,0,879.48,0,180,1,0.25,2,9,0.0,1.0,6,45.0,30.0,9,0.301,1.0,881.185,0.23,1,270,2018-10-02 14:48:33.480,0.25,-90,0,-180,90,1,F1703_Grainger,Block_J5-290
2018-10-02 14:33:54,72,0,904.833,0,180,1,0.25,2,9,0.0,1.0,6,45.0,30.0,9,0.401,0.0,908.451,0.0,0,270,2018-10-02 14:48:58.833,0.25,90,0,-180,-90,1,F1703_Grainger,Block_J5-290
2018-10-02 14:33:54,74,0,930.857,0,180,1,0.25,2,3,0.0,1.0,12,45.0,30.0,3,0.501,0.0,932.359,0.18,1,270,2018-10-02 14:49:24.857,0.25,90,-180,0,-90,1,F1703_Grainger,Block_J5-290
2018-10-02 14:33:54,75,0,939.583,0,180,1,0.25,2,3,0.0,1.0,12,45.0,30.0,3,0.35100000000000003,0.0,940.85,0.18,1,270,2018-10-02 14:49:33.583,0.25,90,-180,0,-90,1,F1703_Grainger,Block_J5-290
2018-10-02 14:33:54,76,0,947.603,0,180,1,0.25,2,9,0.0,1.0,6,45.0,30.0,9,0.401,1.0,949.144,0.23,1,270,2018-10-02 14:49:41.603,0.25,-90,0,-180,90,1,F1703_Grainger,Block_J5-290
2018-10-02 14:33:54,77,0,962.27,0,180,1,0.25,2,9,0.0,1.0,6,45.0,30.0,9,0.501,0.0,965.12,0.0,0,270,2018-10-02 14:49:56.270,0.25,90,0,-180,-90,1,F1703_Grainger,Block_J5-290
2018-10-02 14:33:54,81,0,996.473,0,180,1,0.25,2,9,0.0,1.0,6,45.0,30.0,9,0.301,1.0,997.627,0.23,1,270,2018-10-02 14:50:30.473,0.25,-90,0,-180,90,1,F1703_Grainger,Block_J5-290
2018-10-02 14:33:54,82,0,1017.243,0,180,1,0.25,2,3,0.0,1.0,12,45.0,30.0,3,0.451,0.0,1019.073,0.18,1,270,2018-10-02 14:50:51.243,0.25,90,-180,0,-90,1,F1703_Grainger,Block_J5-290
2018-10-02 14:33:54,83,0,1025.221,0,180,1,0.25,2,9,0.0,1.0,6,45.0,30.0,9,0.35100000000000003,1.0,1026.946,0.23,1,270,2018-10-02 14:50:59.221,0.25,-90,0,-180,90,1,F1703_Grainger,Block_J5-290
2018-10-02 14:33:54,84,0,1035.883,0,180,1,0.25,2,3,0.0,1.0,12,45.0,30.0,3,0.401,0.0,1037.497,0.18,1,270,2018-10-02 14:51:09.883,0.25,90,-180,0,-90,1,F1703_Grainger,Block_J5-290
2018-10-02 14:33:54,85,0,1044.784,0,180,1,0.25,2,3,0.0,1.0,12,45.0,30.0,3,0.501,0.0,1046.265,0.18,1,270,2018-10-02 14:51:18.784,0.25,90,-180,0,-90,1,F1703_Grainger,Block_J5-290
2018-10-02 14:33:54,86,0,1053.171,0,180,1,0.25,2,9,0.0,1.0,6,45.0,30.0,9,0.301,1.0,1055.213,0.23,1,270,2018-10-02 14:51:27.171,0.25,-90,0,-180,90,1,F1703_Grainger,Block_J5-290
2018-10-02 14:33:54,87,0,1064.443,0,180,1,0.25,2,9,0.0,1.0,6,45.0,30.0,9,0.401,1.0,1065.472,0.23,1,270,2018-10-02 14:51:38.443,0.25,-90,0,-180,90,1,F1703_Grainger,Block_J5-290
2018-10-02 14:33:54,88,0,1080.018,1,180,1,0.25,2,3,0.0,1.0,12,45.0,30.0,3,0.35100000000000003,0.0,1083.113,0.18,1,270,2018-10-02 14:51:54.018,0.25,90,-180,0,-90,1,F1703_Grainger,Block_J5-290
2018-10-02 14:33:54,89,0,1089.785,0,180,1,0.25,2,9,0.0,1.0,6,45.0,30.0,9,0.451,0.0,1092.294,0.0,0,270,2018-10-02 14:52:03.785,0.25,90,0,-180,-90,1,F1703_Grainger,Block_J5-290
2018-10-02 14:33:54,91,0,1103.829,0,180,1,0.25,2,9,0.0,1.0,6,45.0,30.0,9,0.35100000000000003,1.0,1105.912,0.23,1,270,2018-10-02 14:52:17.829,0.25,-90,0,-180,90,1,F1703_Grainger,Block_J5-290
2018-10-02 14:33:54,92,0,1124.924,0,180,1,0.25,2,9,0.0,1.0,6,45.0,30.0,9,0.401,0.0,1128.641,0.0,0,270,2018-10-02 14:52:38.924,0.25,90,0,-180,-90,1,F1703_Grainger,Block_J5-290
2018-10-02 14:33:54,95,0,1146.542,0,180,1,0.25,2,9,0.0,1.0,6,45.0,30.0,9,0.501,1.0,1149.064,0.23,1,270,2018-10-02 14:53:00.542,0.25,-90,0,-180,90,1,F1703_Grainger,Block_J5-290
2018-10-02 14:33:54,96,0,1160.112,0,180,1,0.25,2,3,0.0,1.0,12,45.0,30.0,3,0.451,0.0,1162.472,0.18,1,270,2018-10-02 14:53:14.112,0.25,90,-180,0,-90,1,F1703_Grainger,Block_J5-290
2018-10-02 14:33:54,97,0,1168.672,0,180,1,0.25,2,9,0.0,1.0,6,45.0,30.0,9,0.401,1.0,1169.756,0.23,1,270,2018-10-02 14:53:22.672,0.25,-90,0,-180,90,1,F1703_Grainger,Block_J5-290
2018-10-02 14:33:54,98,0,1178.227,0,180,1,0.25,2,9,0.0,1.0,6,45.0,30.0,9,0.501,1.0,1179.39,0.23,1,270,2018-10-02 14:53:32.227,0.25,-90,0,-180,90,1,F1703_Grainger,Block_J5-290
2018-10-02 14:33:54,99,0,1186.552,0,180,1,0.25,2,3,0.0,1.0,12,45.0,30.0,3,0.35100000000000003,0.0,1189.024,0.18,1,270,2018-10-02 14:53:40.552,0.25,90,-180,0,-90,1,F1703_Grainger,Block_J5-290
2018-10-02 14:33:54,100,0,1198.787,0,180,1,0.25,2,3,0.0,1.0,12,45.0,30.0,3,0.301,0.0,1200.364,0.18,1,270,2018-10-02 14:53:52.787,0.25,90,-180,0,-90,1,F1703_Grainger,Block_J5-290
2018-10-02 14:33:54,101,0,1207.161,1,180,1,0.25,2,9,0.0,1.0,6,45.0,30.0,9,0.301,0.0,1209.95,0.0,0,270,2018-10-02 14:54:01.161,0.25,90,0,-180,-90,1,F1703_Grainger,Block_J5-290
2018-10-02 14:33:54,103,0,1231.807,0,180,1,0.25,2,3,0.0,1.0,3,45.0,30.0,3,0.501,0.0,1233.351,0.18,1,270,2018-10-02 14:54:25.807,0.25,90,90,-90,-90,0,F1703_Grainger,Block_J5-290
2018-10-02 14:33:54,104,0,1249.214,0,180,1,0.25,2,3,0.0,1.0,12,45.0,30.0,3,0.35100000000000003,0.0,1250.48,0.18,1,270,2018-10-02 14:54:43.214,0.25,90,-180,0,-90,1,F1703_Grainger,Block_J5-290
2018-10-02 14:33:54,105,0,1256.298,0,180,1,0.25,2,3,0.0,1.0,12,45.0,30.0,3,0.451,0.0,1258.009,0.18,1,270,2018-10-02 14:54:50.298,0.25,90,-180,0,-90,1,F1703_Grainger,Block_J5-290
2018-10-02 14:33:54,106,0,1265.062,0,180,1,0.25,2,9,0.0,1.0,6,45.0,30.0,9,0.301,1.0,1266.755,0.23,1,270,2018-10-02 14:54:59.062,0.25,-90,0,-180,90,1,F1703_Grainger,Block_J5-290
2018-10-02 14:33:54,107,0,1276.911,1,180,1,0.25,2,3,0.0,1.0,12,45.0,30.0,3,0.35100000000000003,0.0,1279.628,0.18,1,270,2018-10-02 14:55:10.911,0.25,90,-180,0,-90,1,F1703_Grainger,Block_J5-290
2018-10-02 14:33:54,108,0,1290.759,0,180,1,0.25,2,9,0.0,1.0,9,45.0,30.0,9,0.451,0.0,1293.039,0.0,0,270,2018-10-02 14:55:24.759,0.25,90,-90,90,-90,0,F1703_Grainger,Block_J5-290
2018-10-02 14:58:45,1,0,40.109,0,180,1,0.25,2,3,0.0,1.0,3,45.0,30.0,3,0.601,1.0,42.812,0.0,0,370,2018-10-02 14:59:25.109,0.25,-90,90,-90,90,0,F1701_Pendleton,Block_J5-305
2018-10-02 14:58:45,2,0,57.724,0,180,1,0.25,2,9,0.0,1.0,6,45.0,30.0,9,0.301,0.0,60.03100000000001,0.0,0,370,2018-10-02 14:59:42.724,0.25,90,0,-180,-90,1,F1701_Pendleton,Block_J5-305
2018-10-02 14:58:45,4,0,81.072,0,180,1,0.25,2,9,0.0,1.0,6,45.0,30.0,9,0.376,1.0,82.238,0.3,1,370,2018-10-02 15:00:06.072,0.25,-90,0,-180,90,1,F1701_Pendleton,Block_J5-305
2018-10-02 14:58:45,5,0,102.326,1,180,1,0.25,2,9,0.0,1.0,9,45.0,30.0,9,0.526,1.0,104.082,0.3,1,370,2018-10-02 15:00:27.326,0.25,-90,-90,90,90,0,F1701_Pendleton,Block_J5-305
2018-10-02 14:58:45,6,0,129.096,1,180,1,0.25,2,3,0.0,1.0,12,45.0,30.0,3,0.301,0.0,131.72799999999998,0.15,1,370,2018-10-02 15:00:54.096,0.25,90,-180,0,-90,1,F1701_Pendleton,Block_J5-305
2018-10-02 14:58:45,7,0,139.3,0,180,1,0.25,2,9,0.0,1.0,6,45.0,30.0,9,0.526,1.0,141.184,0.3,1,370,2018-10-02 15:01:04.300,0.25,-90,0,-180,90,1,F1701_Pendleton,Block_J5-305
2018-10-02 14:58:45,8,0,156.681,0,180,1,0.25,2,9,0.0,1.0,6,45.0,30.0,9,0.451,1.0,158.02200000000005,0.3,1,370,2018-10-02 15:01:21.681,0.25,-90,0,-180,90,1,F1701_Pendleton,Block_J5-305
2018-10-02 14:58:45,9,0,183.414,0,180,1,0.25,2,3,0.0,1.0,12,45.0,30.0,3,0.376,0.0,184.922,0.15,1,370,2018-10-02 15:01:48.414,0.25,90,-180,0,-90,1,F1701_Pendleton,Block_J5-305
2018-10-02 14:58:45,10,0,192.716,0,180,1,0.25,2,9,0.0,1.0,6,45.0,30.0,9,0.601,0.0,194.404,0.0,0,370,2018-10-02 15:01:57.716,0.25,90,0,-180,-90,1,F1701_Pendleton,Block_J5-305
2018-10-02 14:58:45,12,0,210.978,0,180,1,0.25,2,9,0.0,1.0,6,45.0,30.0,9,0.526,0.0,212.506,0.0,0,370,2018-10-02 15:02:15.978,0.25,90,0,-180,-90,1,F1701_Pendleton,Block_J5-305
2018-10-02 14:58:45,14,0,234.254,1,180,1,0.25,2,9,0.0,1.0,6,45.0,30.0,9,0.451,1.0,235.515,0.3,1,370,2018-10-02 15:02:39.254,0.25,-90,0,-180,90,1,F1701_Pendleton,Block_J5-305
2018-10-02 14:58:45,15,0,258.117,1,180,1,0.25,2,3,0.0,1.0,12,45.0,30.0,3,0.601,0.0,261.64,0.15,1,370,2018-10-02 15:03:03.117,0.25,90,-180,0,-90,1,F1701_Pendleton,Block_J5-305
2018-10-02 14:58:45,16,0,268.214,1,180,1,0.25,2,3,0.0,1.0,12,45.0,30.0,3,0.601,0.0,270.73400000000004,0.15,1,370,2018-10-02 15:03:13.214,0.25,90,-180,0,-90,1,F1701_Pendleton,Block_J5-305
2018-10-02 14:58:45,17,0,277.817,1,180,1,0.25,2,3,0.0,1.0,12,45.0,30.0,3,0.301,0.0,279.938,0.15,1,370,2018-10-02 15:03:22.817,0.25,90,-180,0,-90,1,F1701_Pendleton,Block_J5-305
2018-10-02 14:58:45,18,0,287.198,1,180,1,0.25,2,9,0.0,1.0,6,45.0,30.0,9,0.376,0.0,290.211,0.0,0,370,2018-10-02 15:03:32.198,0.25,90,0,-180,-90,1,F1701_Pendleton,Block_J5-305
2018-10-02 14:58:45,20,0,305.345,1,180,1,0.25,2,3,0.0,1.0,12,45.0,30.0,3,0.451,0.0,307.11,0.15,1,370,2018-10-02 15:03:50.345,0.25,90,-180,0,-90,1,F1701_Pendleton,Block_J5-305
2018-10-02 14:58:45,21,0,313.897,0,180,1,0.25,2,3,0.0,1.0,12,45.0,30.0,3,0.451,0.0,316.2990000000001,0.15,1,370,2018-10-02 15:03:58.897,0.25,90,-180,0,-90,1,F1701_Pendleton,Block_J5-305
2018-10-02 14:58:45,22,0,323.592,1,180,1,0.25,2,9,0.0,1.0,6,45.0,30.0,9,0.601,1.0,324.935,0.3,1,370,2018-10-02 15:04:08.592,0.25,-90,0,-180,90,1,F1701_Pendleton,Block_J5-305
2018-10-02 14:58:45,23,0,337.7340000000001,1,180,1,0.25,2,3,0.0,1.0,12,45.0,30.0,3,0.526,1.0,340.357,0.0,0,370,2018-10-02 15:04:22.734,0.25,-90,-180,0,90,1,F1701_Pendleton,Block_J5-305
2018-10-02 14:58:45,25,0,355.80300000000005,1,180,1,0.25,2,3,0.0,1.0,12,45.0,30.0,3,0.301,1.0,358.159,0.0,0,370,2018-10-02 15:04:40.803,0.25,-90,-180,0,90,1,F1701_Pendleton,Block_J5-305
2018-10-02 14:58:45,27,0,369.13,0,180,1,0.25,2,3,0.0,1.0,12,45.0,30.0,3,0.301,1.0,370.464,0.0,0,370,2018-10-02 15:04:54.130,0.25,-90,-180,0,90,1,F1701_Pendleton,Block_J5-305
2018-10-02 14:58:45,31,0,390.893,1,180,1,0.25,2,9,0.0,1.0,6,45.0,30.0,9,0.526,1.0,392.13,0.3,1,370,2018-10-02 15:05:15.893,0.25,-90,0,-180,90,1,F1701_Pendleton,Block_J5-305
2018-10-02 14:58:45,32,0,402.68300000000005,1,180,1,0.25,2,9,0.0,1.0,6,45.0,30.0,9,0.451,1.0,404.031,0.3,1,370,2018-10-02 15:05:27.683,0.25,-90,0,-180,90,1,F1701_Pendleton,Block_J5-305
2018-10-02 14:58:45,33,0,437.354,0,180,1,0.25,2,3,0.0,1.0,12,45.0,30.0,3,0.376,0.0,438.838,0.15,1,370,2018-10-02 15:06:02.354,0.25,90,-180,0,-90,1,F1701_Pendleton,Block_J5-305
2018-10-02 14:58:45,34,0,445.30300000000005,1,180,1,0.25,2,9,0.0,1.0,6,45.0,30.0,9,0.601,1.0,446.467,0.3,1,370,2018-10-02 15:06:10.303,0.25,-90,0,-180,90,1,F1701_Pendleton,Block_J5-305
2018-10-02 14:58:45,35,0,455.88,1,180,1,0.25,2,3,0.0,1.0,12,45.0,30.0,3,0.301,0.0,458.661,0.15,1,370,2018-10-02 15:06:20.880,0.25,90,-180,0,-90,1,F1701_Pendleton,Block_J5-305
2018-10-02 14:58:45,36,0,465.534,0,180,1,0.25,2,9,0.0,1.0,6,45.0,30.0,9,0.376,1.0,466.953,0.3,1,370,2018-10-02 15:06:30.534,0.25,-90,0,-180,90,1,F1701_Pendleton,Block_J5-305
2018-10-02 14:58:45,37,0,481.265,0,180,1,0.25,2,3,0.0,1.0,12,45.0,30.0,3,0.526,1.0,483.187,0.0,0,370,2018-10-02 15:06:46.265,0.25,-90,-180,0,90,1,F1701_Pendleton,Block_J5-305
2018-10-02 14:58:45,39,0,503.081,1,180,1,0.25,2,3,0.0,1.0,12,45.0,30.0,3,0.601,0.0,506.024,0.15,1,370,2018-10-02 15:07:08.081,0.25,90,-180,0,-90,1,F1701_Pendleton,Block_J5-305
2018-10-02 14:58:45,40,0,512.775,0,180,1,0.25,2,3,0.0,1.0,12,45.0,30.0,3,0.451,1.0,514.1519999999998,0.0,0,370,2018-10-02 15:07:17.775,0.25,-90,-180,0,90,1,F1701_Pendleton,Block_J5-305
2018-10-02 14:58:45,42,0,536.52,1,180,1,0.25,2,9,0.0,1.0,6,45.0,30.0,9,0.526,1.0,538.438,0.3,1,370,2018-10-02 15:07:41.520,0.25,-90,0,-180,90,1,F1701_Pendleton,Block_J5-305
2018-10-02 14:58:45,43,0,547.663,0,180,1,0.25,2,3,0.0,1.0,12,45.0,30.0,3,0.601,0.0,549.6030000000002,0.15,1,370,2018-10-02 15:07:52.663,0.25,90,-180,0,-90,1,F1701_Pendleton,Block_J5-305
2018-10-02 14:58:45,44,0,555.919,1,180,1,0.25,2,3,0.0,1.0,12,45.0,30.0,3,0.451,1.0,557.4580000000002,0.0,0,370,2018-10-02 15:08:00.919,0.25,-90,-180,0,90,1,F1701_Pendleton,Block_J5-305
2018-10-02 14:58:45,46,0,570.4680000000002,1,180,1,0.25,2,9,0.0,1.0,6,45.0,30.0,9,0.376,1.0,571.66,0.3,1,370,2018-10-02 15:08:15.468,0.25,-90,0,-180,90,1,F1701_Pendleton,Block_J5-305
2018-10-02 14:58:45,47,0,587.765,0,180,1,0.25,2,3,0.0,1.0,12,45.0,30.0,3,0.451,1.0,589.505,0.0,0,370,2018-10-02 15:08:32.765,0.25,-90,-180,0,90,1,F1701_Pendleton,Block_J5-305
2018-10-02 14:58:45,49,0,609.16,0,180,1,0.25,2,9,0.0,1.0,6,45.0,30.0,9,0.526,1.0,610.564,0.3,1,370,2018-10-02 15:08:54.160,0.25,-90,0,-180,90,1,F1701_Pendleton,Block_J5-305
2018-10-02 14:58:45,50,0,621.054,1,180,1,0.25,2,3,0.0,1.0,12,45.0,30.0,3,0.301,1.0,623.681,0.0,0,370,2018-10-02 15:09:06.054,0.25,-90,-180,0,90,1,F1701_Pendleton,Block_J5-305
2018-10-02 14:58:45,52,0,642.288,1,180,1,0.25,2,9,0.0,1.0,3,45.0,30.0,9,0.451,1.0,644.44,0.3,1,370,2018-10-02 15:09:27.288,0.25,-90,90,-90,90,0,F1701_Pendleton,Block_J5-305
2018-10-02 14:58:45,53,0,662.1110000000001,0,180,1,0.25,2,9,0.0,1.0,6,45.0,30.0,9,0.526,1.0,663.4119999999998,0.3,1,370,2018-10-02 15:09:47.111,0.25,-90,0,-180,90,1,F1701_Pendleton,Block_J5-305
2018-10-02 14:58:45,54,0,679.2410000000001,1,180,1,0.25,2,9,0.0,1.0,6,45.0,30.0,9,0.376,1.0,680.572,0.3,1,370,2018-10-02 15:10:04.241,0.25,-90,0,-180,90,1,F1701_Pendleton,Block_J5-305
2018-10-02 14:58:45,55,0,689.803,1,180,1,0.25,2,3,0.0,1.0,9,45.0,30.0,3,0.301,1.0,692.023,0.0,0,370,2018-10-02 15:10:14.803,0.25,-90,-90,90,90,0,F1701_Pendleton,Block_J5-305
2018-10-02 14:58:45,56,0,710.4680000000002,0,180,1,0.25,2,9,0.0,1.0,6,45.0,30.0,9,0.376,1.0,711.76,0.3,1,370,2018-10-02 15:10:35.468,0.25,-90,0,-180,90,1,F1701_Pendleton,Block_J5-305
2018-10-02 14:58:45,57,0,720.7330000000002,1,180,1,0.25,2,9,0.0,1.0,6,45.0,30.0,9,0.451,1.0,721.7389999999998,0.3,1,370,2018-10-02 15:10:45.733,0.25,-90,0,-180,90,1,F1701_Pendleton,Block_J5-305
2018-10-02 14:58:45,58,0,731.2760000000002,0,180,1,0.25,2,9,0.0,1.0,6,45.0,30.0,9,0.301,1.0,732.8710000000002,0.3,1,370,2018-10-02 15:10:56.276,0.25,-90,0,-180,90,1,F1701_Pendleton,Block_J5-305
2018-10-02 14:58:45,59,0,743.796,0,180,1,0.25,2,9,0.0,1.0,6,45.0,30.0,9,0.601,1.0,744.7860000000002,0.3,1,370,2018-10-02 15:11:08.796,0.25,-90,0,-180,90,1,F1701_Pendleton,Block_J5-305
2018-10-02 14:58:45,60,0,758.35,1,180,1,0.25,2,9,0.0,1.0,6,45.0,30.0,9,0.526,1.0,760.888,0.3,1,370,2018-10-02 15:11:23.350,0.25,-90,0,-180,90,1,F1701_Pendleton,Block_J5-305
2018-10-02 14:58:45,61,0,769.919,0,180,1,0.25,2,9,0.0,1.0,6,45.0,30.0,9,0.376,1.0,771.405,0.3,1,370,2018-10-02 15:11:34.919,0.25,-90,0,-180,90,1,F1701_Pendleton,Block_J5-305
2018-10-02 14:58:45,62,0,781.686,0,180,1,0.25,2,9,0.0,1.0,6,45.0,30.0,9,0.601,1.0,782.8639999999998,0.3,1,370,2018-10-02 15:11:46.686,0.25,-90,0,-180,90,1,F1701_Pendleton,Block_J5-305
2018-10-02 14:58:45,63,0,794.663,0,180,1,0.25,2,9,0.0,1.0,6,45.0,30.0,9,0.451,1.0,796.177,0.3,1,370,2018-10-02 15:11:59.663,0.25,-90,0,-180,90,1,F1701_Pendleton,Block_J5-305
2018-10-02 14:58:45,64,0,804.9019999999998,1,180,1,0.25,2,3,0.0,1.0,12,45.0,30.0,3,0.526,1.0,806.578,0.0,0,370,2018-10-02 15:12:09.902,0.25,-90,-180,0,90,1,F1701_Pendleton,Block_J5-305
2018-10-02 14:58:45,66,0,818.773,1,180,1,0.25,2,9,0.0,1.0,6,45.0,30.0,9,0.301,1.0,820.003,0.3,1,370,2018-10-02 15:12:23.773,0.25,-90,0,-180,90,1,F1701_Pendleton,Block_J5-305
2018-10-02 14:58:45,67,0,829.957,1,180,1,0.25,2,3,0.0,1.0,12,45.0,30.0,3,0.526,1.0,831.074,0.0,0,370,2018-10-02 15:12:34.957,0.25,-90,-180,0,90,1,F1701_Pendleton,Block_J5-305
2018-10-02 14:58:45,70,0,894.6610000000002,1,180,1,0.25,2,3,0.0,1.0,9,45.0,30.0,3,0.451,1.0,895.8539999999998,0.0,0,370,2018-10-02 15:13:39.661,0.25,-90,-90,90,90,0,F1701_Pendleton,Block_J5-305
2018-10-02 14:58:45,71,0,901.559,0,180,1,0.25,2,3,0.0,1.0,12,45.0,30.0,3,0.301,1.0,903.715,0.0,0,370,2018-10-02 15:13:46.559,0.25,-90,-180,0,90,1,F1701_Pendleton,Block_J5-305
2018-10-03 09:03:34,1,0,32.211,0,-90,1,0.25,2,9,0.0,1.0,6,45.0,30.0,9,0.401,1.0,33.629,0.23,1,308,2018-10-03 09:04:06.211,0.25,-90,0,90,0,1,F1703_Grainger,Block_J5-291
2018-10-03 09:03:34,2,0,60.93,0,-90,1,0.25,2,3,0.0,1.0,12,45.0,30.0,3,0.501,1.0,61.99800000000001,0.0,0,308,2018-10-03 09:04:34.930,0.25,-90,-180,-90,0,1,F1703_Grainger,Block_J5-291
2018-10-03 09:03:34,4,0,75.723,0,-90,1,0.25,2,9,0.0,1.0,6,45.0,30.0,9,0.451,1.0,76.907,0.23,1,308,2018-10-03 09:04:49.723,0.25,-90,0,90,0,1,F1703_Grainger,Block_J5-291
2018-10-03 09:03:34,5,0,95.065,0,-90,1,0.25,2,9,0.0,1.0,6,45.0,30.0,9,0.35100000000000003,1.0,96.675,0.23,1,308,2018-10-03 09:05:09.065,0.25,-90,0,90,0,1,F1703_Grainger,Block_J5-291
2018-10-03 09:03:34,6,0,116.774,0,-90,1,0.25,2,3,0.0,1.0,12,45.0,30.0,3,0.451,1.0,122.071,0.0,0,308,2018-10-03 09:05:30.774,0.25,-90,-180,-90,0,1,F1703_Grainger,Block_J5-291
2018-10-03 09:03:34,8,0,137.25799999999998,0,-90,1,0.25,2,3,0.0,1.0,12,45.0,30.0,3,0.501,0.0,138.501,0.18,1,308,2018-10-03 09:05:51.258,0.25,90,-180,-90,-180,1,F1703_Grainger,Block_J5-291
2018-10-03 09:03:34,9,0,156.183,0,-90,1,0.25,2,3,0.0,1.0,12,45.0,30.0,3,0.301,0.0,160.562,0.18,1,308,2018-10-03 09:06:10.183,0.25,90,-180,-90,-180,1,F1703_Grainger,Block_J5-291
2018-10-03 09:03:34,10,0,167.542,0,-90,1,0.25,2,9,0.0,1.0,6,45.0,30.0,9,0.401,1.0,169.28799999999995,0.23,1,308,2018-10-03 09:06:21.542,0.25,-90,0,90,0,1,F1703_Grainger,Block_J5-291
2018-10-03 09:03:34,11,0,197.463,0,-90,1,0.25,2,3,0.0,1.0,12,45.0,30.0,3,0.501,0.0,198.751,0.18,1,308,2018-10-03 09:06:51.463,0.25,90,-180,-90,-180,1,F1703_Grainger,Block_J5-291
2018-10-03 09:03:34,12,0,225.79,0,-90,1,0.25,2,3,0.0,1.0,12,45.0,30.0,3,0.35100000000000003,0.0,227.695,0.18,1,308,2018-10-03 09:07:19.790,0.25,90,-180,-90,-180,1,F1703_Grainger,Block_J5-291
2018-10-03 09:03:34,13,0,237.672,1,-90,1,0.25,2,3,0.0,1.0,12,45.0,30.0,3,0.451,1.0,239.78,0.0,0,308,2018-10-03 09:07:31.672,0.25,-90,-180,-90,0,1,F1703_Grainger,Block_J5-291
2018-10-03 09:03:34,15,0,251.979,0,-90,1,0.25,2,9,0.0,1.0,6,45.0,30.0,9,0.401,0.0,252.897,0.0,0,308,2018-10-03 09:07:45.979,0.25,90,0,90,-180,1,F1703_Grainger,Block_J5-291
2018-10-03 09:03:34,17,0,268.599,0,-90,1,0.25,2,3,0.0,1.0,12,45.0,30.0,3,0.401,0.0,269.935,0.18,1,308,2018-10-03 09:08:02.599,0.25,90,-180,-90,-180,1,F1703_Grainger,Block_J5-291
2018-10-03 09:03:34,18,0,277.22700000000003,1,-90,1,0.25,2,3,0.0,1.0,12,45.0,30.0,3,0.501,1.0,279.069,0.0,0,308,2018-10-03 09:08:11.227,0.25,-90,-180,-90,0,1,F1703_Grainger,Block_J5-291
2018-10-03 09:03:34,20,0,292.248,0,-90,1,0.25,2,9,0.0,1.0,6,45.0,30.0,9,0.35100000000000003,1.0,293.378,0.23,1,308,2018-10-03 09:08:26.248,0.25,-90,0,90,0,1,F1703_Grainger,Block_J5-291
2018-10-03 09:03:34,21,0,305.621,0,-90,1,0.25,2,9,0.0,1.0,6,45.0,30.0,9,0.401,1.0,311.64,0.23,1,308,2018-10-03 09:08:39.621,0.25,-90,0,90,0,1,F1703_Grainger,Block_J5-291
2018-10-03 09:03:34,22,0,330.497,0,-90,1,0.25,2,9,0.0,1.0,6,45.0,30.0,9,0.451,0.0,332.916,0.0,0,308,2018-10-03 09:09:04.497,0.25,90,0,90,-180,1,F1703_Grainger,Block_J5-291
2018-10-03 09:03:34,25,0,352.892,0,-90,1,0.25,2,3,0.0,1.0,12,45.0,30.0,3,0.501,0.0,354.259,0.18,1,308,2018-10-03 09:09:26.892,0.25,90,-180,-90,-180,1,F1703_Grainger,Block_J5-291
2018-10-03 09:03:34,26,0,360.91,0,-90,1,0.25,2,9,0.0,1.0,6,45.0,30.0,9,0.301,0.0,362.041,0.0,0,308,2018-10-03 09:09:34.910,0.25,90,0,90,-180,1,F1703_Grainger,Block_J5-291
2018-10-03 09:03:34,28,0,380.576,0,-90,1,0.25,2,9,0.0,1.0,6,45.0,30.0,9,0.401,1.0,382.371,0.23,1,308,2018-10-03 09:09:54.576,0.25,-90,0,90,0,1,F1703_Grainger,Block_J5-291
2018-10-03 09:03:34,29,0,419.07,0,-90,1,0.25,2,9,0.0,1.0,6,45.0,30.0,9,0.501,0.0,420.481,0.0,0,308,2018-10-03 09:10:33.070,0.25,90,0,90,-180,1,F1703_Grainger,Block_J5-291
2018-10-03 09:03:34,31,0,451.922,0,-90,1,0.25,2,9,0.0,1.0,6,45.0,30.0,9,0.501,1.0,453.88,0.23,1,308,2018-10-03 09:11:05.922,0.25,-90,0,90,0,1,F1703_Grainger,Block_J5-291
2018-10-03 09:03:34,32,0,466.49300000000005,0,-90,1,0.25,2,9,0.0,1.0,6,45.0,30.0,9,0.35100000000000003,0.0,468.215,0.0,0,308,2018-10-03 09:11:20.493,0.25,90,0,90,-180,1,F1703_Grainger,Block_J5-291
2018-10-03 09:03:34,34,0,484.327,0,-90,1,0.25,2,3,0.0,1.0,12,45.0,30.0,3,0.301,0.0,485.859,0.18,1,308,2018-10-03 09:11:38.327,0.25,90,-180,-90,-180,1,F1703_Grainger,Block_J5-291
2018-10-03 09:03:34,35,0,495.501,0,-90,1,0.25,2,9,0.0,1.0,6,45.0,30.0,9,0.451,1.0,497.141,0.23,1,308,2018-10-03 09:11:49.501,0.25,-90,0,90,0,1,F1703_Grainger,Block_J5-291
2018-10-03 09:03:34,36,0,507.87,0,-90,1,0.25,2,3,0.0,1.0,12,45.0,30.0,3,0.401,1.0,511.129,0.0,0,308,2018-10-03 09:12:01.870,0.25,-90,-180,-90,0,1,F1703_Grainger,Block_J5-291
2018-10-03 09:03:34,39,0,535.758,0,-90,1,0.25,2,3,0.0,1.0,12,45.0,30.0,3,0.501,0.0,536.87,0.18,1,308,2018-10-03 09:12:29.758,0.25,90,-180,-90,-180,1,F1703_Grainger,Block_J5-291
2018-10-03 09:03:34,40,0,544.871,1,-90,1,0.25,2,3,0.0,1.0,12,45.0,30.0,3,0.451,0.0,546.028,0.18,1,308,2018-10-03 09:12:38.871,0.25,90,-180,-90,-180,1,F1703_Grainger,Block_J5-291
2018-10-03 09:03:34,41,0,553.712,0,-90,1,0.25,2,9,0.0,1.0,6,45.0,30.0,9,0.35100000000000003,1.0,555.39,0.23,1,308,2018-10-03 09:12:47.712,0.25,-90,0,90,0,1,F1703_Grainger,Block_J5-291
2018-10-03 09:03:34,42,0,561.874,0,-90,1,0.25,2,9,0.0,1.0,6,45.0,30.0,9,0.451,1.0,564.2230000000002,0.23,1,308,2018-10-03 09:12:55.874,0.25,-90,0,90,0,1,F1703_Grainger,Block_J5-291
2018-10-03 09:03:34,43,0,574.0880000000002,1,-90,1,0.25,2,3,0.0,1.0,12,45.0,30.0,3,0.401,0.0,575.215,0.18,1,308,2018-10-03 09:13:08.088,0.25,90,-180,-90,-180,1,F1703_Grainger,Block_J5-291
2018-10-03 09:03:34,44,0,581.881,0,-90,1,0.25,2,3,0.0,1.0,12,45.0,30.0,3,0.301,0.0,585.395,0.18,1,308,2018-10-03 09:13:15.881,0.25,90,-180,-90,-180,1,F1703_Grainger,Block_J5-291
2018-10-03 09:03:34,45,0,592.535,0,-90,1,0.25,2,3,0.0,1.0,12,45.0,30.0,3,0.501,0.0,594.082,0.18,1,308,2018-10-03 09:13:26.535,0.25,90,-180,-90,-180,1,F1703_Grainger,Block_J5-291
2018-10-03 09:03:34,46,0,601.054,0,-90,1,0.25,2,9,0.0,1.0,6,45.0,30.0,9,0.501,1.0,612.122,0.23,1,308,2018-10-03 09:13:35.054,0.25,-90,0,90,0,1,F1703_Grainger,Block_J5-291
2018-10-03 09:03:34,47,0,620.309,0,-90,1,0.25,2,3,0.0,1.0,12,45.0,30.0,3,0.35100000000000003,0.0,621.832,0.18,1,308,2018-10-03 09:13:54.309,0.25,90,-180,-90,-180,1,F1703_Grainger,Block_J5-291
2018-10-03 09:03:34,48,0,628.562,0,-90,1,0.25,2,9,0.0,1.0,6,45.0,30.0,9,0.301,1.0,630.2090000000002,0.23,1,308,2018-10-03 09:14:02.562,0.25,-90,0,90,0,1,F1703_Grainger,Block_J5-291
2018-10-03 09:03:34,49,0,648.07,0,-90,1,0.25,2,9,0.0,1.0,3,45.0,30.0,9,0.451,1.0,650.251,0.23,1,308,2018-10-03 09:14:22.070,0.25,-90,90,-180,0,0,F1703_Grainger,Block_J5-291
2018-10-03 09:03:34,50,0,658.337,0,-90,1,0.25,2,9,0.0,1.0,6,45.0,30.0,9,0.401,0.0,660.065,0.0,0,308,2018-10-03 09:14:32.337,0.25,90,0,90,-180,1,F1703_Grainger,Block_J5-291
2018-10-03 09:03:34,52,0,694.303,0,-90,1,0.25,2,3,0.0,1.0,12,45.0,30.0,3,0.35100000000000003,0.0,695.6210000000002,0.18,1,308,2018-10-03 09:15:08.303,0.25,90,-180,-90,-180,1,F1703_Grainger,Block_J5-291
2018-10-03 09:03:34,53,0,702.824,1,-90,1,0.25,2,3,0.0,1.0,12,45.0,30.0,3,0.301,0.0,704.007,0.18,1,308,2018-10-03 09:15:16.824,0.25,90,-180,-90,-180,1,F1703_Grainger,Block_J5-291
2018-10-03 09:03:34,54,0,710.086,0,-90,1,0.25,2,9,0.0,1.0,6,45.0,30.0,9,0.451,1.0,714.6080000000002,0.23,1,308,2018-10-03 09:15:24.086,0.25,-90,0,90,0,1,F1703_Grainger,Block_J5-291
2018-10-03 09:03:34,55,0,722.36,1,-90,1,0.25,2,9,0.0,1.0,6,45.0,30.0,9,0.401,1.0,723.752,0.23,1,308,2018-10-03 09:15:36.360,0.25,-90,0,90,0,1,F1703_Grainger,Block_J5-291
2018-10-03 09:03:34,56,0,731.201,0,-90,1,0.25,2,3,0.0,1.0,12,45.0,30.0,3,0.501,0.0,732.683,0.18,1,308,2018-10-03 09:15:45.201,0.25,90,-180,-90,-180,1,F1703_Grainger,Block_J5-291
2018-10-03 09:03:34,57,0,738.717,0,-90,1,0.25,2,9,0.0,1.0,6,45.0,30.0,9,0.35100000000000003,1.0,740.072,0.23,1,308,2018-10-03 09:15:52.717,0.25,-90,0,90,0,1,F1703_Grainger,Block_J5-291
2018-10-03 09:03:34,58,0,746.9760000000001,0,-90,1,0.25,2,9,0.0,1.0,6,45.0,30.0,9,0.401,1.0,748.253,0.23,1,308,2018-10-03 09:16:00.976,0.25,-90,0,90,0,1,F1703_Grainger,Block_J5-291
2018-10-03 09:03:34,59,0,781.095,0,-90,1,0.25,2,3,0.0,1.0,12,45.0,30.0,3,0.451,1.0,790.314,0.0,0,308,2018-10-03 09:16:35.095,0.25,-90,-180,-90,0,1,F1703_Grainger,Block_J5-291
2018-10-03 09:03:34,61,0,804.538,0,-90,1,0.25,2,9,0.0,1.0,6,45.0,30.0,9,0.501,0.0,807.4069999999998,0.0,0,308,2018-10-03 09:16:58.538,0.25,90,0,90,-180,1,F1703_Grainger,Block_J5-291
2018-10-03 09:03:34,63,0,820.237,0,-90,1,0.25,2,3,0.0,1.0,12,45.0,30.0,3,0.301,0.0,821.4939999999998,0.18,1,308,2018-10-03 09:17:14.237,0.25,90,-180,-90,-180,1,F1703_Grainger,Block_J5-291
2018-10-03 09:03:34,64,0,827.341,0,-90,1,0.25,2,3,0.0,1.0,3,45.0,30.0,3,0.451,0.0,828.373,0.18,1,308,2018-10-03 09:17:21.341,0.25,90,90,-180,-180,0,F1703_Grainger,Block_J5-291
2018-10-03 09:03:34,65,0,834.42,0,-90,1,0.25,2,3,0.0,1.0,12,45.0,30.0,3,0.35100000000000003,0.0,835.6489999999999,0.18,1,308,2018-10-03 09:17:28.420,0.25,90,-180,-90,-180,1,F1703_Grainger,Block_J5-291
2018-10-03 09:03:34,66,0,846.2180000000002,0,-90,1,0.25,2,3,0.0,1.0,12,45.0,30.0,3,0.301,0.0,838.451,0.18,1,308,2018-10-03 09:17:40.218,0.25,90,-180,-90,-180,1,F1703_Grainger,Block_J5-291
2018-10-03 09:03:34,67,0,854.9169999999998,0,-90,1,0.25,2,3,0.0,1.0,12,45.0,30.0,3,0.451,0.0,856.2719999999998,0.18,1,308,2018-10-03 09:17:48.917,0.25,90,-180,-90,-180,1,F1703_Grainger,Block_J5-291
2018-10-03 09:03:34,68,0,861.671,0,-90,1,0.25,2,9,0.0,1.0,6,45.0,30.0,9,0.35100000000000003,1.0,862.87,0.23,1,308,2018-10-03 09:17:55.671,0.25,-90,0,90,0,1,F1703_Grainger,Block_J5-291
2018-10-03 09:03:34,69,0,894.418,0,-90,1,0.25,2,3,0.0,1.0,12,45.0,30.0,3,0.401,0.0,897.2760000000002,0.18,1,308,2018-10-03 09:18:28.418,0.25,90,-180,-90,-180,1,F1703_Grainger,Block_J5-291
2018-10-03 09:03:34,70,0,908.906,0,-90,1,0.25,2,3,0.0,1.0,12,45.0,30.0,3,0.501,1.0,910.323,0.0,0,308,2018-10-03 09:18:42.906,0.25,-90,-180,-90,0,1,F1703_Grainger,Block_J5-291
2018-10-03 09:22:09,1,0,34.313,0,-90,1,0.25,2,9,0.0,1.0,6,45.0,30.0,9,0.601,1.0,36.497,0.3,1,293,2018-10-03 09:22:43.313,0.25,-90,0,90,0,1,F1701_Pendleton,Block_J5-306
2018-10-03 09:22:09,2,0,53.396,0,-90,1,0.25,2,3,0.0,1.0,12,45.0,30.0,3,0.451,0.0,55.051,0.15,1,293,2018-10-03 09:23:02.396,0.25,90,-180,-90,-180,1,F1701_Pendleton,Block_J5-306
2018-10-03 09:22:09,3,0,62.61600000000001,1,-90,1,0.25,2,9,0.0,1.0,6,45.0,30.0,9,0.301,0.0,64.192,0.0,0,293,2018-10-03 09:23:11.616,0.25,90,0,90,-180,1,F1701_Pendleton,Block_J5-306
2018-10-03 09:22:09,5,0,84.633,1,-90,1,0.25,2,9,0.0,1.0,6,45.0,30.0,9,0.376,1.0,86.882,0.3,1,293,2018-10-03 09:23:33.633,0.25,-90,0,90,0,1,F1701_Pendleton,Block_J5-306
2018-10-03 09:22:09,6,0,125.742,0,-90,1,0.25,2,3,0.0,1.0,12,45.0,30.0,3,0.601,0.0,127.083,0.15,1,293,2018-10-03 09:24:14.742,0.25,90,-180,-90,-180,1,F1701_Pendleton,Block_J5-306
2018-10-03 09:22:09,7,0,135.743,0,-90,1,0.25,2,9,0.0,1.0,6,45.0,30.0,9,0.376,1.0,137.178,0.3,1,293,2018-10-03 09:24:24.743,0.25,-90,0,90,0,1,F1701_Pendleton,Block_J5-306
2018-10-03 09:22:09,8,0,147.757,0,-90,1,0.25,2,9,0.0,1.0,6,45.0,30.0,9,0.301,1.0,149.22299999999996,0.3,1,293,2018-10-03 09:24:36.757,0.25,-90,0,90,0,1,F1701_Pendleton,Block_J5-306
2018-10-03 09:22:09,9,0,168.665,0,-90,1,0.25,2,9,0.0,1.0,6,45.0,30.0,9,0.526,1.0,170.45,0.3,1,293,2018-10-03 09:24:57.665,0.25,-90,0,90,0,1,F1701_Pendleton,Block_J5-306
2018-10-03 09:22:09,10,0,187.503,0,-90,1,0.25,2,3,0.0,1.0,12,45.0,30.0,3,0.451,0.0,189.447,0.15,1,293,2018-10-03 09:25:16.503,0.25,90,-180,-90,-180,1,F1701_Pendleton,Block_J5-306
2018-10-03 09:22:09,11,0,206.145,0,-90,1,0.25,2,3,0.0,1.0,12,45.0,30.0,3,0.301,0.0,207.361,0.15,1,293,2018-10-03 09:25:35.145,0.25,90,-180,-90,-180,1,F1701_Pendleton,Block_J5-306
2018-10-03 09:22:09,12,0,227.938,0,-90,1,0.25,2,3,0.0,1.0,12,45.0,30.0,3,0.601,1.0,229.246,0.0,0,293,2018-10-03 09:25:56.938,0.25,-90,-180,-90,0,1,F1701_Pendleton,Block_J5-306
2018-10-03 09:22:09,15,0,247.456,0,-90,1,0.25,2,9,0.0,1.0,6,45.0,30.0,9,0.376,0.0,248.927,0.0,0,293,2018-10-03 09:26:16.456,0.25,90,0,90,-180,1,F1701_Pendleton,Block_J5-306
2018-10-03 09:22:09,17,0,269.217,1,-90,1,0.25,2,3,0.0,1.0,12,45.0,30.0,3,0.601,1.0,270.39,0.0,0,293,2018-10-03 09:26:38.217,0.25,-90,-180,-90,0,1,F1701_Pendleton,Block_J5-306
2018-10-03 09:22:09,21,0,303.27,1,-90,1,0.25,2,3,0.0,1.0,12,45.0,30.0,3,0.376,0.0,305.783,0.15,1,293,2018-10-03 09:27:12.270,0.25,90,-180,-90,-180,1,F1701_Pendleton,Block_J5-306
2018-10-03 09:22:09,22,0,312.139,0,-90,1,0.25,2,9,0.0,1.0,9,45.0,30.0,9,0.526,1.0,313.795,0.3,1,293,2018-10-03 09:27:21.139,0.25,-90,-90,0,0,0,F1701_Pendleton,Block_J5-306
2018-10-03 09:22:09,23,0,327.735,0,-90,1,0.25,2,3,0.0,1.0,12,45.0,30.0,3,0.601,1.0,328.8880000000001,0.0,0,293,2018-10-03 09:27:36.735,0.25,-90,-180,-90,0,1,F1701_Pendleton,Block_J5-306
2018-10-03 09:22:09,26,0,347.672,1,-90,1,0.25,2,3,0.0,1.0,9,45.0,30.0,3,0.526,0.0,349.858,0.15,1,293,2018-10-03 09:27:56.672,0.25,90,-90,0,-180,0,F1701_Pendleton,Block_J5-306
2018-10-03 09:22:09,27,0,361.352,1,-90,1,0.25,2,3,0.0,1.0,12,45.0,30.0,3,0.376,1.0,363.999,0.0,0,293,2018-10-03 09:28:10.352,0.25,-90,-180,-90,0,1,F1701_Pendleton,Block_J5-306
2018-10-03 09:22:09,29,0,374.807,1,-90,1,0.25,2,9,0.0,1.0,6,45.0,30.0,9,0.451,1.0,377.297,0.3,1,293,2018-10-03 09:28:23.807,0.25,-90,0,90,0,1,F1701_Pendleton,Block_J5-306
2018-10-03 09:22:09,30,0,418.266,1,-90,1,0.25,2,9,0.0,1.0,6,45.0,30.0,9,0.601,1.0,420.451,0.3,1,293,2018-10-03 09:29:07.266,0.25,-90,0,90,0,1,F1701_Pendleton,Block_J5-306
2018-10-03 09:22:09,31,0,441.025,0,-90,1,0.25,2,3,0.0,1.0,3,45.0,30.0,3,0.301,1.0,443.036,0.0,0,293,2018-10-03 09:29:30.025,0.25,-90,90,-180,0,0,F1701_Pendleton,Block_J5-306
2018-10-03 09:22:09,32,0,522.839,0,-90,1,0.25,2,9,0.0,1.0,6,45.0,30.0,9,0.601,1.0,524.776,0.3,1,293,2018-10-03 09:30:51.839,0.25,-90,0,90,0,1,F1701_Pendleton,Block_J5-306
2018-10-03 09:22:09,33,0,536.363,1,-90,1,0.25,2,3,0.0,1.0,12,45.0,30.0,3,0.376,1.0,538.859,0.0,0,293,2018-10-03 09:31:05.363,0.25,-90,-180,-90,0,1,F1701_Pendleton,Block_J5-306
2018-10-03 09:22:09,36,0,564.846,0,-90,1,0.25,2,3,0.0,1.0,9,45.0,30.0,3,0.376,0.0,566.05,0.15,1,293,2018-10-03 09:31:33.846,0.25,90,-90,0,-180,0,F1701_Pendleton,Block_J5-306
2018-10-03 09:22:09,37,0,575.859,1,-90,1,0.25,2,3,0.0,1.0,12,45.0,30.0,3,0.301,1.0,577.425,0.0,0,293,2018-10-03 09:31:44.859,0.25,-90,-180,-90,0,1,F1701_Pendleton,Block_J5-306
2018-10-03 09:22:09,39,0,594.038,1,-90,1,0.25,2,9,0.0,1.0,9,45.0,30.0,9,0.601,1.0,595.678,0.3,1,293,2018-10-03 09:32:03.038,0.25,-90,-90,0,0,0,F1701_Pendleton,Block_J5-306
2018-10-03 09:22:09,40,0,607.0319999999998,0,-90,1,0.25,2,3,0.0,1.0,12,45.0,30.0,3,0.526,1.0,608.2909999999998,0.0,0,293,2018-10-03 09:32:16.032,0.25,-90,-180,-90,0,1,F1701_Pendleton,Block_J5-306
2018-10-03 09:22:09,43,0,631.7230000000002,0,-90,1,0.25,2,9,0.0,1.0,3,45.0,30.0,9,0.526,1.0,634.023,0.3,1,293,2018-10-03 09:32:40.723,0.25,-90,90,-180,0,0,F1701_Pendleton,Block_J5-306
2018-10-03 09:22:09,44,0,650.24,0,-90,1,0.25,2,9,0.0,1.0,6,45.0,30.0,9,0.601,1.0,651.957,0.3,1,293,2018-10-03 09:32:59.240,0.25,-90,0,90,0,1,F1701_Pendleton,Block_J5-306
2018-10-03 09:22:09,45,0,668.096,0,-90,1,0.25,2,3,0.0,1.0,3,45.0,30.0,3,0.376,1.0,669.9839999999998,0.0,0,293,2018-10-03 09:33:17.096,0.25,-90,90,-180,0,0,F1701_Pendleton,Block_J5-306
2018-10-03 09:22:09,46,0,682.909,0,-90,1,0.25,2,9,0.0,1.0,3,45.0,30.0,9,0.526,1.0,684.498,0.3,1,293,2018-10-03 09:33:31.909,0.25,-90,90,-180,0,0,F1701_Pendleton,Block_J5-306
2018-10-03 09:22:09,47,0,699.779,1,-90,1,0.25,2,3,0.0,1.0,12,45.0,30.0,3,0.301,0.0,701.393,0.15,1,293,2018-10-03 09:33:48.779,0.25,90,-180,-90,-180,1,F1701_Pendleton,Block_J5-306
2018-10-03 09:22:09,48,0,721.57,1,-90,1,0.25,2,9,0.0,1.0,6,45.0,30.0,9,0.451,1.0,724.1239999999998,0.3,1,293,2018-10-03 09:34:10.570,0.25,-90,0,90,0,1,F1701_Pendleton,Block_J5-306
2018-10-03 09:22:09,49,0,732.423,1,-90,1,0.25,2,9,0.0,1.0,6,45.0,30.0,9,0.376,1.0,734.529,0.3,1,293,2018-10-03 09:34:21.423,0.25,-90,0,90,0,1,F1701_Pendleton,Block_J5-306
2018-10-03 09:22:09,50,0,746.8860000000002,0,-90,1,0.25,2,9,0.0,1.0,6,45.0,30.0,9,0.601,1.0,748.765,0.3,1,293,2018-10-03 09:34:35.886,0.25,-90,0,90,0,1,F1701_Pendleton,Block_J5-306
2018-10-03 09:22:09,51,0,770.784,0,-90,1,0.25,2,3,0.0,1.0,12,45.0,30.0,3,0.301,1.0,772.044,0.0,0,293,2018-10-03 09:34:59.784,0.25,-90,-180,-90,0,1,F1701_Pendleton,Block_J5-306
2018-10-03 14:26:41,1,0,31.309,0,-150,1,0.25,2,9,0.0,1.0,6,45.0,30.0,9,0.401,1.0,32.184,0.23,1,242,2018-10-03 14:27:12.309,0.25,-90,0,150,60,1,F1703_Grainger,Block_J5-292
2018-10-03 14:26:41,2,0,44.988,0,-150,1,0.25,2,3,0.0,1.0,12,45.0,30.0,3,0.35100000000000003,0.0,46.468,0.18,1,242,2018-10-03 14:27:25.988,0.25,90,-180,-30,-120,1,F1703_Grainger,Block_J5-292
2018-10-03 14:26:41,3,0,54.783,0,-150,1,0.25,2,9,0.0,1.0,6,45.0,30.0,9,0.451,1.0,55.854,0.23,1,242,2018-10-03 14:27:35.783,0.25,-90,0,150,60,1,F1703_Grainger,Block_J5-292
2018-10-03 14:26:41,4,0,72.161,0,-150,1,0.25,2,3,0.0,1.0,12,45.0,30.0,3,0.501,0.0,73.536,0.18,1,242,2018-10-03 14:27:53.161,0.25,90,-180,-30,-120,1,F1703_Grainger,Block_J5-292
2018-10-03 14:26:41,5,0,79.32,1,-150,1,0.25,2,9,0.0,1.0,6,45.0,30.0,9,0.301,1.0,80.753,0.23,1,242,2018-10-03 14:28:00.320,0.25,-90,0,150,60,1,F1703_Grainger,Block_J5-292
2018-10-03 14:26:41,6,0,97.407,1,-150,1,0.25,2,9,0.0,1.0,6,45.0,30.0,9,0.501,1.0,101.06,0.23,1,242,2018-10-03 14:28:18.407,0.25,-90,0,150,60,1,F1703_Grainger,Block_J5-292
2018-10-03 14:26:41,7,0,113.385,1,-150,1,0.25,2,9,0.0,1.0,6,45.0,30.0,9,0.301,1.0,114.555,0.23,1,242,2018-10-03 14:28:34.385,0.25,-90,0,150,60,1,F1703_Grainger,Block_J5-292
2018-10-03 14:26:41,8,0,129.821,1,-150,1,0.25,2,9,0.0,1.0,6,45.0,30.0,9,0.451,1.0,131.291,0.23,1,242,2018-10-03 14:28:50.821,0.25,-90,0,150,60,1,F1703_Grainger,Block_J5-292
2018-10-03 14:26:41,9,0,156.971,1,-150,1,0.25,2,3,0.0,1.0,12,45.0,30.0,3,0.35100000000000003,1.0,163.196,0.0,0,242,2018-10-03 14:29:17.971,0.25,-90,-180,-30,60,1,F1703_Grainger,Block_J5-292
2018-10-03 14:26:41,11,0,180.68400000000003,0,-150,1,0.25,2,3,0.0,1.0,12,45.0,30.0,3,0.451,0.0,182.336,0.18,1,242,2018-10-03 14:29:41.684,0.25,90,-180,-30,-120,1,F1703_Grainger,Block_J5-292
2018-10-03 14:26:41,12,0,189.189,0,-150,1,0.25,2,3,0.0,1.0,7,45.0,30.0,3,0.35100000000000003,1.0,191.157,0.0,0,242,2018-10-03 14:29:50.189,0.25,-90,-30,120,60,0,F1703_Grainger,Block_J5-292
2018-10-03 14:26:41,13,0,200.062,0,-150,1,0.25,2,9,0.0,1.0,6,45.0,30.0,9,0.501,1.0,201.315,0.23,1,242,2018-10-03 14:30:01.062,0.25,-90,0,150,60,1,F1703_Grainger,Block_J5-292
2018-10-03 14:26:41,14,0,215.817,0,-150,1,0.25,2,3,0.0,1.0,12,45.0,30.0,3,0.301,0.0,216.959,0.18,1,242,2018-10-03 14:30:16.817,0.25,90,-180,-30,-120,1,F1703_Grainger,Block_J5-292
2018-10-03 14:26:41,15,0,240.935,0,-150,1,0.25,2,9,0.0,1.0,6,45.0,30.0,9,0.401,1.0,242.538,0.23,1,242,2018-10-03 14:30:41.935,0.25,-90,0,150,60,1,F1703_Grainger,Block_J5-292
2018-10-03 14:26:41,16,0,259.907,0,-150,1,0.25,2,3,0.0,1.0,12,45.0,30.0,3,0.401,0.0,261.382,0.18,1,242,2018-10-03 14:31:00.907,0.25,90,-180,-30,-120,1,F1703_Grainger,Block_J5-292
2018-10-03 14:26:41,17,0,276.808,0,-150,1,0.25,2,3,0.0,1.0,12,45.0,30.0,3,0.451,0.0,277.978,0.18,1,242,2018-10-03 14:31:17.808,0.25,90,-180,-30,-120,1,F1703_Grainger,Block_J5-292
2018-10-03 14:26:41,18,0,288.154,0,-150,1,0.25,2,3,0.0,1.0,12,45.0,30.0,3,0.301,0.0,289.262,0.18,1,242,2018-10-03 14:31:29.154,0.25,90,-180,-30,-120,1,F1703_Grainger,Block_J5-292
2018-10-03 14:26:41,19,0,350.226,0,-150,1,0.25,2,3,0.0,1.0,7,45.0,30.0,3,0.501,1.0,352.017,0.0,0,242,2018-10-03 14:32:31.226,0.25,-90,-30,120,60,0,F1703_Grainger,Block_J5-292
2018-10-03 14:26:41,20,0,369.369,0,-150,1,0.25,2,9,0.0,1.0,6,45.0,30.0,9,0.35100000000000003,0.0,370.653,0.0,0,242,2018-10-03 14:32:50.369,0.25,90,0,150,-120,1,F1703_Grainger,Block_J5-292
2018-10-03 14:26:41,22,0,392.432,0,-150,1,0.25,2,9,0.0,1.0,3,45.0,30.0,9,0.501,0.0,395.393,0.0,0,242,2018-10-03 14:33:13.432,0.25,90,90,-120,-120,0,F1703_Grainger,Block_J5-292
2018-10-03 14:26:41,23,0,406.1880000000001,0,-150,1,0.25,2,3,0.0,1.0,12,45.0,30.0,3,0.401,0.0,407.101,0.18,1,242,2018-10-03 14:33:27.188,0.25,90,-180,-30,-120,1,F1703_Grainger,Block_J5-292
2018-10-03 14:26:41,24,0,419.1880000000001,0,-150,1,0.25,2,3,0.0,1.0,12,45.0,30.0,3,0.451,0.0,420.43300000000005,0.18,1,242,2018-10-03 14:33:40.188,0.25,90,-180,-30,-120,1,F1703_Grainger,Block_J5-292
2018-10-03 14:26:41,25,0,426.36300000000006,0,-150,1,0.25,2,9,0.0,1.0,6,45.0,30.0,9,0.301,1.0,427.816,0.23,1,242,2018-10-03 14:33:47.363,0.25,-90,0,150,60,1,F1703_Grainger,Block_J5-292
2018-10-03 14:26:41,26,0,443.235,0,-150,1,0.25,2,3,0.0,1.0,12,45.0,30.0,3,0.35100000000000003,0.0,444.392,0.18,1,242,2018-10-03 14:34:04.235,0.25,90,-180,-30,-120,1,F1703_Grainger,Block_J5-292
2018-10-03 14:26:41,27,0,455.302,0,-150,1,0.25,2,3,0.0,1.0,12,45.0,30.0,3,0.451,0.0,456.546,0.18,1,242,2018-10-03 14:34:16.302,0.25,90,-180,-30,-120,1,F1703_Grainger,Block_J5-292
2018-10-03 14:26:41,28,0,464.205,0,-150,1,0.25,2,9,0.0,1.0,6,45.0,30.0,9,0.501,1.0,465.469,0.23,1,242,2018-10-03 14:34:25.205,0.25,-90,0,150,60,1,F1703_Grainger,Block_J5-292
2018-10-03 14:26:41,29,0,481.954,0,-150,1,0.25,2,9,0.0,1.0,6,45.0,30.0,9,0.301,1.0,483.078,0.23,1,242,2018-10-03 14:34:42.954,0.25,-90,0,150,60,1,F1703_Grainger,Block_J5-292
2018-10-03 14:26:41,30,0,504.193,1,-150,1,0.25,2,9,0.0,1.0,6,45.0,30.0,9,0.401,0.0,505.571,0.0,0,242,2018-10-03 14:35:05.193,0.25,90,0,150,-120,1,F1703_Grainger,Block_J5-292
2018-10-03 14:26:41,33,0,539.045,0,-150,1,0.25,2,3,0.0,1.0,12,45.0,30.0,3,0.35100000000000003,0.0,544.778,0.18,1,242,2018-10-03 14:35:40.045,0.25,90,-180,-30,-120,1,F1703_Grainger,Block_J5-292
2018-10-03 14:26:41,34,0,552.4540000000002,0,-150,1,0.25,2,9,0.0,1.0,6,45.0,30.0,9,0.451,0.0,555.173,0.0,0,242,2018-10-03 14:35:53.454,0.25,90,0,150,-120,1,F1703_Grainger,Block_J5-292
2018-10-03 14:26:41,36,0,586.923,1,-150,1,0.25,2,9,0.0,1.0,6,45.0,30.0,9,0.501,0.0,588.137,0.0,0,242,2018-10-03 14:36:27.923,0.25,90,0,150,-120,1,F1703_Grainger,Block_J5-292
2018-10-03 14:26:41,38,0,617.429,0,-150,1,0.25,2,9,0.0,1.0,6,45.0,30.0,9,0.35100000000000003,0.0,619.057,0.0,0,242,2018-10-03 14:36:58.429,0.25,90,0,150,-120,1,F1703_Grainger,Block_J5-292
2018-10-03 14:26:41,40,0,658.972,0,-150,1,0.25,2,3,0.0,1.0,12,45.0,30.0,3,0.301,0.0,660.563,0.18,1,242,2018-10-03 14:37:39.972,0.25,90,-180,-30,-120,1,F1703_Grainger,Block_J5-292
2018-10-03 14:26:41,41,0,686.347,0,-150,1,0.25,2,9,0.0,1.0,4,45.0,30.0,9,0.35100000000000003,0.0,688.132,0.0,0,242,2018-10-03 14:38:07.347,0.25,90,60,-150,-120,0,F1703_Grainger,Block_J5-292
2018-10-03 14:26:41,42,0,703.28,0,-150,1,0.25,2,9,0.0,1.0,6,45.0,30.0,9,0.501,1.0,705.42,0.23,1,242,2018-10-03 14:38:24.280,0.25,-90,0,150,60,1,F1703_Grainger,Block_J5-292
2018-10-03 14:26:41,43,0,736.203,1,-150,1,0.25,2,3,0.0,1.0,12,45.0,30.0,3,0.451,0.0,742.812,0.18,1,242,2018-10-03 14:38:57.203,0.25,90,-180,-30,-120,1,F1703_Grainger,Block_J5-292
2018-10-03 14:26:41,44,0,756.207,0,-150,1,0.25,2,3,0.0,1.0,12,45.0,30.0,3,0.401,0.0,757.909,0.18,1,242,2018-10-03 14:39:17.207,0.25,90,-180,-30,-120,1,F1703_Grainger,Block_J5-292
2018-10-03 14:26:41,45,0,765.3530000000002,1,-150,1,0.25,2,3,0.0,1.0,12,45.0,30.0,3,0.301,0.0,767.6469999999998,0.18,1,242,2018-10-03 14:39:26.353,0.25,90,-180,-30,-120,1,F1703_Grainger,Block_J5-292
2018-10-03 14:26:41,46,0,776.971,0,-150,1,0.25,2,9,0.0,1.0,6,45.0,30.0,9,0.401,1.0,780.89,0.23,1,242,2018-10-03 14:39:37.971,0.25,-90,0,150,60,1,F1703_Grainger,Block_J5-292
2018-10-03 14:26:41,47,0,793.3489999999998,0,-150,1,0.25,2,3,0.0,1.0,12,45.0,30.0,3,0.501,0.0,796.296,0.18,1,242,2018-10-03 14:39:54.349,0.25,90,-180,-30,-120,1,F1703_Grainger,Block_J5-292
2018-10-03 14:26:41,48,0,806.4110000000002,0,-150,1,0.25,2,3,0.0,1.0,12,45.0,30.0,3,0.301,0.0,808.235,0.18,1,242,2018-10-03 14:40:07.411,0.25,90,-180,-30,-120,1,F1703_Grainger,Block_J5-292
2018-10-03 14:26:41,49,0,816.503,0,-150,1,0.25,2,3,0.0,1.0,12,45.0,30.0,3,0.35100000000000003,0.0,817.796,0.18,1,242,2018-10-03 14:40:17.503,0.25,90,-180,-30,-120,1,F1703_Grainger,Block_J5-292
2018-10-03 14:26:41,50,0,827.24,0,-150,1,0.25,2,9,0.0,1.0,6,45.0,30.0,9,0.451,1.0,828.9939999999998,0.23,1,242,2018-10-03 14:40:28.240,0.25,-90,0,150,60,1,F1703_Grainger,Block_J5-292
2018-10-03 14:26:41,51,0,847.591,0,-150,1,0.25,2,3,0.0,1.0,12,45.0,30.0,3,0.451,0.0,848.8580000000002,0.18,1,242,2018-10-03 14:40:48.591,0.25,90,-180,-30,-120,1,F1703_Grainger,Block_J5-292
2018-10-03 14:26:41,52,0,856.926,0,-150,1,0.25,2,3,0.0,1.0,12,45.0,30.0,3,0.501,0.0,858.2810000000002,0.18,1,242,2018-10-03 14:40:57.926,0.25,90,-180,-30,-120,1,F1703_Grainger,Block_J5-292
2018-10-03 14:26:41,53,0,865.1489999999999,1,-150,1,0.25,2,9,0.0,1.0,6,45.0,30.0,9,0.401,0.0,867.028,0.0,0,242,2018-10-03 14:41:06.149,0.25,90,0,150,-120,1,F1703_Grainger,Block_J5-292
2018-10-03 14:26:41,55,0,895.206,0,-150,1,0.25,2,9,0.0,1.0,6,45.0,30.0,9,0.301,1.0,896.7460000000002,0.23,1,242,2018-10-03 14:41:36.206,0.25,-90,0,150,60,1,F1703_Grainger,Block_J5-292
2018-10-03 14:26:41,56,0,914.313,0,-150,1,0.25,2,3,0.0,1.0,12,45.0,30.0,3,0.451,0.0,915.39,0.18,1,242,2018-10-03 14:41:55.313,0.25,90,-180,-30,-120,1,F1703_Grainger,Block_J5-292
2018-10-03 14:26:41,57,0,922.817,0,-150,1,0.25,2,3,0.0,1.0,2,45.0,30.0,3,0.401,0.0,924.133,0.18,1,242,2018-10-03 14:42:03.817,0.25,90,120,-90,-120,0,F1703_Grainger,Block_J5-292
2018-10-03 14:26:41,58,0,932.818,0,-150,1,0.25,2,9,0.0,1.0,6,45.0,30.0,9,0.35100000000000003,0.0,934.65,0.0,0,242,2018-10-03 14:42:13.818,0.25,90,0,150,-120,1,F1703_Grainger,Block_J5-292
2018-10-03 14:26:41,60,0,976.829,0,-150,1,0.25,2,9,0.0,1.0,6,45.0,30.0,9,0.301,0.0,979.953,0.0,0,242,2018-10-03 14:42:57.829,0.25,90,0,150,-120,1,F1703_Grainger,Block_J5-292
2018-10-03 14:26:41,62,0,998.604,0,-150,1,0.25,2,9,0.0,1.0,6,45.0,30.0,9,0.401,1.0,1000.696,0.23,1,242,2018-10-03 14:43:19.604,0.25,-90,0,150,60,1,F1703_Grainger,Block_J5-292
2018-10-03 14:26:41,63,0,1021.101,0,-150,1,0.25,2,3,0.0,1.0,11,45.0,30.0,3,0.451,0.0,1022.921,0.18,1,242,2018-10-03 14:43:42.101,0.25,90,-150,0,-120,0,F1703_Grainger,Block_J5-292
2018-10-03 14:26:41,64,0,1030.842,0,-150,1,0.25,2,9,0.0,1.0,6,45.0,30.0,9,0.301,0.0,1033.1760000000004,0.0,0,242,2018-10-03 14:43:51.842,0.25,90,0,150,-120,1,F1703_Grainger,Block_J5-292
2018-10-03 14:26:41,67,0,1060.477,1,-150,1,0.25,2,9,0.0,1.0,6,45.0,30.0,9,0.401,0.0,1061.95,0.0,0,242,2018-10-03 14:44:21.477,0.25,90,0,150,-120,1,F1703_Grainger,Block_J5-292
2018-10-03 14:26:41,69,0,1081.189,0,-150,1,0.25,2,3,0.0,1.0,2,45.0,30.0,3,0.451,0.0,1085.3010000000004,0.18,1,242,2018-10-03 14:44:42.189,0.25,90,120,-90,-120,0,F1703_Grainger,Block_J5-292
2018-10-03 14:26:41,70,0,1094.978,0,-150,1,0.25,2,3,0.0,1.0,12,45.0,30.0,3,0.301,0.0,1096.967,0.18,1,242,2018-10-03 14:44:55.978,0.25,90,-180,-30,-120,1,F1703_Grainger,Block_J5-292
2018-10-03 14:26:41,71,0,1105.203,0,-150,1,0.25,2,9,0.0,1.0,6,45.0,30.0,9,0.401,1.0,1106.444,0.23,1,242,2018-10-03 14:45:06.203,0.25,-90,0,150,60,1,F1703_Grainger,Block_J5-292
2018-10-03 14:26:41,72,0,1124.715,0,-150,1,0.25,2,9,0.0,1.0,6,45.0,30.0,9,0.451,0.0,1126.023,0.0,0,242,2018-10-03 14:45:25.715,0.25,90,0,150,-120,1,F1703_Grainger,Block_J5-292
2018-10-03 14:26:41,75,0,1150.925,0,-150,1,0.25,2,3,0.0,1.0,12,45.0,30.0,3,0.501,0.0,1152.894,0.18,1,242,2018-10-03 14:45:51.925,0.25,90,-180,-30,-120,1,F1703_Grainger,Block_J5-292
2018-10-03 14:26:41,76,0,1161.107,0,-150,1,0.25,2,3,0.0,1.0,12,45.0,30.0,3,0.301,0.0,1162.336,0.18,1,242,2018-10-03 14:46:02.107,0.25,90,-180,-30,-120,1,F1703_Grainger,Block_J5-292
2018-10-03 14:26:41,77,0,1172.498,0,-150,1,0.25,2,9,0.0,1.0,6,45.0,30.0,9,0.401,1.0,1174.2089999999996,0.23,1,242,2018-10-03 14:46:13.498,0.25,-90,0,150,60,1,F1703_Grainger,Block_J5-292
2018-10-03 14:26:41,78,0,1184.48,1,-150,1,0.25,2,9,0.0,1.0,6,45.0,30.0,9,0.451,1.0,1185.674,0.23,1,242,2018-10-03 14:46:25.480,0.25,-90,0,150,60,1,F1703_Grainger,Block_J5-292
2018-10-03 14:26:41,79,0,1205.022,0,-150,1,0.25,2,9,0.0,1.0,6,45.0,30.0,9,0.501,1.0,1208.531,0.23,1,242,2018-10-03 14:46:46.022,0.25,-90,0,150,60,1,F1703_Grainger,Block_J5-292
2018-10-03 14:26:41,80,0,1217.616,0,-150,1,0.25,2,9,0.0,1.0,6,45.0,30.0,9,0.35100000000000003,0.0,1219.217,0.0,0,242,2018-10-03 14:46:58.616,0.25,90,0,150,-120,1,F1703_Grainger,Block_J5-292
2018-10-03 14:26:41,83,0,1246.474,0,-150,1,0.25,2,9,0.0,1.0,6,45.0,30.0,9,0.401,1.0,1248.04,0.23,1,242,2018-10-03 14:47:27.474,0.25,-90,0,150,60,1,F1703_Grainger,Block_J5-292
2018-10-03 14:26:41,84,0,1257.849,1,-150,1,0.25,2,9,0.0,1.0,6,45.0,30.0,9,0.301,0.0,1259.273,0.0,0,242,2018-10-03 14:47:38.849,0.25,90,0,150,-120,1,F1703_Grainger,Block_J5-292
2018-10-03 14:26:41,87,0,1299.968,0,-150,1,0.25,2,3,0.0,1.0,12,45.0,30.0,3,0.451,0.0,1301.505,0.18,1,242,2018-10-03 14:48:20.968,0.25,90,-180,-30,-120,1,F1703_Grainger,Block_J5-292
2018-10-03 14:26:41,88,0,1313.662,0,-150,1,0.25,2,3,0.0,1.0,12,45.0,30.0,3,0.35100000000000003,0.0,1315.49,0.18,1,242,2018-10-03 14:48:34.662,0.25,90,-180,-30,-120,1,F1703_Grainger,Block_J5-292
2018-10-03 14:26:41,89,0,1322.406,0,-150,1,0.25,2,3,0.0,1.0,12,45.0,30.0,3,0.501,0.0,1323.448,0.18,1,242,2018-10-03 14:48:43.406,0.25,90,-180,-30,-120,1,F1703_Grainger,Block_J5-292
2018-10-03 14:26:41,90,0,1330.6070000000002,1,-150,1,0.25,2,9,0.0,1.0,6,45.0,30.0,9,0.301,0.0,1335.966,0.0,0,242,2018-10-03 14:48:51.607,0.25,90,0,150,-120,1,F1703_Grainger,Block_J5-292
2018-10-03 14:26:41,92,0,1355.058,0,-150,1,0.25,2,3,0.0,1.0,12,45.0,30.0,3,0.501,0.0,1356.559,0.18,1,242,2018-10-03 14:49:16.058,0.25,90,-180,-30,-120,1,F1703_Grainger,Block_J5-292
2018-10-03 14:26:41,93,0,1373.511,1,-150,1,0.25,2,3,0.0,1.0,12,45.0,30.0,3,0.35100000000000003,0.0,1378.175,0.18,1,242,2018-10-03 14:49:34.511,0.25,90,-180,-30,-120,1,F1703_Grainger,Block_J5-292
2018-10-03 14:26:41,94,0,1384.014,0,-150,1,0.25,2,3,0.0,1.0,12,45.0,30.0,3,0.401,0.0,1385.053,0.18,1,242,2018-10-03 14:49:45.014,0.25,90,-180,-30,-120,1,F1703_Grainger,Block_J5-292
2018-10-03 14:26:41,95,0,1391.954,0,-150,1,0.25,2,3,0.0,1.0,12,45.0,30.0,3,0.301,0.0,1393.529,0.18,1,242,2018-10-03 14:49:52.954,0.25,90,-180,-30,-120,1,F1703_Grainger,Block_J5-292
2018-10-03 14:26:41,96,0,1400.0510000000004,0,-150,1,0.25,2,3,0.0,1.0,12,45.0,30.0,3,0.401,0.0,1401.868,0.18,1,242,2018-10-03 14:50:01.051,0.25,90,-180,-30,-120,1,F1703_Grainger,Block_J5-292
2018-10-03 14:26:41,97,0,1409.725,1,-150,1,0.25,2,3,0.0,1.0,12,45.0,30.0,3,0.35100000000000003,0.0,1411.035,0.18,1,242,2018-10-03 14:50:10.725,0.25,90,-180,-30,-120,1,F1703_Grainger,Block_J5-292
2018-10-03 14:26:41,98,0,1417.829,0,-150,1,0.25,2,9,0.0,1.0,11,45.0,30.0,9,0.301,0.0,1419.3970000000004,0.0,0,242,2018-10-03 14:50:18.829,0.25,90,-150,0,-120,0,F1703_Grainger,Block_J5-292
2018-10-03 14:26:41,99,0,1429.047,0,-150,1,0.25,2,9,0.0,1.0,6,45.0,30.0,9,0.451,1.0,1431.27,0.23,1,242,2018-10-03 14:50:30.047,0.25,-90,0,150,60,1,F1703_Grainger,Block_J5-292
2018-10-03 14:26:41,100,0,1438.1170000000004,0,-150,1,0.25,2,9,0.0,1.0,6,45.0,30.0,9,0.501,1.0,1439.215,0.23,1,242,2018-10-03 14:50:39.117,0.25,-90,0,150,60,1,F1703_Grainger,Block_J5-292
2018-10-03 14:26:41,101,0,1446.342,0,-150,1,0.25,2,9,0.0,1.0,6,45.0,30.0,9,0.401,1.0,1447.85,0.23,1,242,2018-10-03 14:50:47.342,0.25,-90,0,150,60,1,F1703_Grainger,Block_J5-292
2018-10-03 14:26:41,102,0,1469.686,0,-150,1,0.25,2,9,0.0,1.0,6,45.0,30.0,9,0.301,1.0,1472.2120000000002,0.23,1,242,2018-10-03 14:51:10.686,0.25,-90,0,150,60,1,F1703_Grainger,Block_J5-292
2018-10-03 14:26:41,103,0,1480.941,1,-150,1,0.25,2,9,0.0,1.0,6,45.0,30.0,9,0.451,0.0,1484.5870000000002,0.0,0,242,2018-10-03 14:51:21.941,0.25,90,0,150,-120,1,F1703_Grainger,Block_J5-292
2018-10-03 14:54:59,1,0,38.532,0,-150,1,0.25,2,9,0.0,1.0,6,45.0,30.0,9,0.301,0.0,40.482,0.0,0,362,2018-10-03 14:55:37.532,0.25,90,0,150,-120,1,F1701_Pendleton,Block_J5-307
2018-10-03 14:54:59,3,0,61.372,0,-150,1,0.25,2,9,0.0,1.0,6,45.0,30.0,9,0.526,1.0,63.163,0.23,1,362,2018-10-03 14:56:00.372,0.25,-90,0,150,60,1,F1701_Pendleton,Block_J5-307
2018-10-03 14:54:59,4,0,79.056,0,-150,1,0.25,2,9,0.0,1.0,6,45.0,30.0,9,0.601,1.0,80.316,0.23,1,362,2018-10-03 14:56:18.056,0.25,-90,0,150,60,1,F1701_Pendleton,Block_J5-307
2018-10-03 14:54:59,5,0,95.095,0,-150,1,0.25,2,9,0.0,1.0,6,45.0,30.0,9,0.451,1.0,96.761,0.23,1,362,2018-10-03 14:56:34.095,0.25,-90,0,150,60,1,F1701_Pendleton,Block_J5-307
2018-10-03 14:54:59,6,0,113.541,0,-150,1,0.25,2,9,0.0,1.0,6,45.0,30.0,9,0.301,0.0,115.103,0.0,0,362,2018-10-03 14:56:52.541,0.25,90,0,150,-120,1,F1701_Pendleton,Block_J5-307
2018-10-03 14:54:59,9,0,141.446,1,-150,1,0.25,2,3,0.0,1.0,12,45.0,30.0,3,0.601,1.0,144.327,0.0,0,362,2018-10-03 14:57:20.446,0.25,-90,-180,-30,60,1,F1701_Pendleton,Block_J5-307
2018-10-03 14:54:59,11,0,158.727,0,-150,1,0.25,2,9,0.0,1.0,6,45.0,30.0,9,0.451,1.0,160.345,0.23,1,362,2018-10-03 14:57:37.727,0.25,-90,0,150,60,1,F1701_Pendleton,Block_J5-307
2018-10-03 14:54:59,12,0,190.624,0,-150,1,0.25,2,3,0.0,1.0,12,45.0,30.0,3,0.601,0.0,192.181,0.2,1,362,2018-10-03 14:58:09.624,0.25,90,-180,-30,-120,1,F1701_Pendleton,Block_J5-307
2018-10-03 14:54:59,13,0,202.125,0,-150,1,0.25,2,9,0.0,1.0,6,45.0,30.0,9,0.376,0.0,204.162,0.0,0,362,2018-10-03 14:58:21.125,0.25,90,0,150,-120,1,F1701_Pendleton,Block_J5-307
2018-10-03 14:54:59,15,0,235.793,1,-150,1,0.25,2,9,0.0,1.0,6,45.0,30.0,9,0.301,0.0,238.851,0.0,0,362,2018-10-03 14:58:54.793,0.25,90,0,150,-120,1,F1701_Pendleton,Block_J5-307
2018-10-03 14:54:59,17,0,259.2,0,-150,1,0.25,2,3,0.0,1.0,12,45.0,30.0,3,0.526,0.0,260.398,0.2,1,362,2018-10-03 14:59:18.200,0.25,90,-180,-30,-120,1,F1701_Pendleton,Block_J5-307
2018-10-03 14:54:59,18,0,271.632,0,-150,1,0.25,2,3,0.0,1.0,12,45.0,30.0,3,0.376,0.0,273.307,0.2,1,362,2018-10-03 14:59:30.632,0.25,90,-180,-30,-120,1,F1701_Pendleton,Block_J5-307
2018-10-03 14:54:59,19,0,283.091,1,-150,1,0.25,2,3,0.0,1.0,12,45.0,30.0,3,0.451,0.0,284.146,0.2,1,362,2018-10-03 14:59:42.091,0.25,90,-180,-30,-120,1,F1701_Pendleton,Block_J5-307
2018-10-03 14:54:59,20,0,292.288,1,-150,1,0.25,2,3,0.0,1.0,2,45.0,30.0,3,0.301,0.0,295.23,0.2,1,362,2018-10-03 14:59:51.288,0.25,90,120,-90,-120,0,F1701_Pendleton,Block_J5-307
2018-10-03 14:54:59,21,0,304.9190000000001,0,-150,1,0.25,2,3,0.0,1.0,12,45.0,30.0,3,0.376,0.0,306.548,0.2,1,362,2018-10-03 15:00:03.919,0.25,90,-180,-30,-120,1,F1701_Pendleton,Block_J5-307
2018-10-03 14:54:59,22,0,313.823,1,-150,1,0.25,2,9,0.0,1.0,6,45.0,30.0,9,0.451,0.0,315.812,0.0,0,362,2018-10-03 15:00:12.823,0.25,90,0,150,-120,1,F1701_Pendleton,Block_J5-307
2018-10-03 14:54:59,24,0,342.105,0,-150,1,0.25,2,3,0.0,1.0,12,45.0,30.0,3,0.526,0.0,344.213,0.2,1,362,2018-10-03 15:00:41.105,0.25,90,-180,-30,-120,1,F1701_Pendleton,Block_J5-307
2018-10-03 14:54:59,25,0,352.256,1,-150,1,0.25,2,9,0.0,1.0,6,45.0,30.0,9,0.301,0.0,354.872,0.0,0,362,2018-10-03 15:00:51.256,0.25,90,0,150,-120,1,F1701_Pendleton,Block_J5-307
2018-10-03 14:54:59,27,0,383.788,0,-150,1,0.25,2,3,0.0,1.0,12,45.0,30.0,3,0.301,0.0,385.223,0.2,1,362,2018-10-03 15:01:22.788,0.25,90,-180,-30,-120,1,F1701_Pendleton,Block_J5-307
2018-10-03 14:54:59,28,0,393.167,1,-150,1,0.25,2,3,0.0,1.0,12,45.0,30.0,3,0.451,0.0,395.399,0.2,1,362,2018-10-03 15:01:32.167,0.25,90,-180,-30,-120,1,F1701_Pendleton,Block_J5-307
2018-10-03 14:54:59,29,0,407.179,0,-150,1,0.25,2,3,0.0,1.0,12,45.0,30.0,3,0.601,0.0,408.628,0.2,1,362,2018-10-03 15:01:46.179,0.25,90,-180,-30,-120,1,F1701_Pendleton,Block_J5-307
2018-10-03 14:54:59,30,0,424.138,1,-150,1,0.25,2,9,0.0,1.0,9,45.0,30.0,9,0.526,1.0,425.223,0.23,1,362,2018-10-03 15:02:03.138,0.25,-90,-90,60,60,0,F1701_Pendleton,Block_J5-307
2018-10-03 14:54:59,31,0,437.811,0,-150,1,0.25,2,9,0.0,1.0,6,45.0,30.0,9,0.376,1.0,439.744,0.23,1,362,2018-10-03 15:02:16.811,0.25,-90,0,150,60,1,F1701_Pendleton,Block_J5-307
2018-10-03 14:54:59,32,0,460.517,0,-150,1,0.25,2,9,0.0,1.0,6,45.0,30.0,9,0.451,0.0,462.30300000000005,0.0,0,362,2018-10-03 15:02:39.517,0.25,90,0,150,-120,1,F1701_Pendleton,Block_J5-307
2018-10-03 14:54:59,35,0,498.204,1,-150,1,0.25,2,3,0.0,1.0,12,45.0,30.0,3,0.526,0.0,499.633,0.2,1,362,2018-10-03 15:03:17.204,0.25,90,-180,-30,-120,1,F1701_Pendleton,Block_J5-307
2018-10-03 14:54:59,36,0,507.55800000000005,1,-150,1,0.25,2,3,0.0,1.0,12,45.0,30.0,3,0.301,0.0,510.279,0.2,1,362,2018-10-03 15:03:26.558,0.25,90,-180,-30,-120,1,F1701_Pendleton,Block_J5-307
2018-10-03 14:54:59,37,0,518.836,1,-150,1,0.25,2,3,0.0,1.0,12,45.0,30.0,3,0.526,0.0,521.0319999999998,0.2,1,362,2018-10-03 15:03:37.836,0.25,90,-180,-30,-120,1,F1701_Pendleton,Block_J5-307
2018-10-03 14:54:59,38,0,530.839,1,-150,1,0.25,2,9,0.0,1.0,6,45.0,30.0,9,0.601,0.0,533.127,0.0,0,362,2018-10-03 15:03:49.839,0.25,90,0,150,-120,1,F1701_Pendleton,Block_J5-307
2018-10-03 14:54:59,40,0,554.71,0,-150,1,0.25,2,9,0.0,1.0,6,45.0,30.0,9,0.376,1.0,557.029,0.23,1,362,2018-10-03 15:04:13.710,0.25,-90,0,150,60,1,F1701_Pendleton,Block_J5-307
2018-10-03 14:54:59,41,0,581.729,0,-150,1,0.25,2,9,0.0,1.0,6,45.0,30.0,9,0.451,0.0,583.408,0.0,0,362,2018-10-03 15:04:40.729,0.25,90,0,150,-120,1,F1701_Pendleton,Block_J5-307
2018-10-03 14:54:59,43,0,611.283,1,-150,1,0.25,2,9,0.0,1.0,6,45.0,30.0,9,0.301,1.0,614.535,0.23,1,362,2018-10-03 15:05:10.283,0.25,-90,0,150,60,1,F1701_Pendleton,Block_J5-307
2018-10-03 14:54:59,44,0,631.823,0,-150,1,0.25,2,3,0.0,1.0,12,45.0,30.0,3,0.601,0.0,633.2,0.2,1,362,2018-10-03 15:05:30.823,0.25,90,-180,-30,-120,1,F1701_Pendleton,Block_J5-307
2018-10-03 14:54:59,45,0,643.106,0,-150,1,0.25,2,3,0.0,1.0,12,45.0,30.0,3,0.376,0.0,644.612,0.2,1,362,2018-10-03 15:05:42.106,0.25,90,-180,-30,-120,1,F1701_Pendleton,Block_J5-307
2018-10-03 14:54:59,46,0,652.855,0,-150,1,0.25,2,3,0.0,1.0,12,45.0,30.0,3,0.451,0.0,654.364,0.2,1,362,2018-10-03 15:05:51.855,0.25,90,-180,-30,-120,1,F1701_Pendleton,Block_J5-307
2018-10-03 14:54:59,47,0,665.605,0,-150,1,0.25,2,9,0.0,1.0,6,45.0,30.0,9,0.301,1.0,667.5089999999999,0.23,1,362,2018-10-03 15:06:04.605,0.25,-90,0,150,60,1,F1701_Pendleton,Block_J5-307
2018-10-03 14:54:59,48,0,685.196,0,-150,1,0.25,2,9,0.0,1.0,6,45.0,30.0,9,0.526,1.0,686.2489999999998,0.23,1,362,2018-10-03 15:06:24.196,0.25,-90,0,150,60,1,F1701_Pendleton,Block_J5-307
2018-10-03 14:54:59,49,0,701.4910000000001,0,-150,1,0.25,2,9,0.0,1.0,6,45.0,30.0,9,0.601,1.0,703.1080000000002,0.23,1,362,2018-10-03 15:06:40.491,0.25,-90,0,150,60,1,F1701_Pendleton,Block_J5-307
2018-10-03 14:54:59,50,0,722.472,1,-150,1,0.25,2,3,0.0,1.0,12,45.0,30.0,3,0.376,0.0,724.3689999999998,0.2,1,362,2018-10-03 15:07:01.472,0.25,90,-180,-30,-120,1,F1701_Pendleton,Block_J5-307
2018-10-03 14:54:59,51,0,732.367,0,-150,1,0.25,2,3,0.0,1.0,12,45.0,30.0,3,0.601,0.0,733.988,0.2,1,362,2018-10-03 15:07:11.367,0.25,90,-180,-30,-120,1,F1701_Pendleton,Block_J5-307
2018-10-03 14:54:59,52,0,743.3789999999998,1,-150,1,0.25,2,3,0.0,1.0,12,45.0,30.0,3,0.451,0.0,745.442,0.2,1,362,2018-10-03 15:07:22.379,0.25,90,-180,-30,-120,1,F1701_Pendleton,Block_J5-307
2018-10-03 14:54:59,53,0,753.803,0,-150,1,0.25,2,9,0.0,1.0,6,45.0,30.0,9,0.301,0.0,755.6030000000002,0.0,0,362,2018-10-03 15:07:32.803,0.25,90,0,150,-120,1,F1701_Pendleton,Block_J5-307
2018-10-03 14:54:59,55,0,779.692,1,-150,1,0.25,2,3,0.0,1.0,12,45.0,30.0,3,0.526,0.0,781.11,0.2,1,362,2018-10-03 15:07:58.692,0.25,90,-180,-30,-120,1,F1701_Pendleton,Block_J5-307
2018-10-03 14:54:59,56,0,806.5319999999998,0,-150,1,0.25,2,3,0.0,1.0,12,45.0,30.0,3,0.601,1.0,808.158,0.0,0,362,2018-10-03 15:08:25.532,0.25,-90,-180,-30,60,1,F1701_Pendleton,Block_J5-307
2018-10-03 14:54:59,58,0,829.6060000000001,0,-150,1,0.25,2,3,0.0,1.0,12,45.0,30.0,3,0.376,0.0,831.018,0.2,1,362,2018-10-03 15:08:48.606,0.25,90,-180,-30,-120,1,F1701_Pendleton,Block_J5-307
2018-10-03 14:54:59,59,0,845.5189999999999,1,-150,1,0.25,2,9,0.0,1.0,4,45.0,30.0,9,0.301,1.0,847.159,0.23,1,362,2018-10-03 15:09:04.519,0.25,-90,60,-150,60,0,F1701_Pendleton,Block_J5-307
2018-10-03 14:54:59,60,0,854.4989999999998,0,-150,1,0.25,2,9,0.0,1.0,6,45.0,30.0,9,0.451,1.0,856.3489999999998,0.23,1,362,2018-10-03 15:09:13.499,0.25,-90,0,150,60,1,F1701_Pendleton,Block_J5-307
2018-10-03 14:54:59,61,0,873.8610000000001,1,-150,1,0.25,2,9,0.0,1.0,6,45.0,30.0,9,0.376,1.0,877.2389999999998,0.23,1,362,2018-10-03 15:09:32.861,0.25,-90,0,150,60,1,F1701_Pendleton,Block_J5-307
2018-10-03 14:54:59,62,0,885.819,0,-150,1,0.25,2,9,0.0,1.0,6,45.0,30.0,9,0.601,1.0,887.677,0.23,1,362,2018-10-03 15:09:44.819,0.25,-90,0,150,60,1,F1701_Pendleton,Block_J5-307
2018-10-03 14:54:59,63,0,898.937,0,-150,1,0.25,2,3,0.0,1.0,12,45.0,30.0,3,0.451,0.0,900.341,0.2,1,362,2018-10-03 15:09:57.937,0.25,90,-180,-30,-120,1,F1701_Pendleton,Block_J5-307
2018-10-03 14:54:59,64,0,914.643,0,-150,1,0.25,2,3,0.0,1.0,12,45.0,30.0,3,0.526,0.0,915.864,0.2,1,362,2018-10-03 15:10:13.643,0.25,90,-180,-30,-120,1,F1701_Pendleton,Block_J5-307
2018-10-03 14:54:59,65,0,923.71,0,-150,1,0.25,2,3,0.0,1.0,12,45.0,30.0,3,0.301,0.0,926.096,0.2,1,362,2018-10-03 15:10:22.710,0.25,90,-180,-30,-120,1,F1701_Pendleton,Block_J5-307
2018-10-03 14:54:59,66,0,933.595,0,-150,1,0.25,2,9,0.0,1.0,6,45.0,30.0,9,0.301,1.0,935.151,0.23,1,362,2018-10-03 15:10:32.595,0.25,-90,0,150,60,1,F1701_Pendleton,Block_J5-307
2018-10-03 14:54:59,67,0,946.183,0,-150,1,0.25,2,9,0.0,1.0,6,45.0,30.0,9,0.526,1.0,947.759,0.23,1,362,2018-10-03 15:10:45.183,0.25,-90,0,150,60,1,F1701_Pendleton,Block_J5-307
2018-10-03 14:54:59,68,0,957.818,0,-150,1,0.25,2,9,0.0,1.0,6,45.0,30.0,9,0.601,1.0,959.615,0.23,1,362,2018-10-03 15:10:56.818,0.25,-90,0,150,60,1,F1701_Pendleton,Block_J5-307
2018-10-04 08:49:06,1,0,77.632,0,-90,1,0.25,2,9,0.0,1.0,6,45.0,30.0,9,0.501,1.0,79.343,0.23,1,249,2018-10-04 08:50:23.632,0.25,-90,0,90,0,1,F1703_Grainger,Block_J5-293
2018-10-04 08:49:06,2,0,108.073,0,-90,1,0.25,2,3,0.0,1.0,12,45.0,30.0,3,0.35100000000000003,0.0,109.7,0.18,1,249,2018-10-04 08:50:54.073,0.25,90,-180,-90,-180,1,F1703_Grainger,Block_J5-293
2018-10-04 08:49:06,3,0,120.13,0,-90,1,0.25,2,9,0.0,1.0,6,45.0,30.0,9,0.451,1.0,123.678,0.23,1,249,2018-10-04 08:51:06.130,0.25,-90,0,90,0,1,F1703_Grainger,Block_J5-293
2018-10-04 08:49:06,4,0,134.343,0,-90,1,0.25,2,9,0.0,1.0,6,45.0,30.0,9,0.301,1.0,135.439,0.23,1,249,2018-10-04 08:51:20.343,0.25,-90,0,90,0,1,F1703_Grainger,Block_J5-293
2018-10-04 08:49:06,5,0,166.673,1,-90,1,0.25,2,9,0.0,1.0,6,45.0,30.0,9,0.401,1.0,168.168,0.23,1,249,2018-10-04 08:51:52.673,0.25,-90,0,90,0,1,F1703_Grainger,Block_J5-293
2018-10-04 08:49:06,6,0,183.58,0,-90,1,0.25,2,3,0.0,1.0,12,45.0,30.0,3,0.451,1.0,186.272,0.0,0,249,2018-10-04 08:52:09.580,0.25,-90,-180,-90,0,1,F1703_Grainger,Block_J5-293
2018-10-04 08:49:06,8,0,204.98,0,-90,1,0.25,2,9,0.0,1.0,6,45.0,30.0,9,0.35100000000000003,0.0,206.504,0.0,0,249,2018-10-04 08:52:30.980,0.25,90,0,90,-180,1,F1703_Grainger,Block_J5-293
2018-10-04 08:49:06,10,0,222.55,0,-90,1,0.25,2,9,0.0,1.0,6,45.0,30.0,9,0.501,1.0,224.082,0.23,1,249,2018-10-04 08:52:48.550,0.25,-90,0,90,0,1,F1703_Grainger,Block_J5-293
2018-10-04 08:49:06,11,0,244.548,0,-90,1,0.25,2,9,0.0,1.0,6,45.0,30.0,9,0.35100000000000003,0.0,246.063,0.0,0,249,2018-10-04 08:53:10.548,0.25,90,0,90,-180,1,F1703_Grainger,Block_J5-293
2018-10-04 08:49:06,13,0,278.668,1,-90,1,0.25,2,3,0.0,1.0,12,45.0,30.0,3,0.451,0.0,279.974,0.18,1,249,2018-10-04 08:53:44.668,0.25,90,-180,-90,-180,1,F1703_Grainger,Block_J5-293
2018-10-04 08:49:06,14,0,289.163,1,-90,1,0.25,2,3,0.0,1.0,12,45.0,30.0,3,0.301,0.0,295.5440000000001,0.18,1,249,2018-10-04 08:53:55.163,0.25,90,-180,-90,-180,1,F1703_Grainger,Block_J5-293
2018-10-04 08:49:06,15,0,303.043,0,-90,1,0.25,2,9,0.0,1.0,6,45.0,30.0,9,0.401,1.0,306.251,0.23,1,249,2018-10-04 08:54:09.043,0.25,-90,0,90,0,1,F1703_Grainger,Block_J5-293
2018-10-04 08:49:06,16,0,341.756,0,-90,1,0.25,2,3,0.0,1.0,12,45.0,30.0,3,0.451,0.0,343.391,0.18,1,249,2018-10-04 08:54:47.756,0.25,90,-180,-90,-180,1,F1703_Grainger,Block_J5-293
2018-10-04 08:49:06,17,0,350.805,0,-90,1,0.25,2,3,0.0,1.0,12,45.0,30.0,3,0.35100000000000003,0.0,355.405,0.18,1,249,2018-10-04 08:54:56.805,0.25,90,-180,-90,-180,1,F1703_Grainger,Block_J5-293
2018-10-04 08:49:06,18,0,362.919,1,-90,1,0.25,2,3,0.0,1.0,12,45.0,30.0,3,0.301,0.0,364.765,0.18,1,249,2018-10-04 08:55:08.919,0.25,90,-180,-90,-180,1,F1703_Grainger,Block_J5-293
2018-10-04 08:49:06,19,0,372.423,0,-90,1,0.25,2,9,0.0,1.0,6,45.0,30.0,9,0.401,0.0,374.403,0.0,0,249,2018-10-04 08:55:18.423,0.25,90,0,90,-180,1,F1703_Grainger,Block_J5-293
2018-10-04 08:49:06,23,0,404.9,0,-90,1,0.25,2,3,0.0,1.0,12,45.0,30.0,3,0.301,1.0,407.232,0.0,0,249,2018-10-04 08:55:50.900,0.25,-90,-180,-90,0,1,F1703_Grainger,Block_J5-293
2018-10-04 08:49:06,25,0,423.335,0,-90,1,0.25,2,3,0.0,1.0,12,45.0,30.0,3,0.451,0.0,424.452,0.18,1,249,2018-10-04 08:56:09.335,0.25,90,-180,-90,-180,1,F1703_Grainger,Block_J5-293
2018-10-04 08:49:06,26,0,436.646,0,-90,1,0.25,2,3,0.0,1.0,12,45.0,30.0,3,0.501,0.0,437.888,0.18,1,249,2018-10-04 08:56:22.646,0.25,90,-180,-90,-180,1,F1703_Grainger,Block_J5-293
2018-10-04 08:49:06,27,0,446.33,0,-90,1,0.25,2,9,0.0,1.0,6,45.0,30.0,9,0.401,1.0,450.077,0.23,1,249,2018-10-04 08:56:32.330,0.25,-90,0,90,0,1,F1703_Grainger,Block_J5-293
2018-10-04 08:49:06,28,0,463.37,0,-90,1,0.25,2,9,0.0,1.0,6,45.0,30.0,9,0.451,1.0,464.617,0.23,1,249,2018-10-04 08:56:49.370,0.25,-90,0,90,0,1,F1703_Grainger,Block_J5-293
2018-10-04 08:49:06,29,0,480.579,0,-90,1,0.25,2,3,0.0,1.0,12,45.0,30.0,3,0.301,0.0,482.057,0.18,1,249,2018-10-04 08:57:06.579,0.25,90,-180,-90,-180,1,F1703_Grainger,Block_J5-293
2018-10-04 08:49:06,30,0,499.306,0,-90,1,0.25,2,3,0.0,1.0,12,45.0,30.0,3,0.35100000000000003,0.0,500.653,0.18,1,249,2018-10-04 08:57:25.306,0.25,90,-180,-90,-180,1,F1703_Grainger,Block_J5-293
2018-10-04 08:49:06,31,0,534.202,0,-90,1,0.25,2,3,0.0,1.0,12,45.0,30.0,3,0.501,0.0,535.547,0.18,1,249,2018-10-04 08:58:00.202,0.25,90,-180,-90,-180,1,F1703_Grainger,Block_J5-293
2018-10-04 08:49:06,32,0,543.788,0,-90,1,0.25,2,9,0.0,1.0,6,45.0,30.0,9,0.401,1.0,545.8,0.23,1,249,2018-10-04 08:58:09.788,0.25,-90,0,90,0,1,F1703_Grainger,Block_J5-293
2018-10-04 08:49:06,33,0,571.895,0,-90,1,0.25,2,9,0.0,1.0,6,45.0,30.0,9,0.451,1.0,573.757,0.23,1,249,2018-10-04 08:58:37.895,0.25,-90,0,90,0,1,F1703_Grainger,Block_J5-293
2018-10-04 08:49:06,34,0,593.0790000000002,0,-90,1,0.25,2,3,0.0,1.0,12,45.0,30.0,3,0.301,0.0,594.7919999999998,0.18,1,249,2018-10-04 08:58:59.079,0.25,90,-180,-90,-180,1,F1703_Grainger,Block_J5-293
2018-10-04 08:49:06,35,0,612.976,1,-90,1,0.25,2,3,0.0,1.0,12,45.0,30.0,3,0.35100000000000003,0.0,614.494,0.18,1,249,2018-10-04 08:59:18.976,0.25,90,-180,-90,-180,1,F1703_Grainger,Block_J5-293
2018-10-04 08:49:06,36,0,622.507,0,-90,1,0.25,2,3,0.0,1.0,12,45.0,30.0,3,0.451,0.0,625.3580000000002,0.18,1,249,2018-10-04 08:59:28.507,0.25,90,-180,-90,-180,1,F1703_Grainger,Block_J5-293
2018-10-04 08:49:06,37,0,631.769,0,-90,1,0.25,2,9,0.0,1.0,6,45.0,30.0,9,0.301,0.0,635.748,0.0,0,249,2018-10-04 08:59:37.769,0.25,90,0,90,-180,1,F1703_Grainger,Block_J5-293
2018-10-04 08:49:06,39,0,655.163,0,-90,1,0.25,2,3,0.0,1.0,12,45.0,30.0,3,0.401,0.0,656.942,0.18,1,249,2018-10-04 09:00:01.163,0.25,90,-180,-90,-180,1,F1703_Grainger,Block_J5-293
2018-10-04 08:49:06,40,0,666.047,1,-90,1,0.25,2,9,0.0,1.0,6,45.0,30.0,9,0.501,1.0,671.373,0.23,1,249,2018-10-04 09:00:12.047,0.25,-90,0,90,0,1,F1703_Grainger,Block_J5-293
2018-10-04 08:49:06,41,0,686.643,0,-90,1,0.25,2,9,0.0,1.0,4,45.0,30.0,9,0.451,1.0,688.7360000000001,0.23,1,249,2018-10-04 09:00:32.643,0.25,-90,60,150,0,0,F1703_Grainger,Block_J5-293
2018-10-04 08:49:06,42,0,702.4630000000002,0,-90,1,0.25,2,9,0.0,1.0,6,45.0,30.0,9,0.35100000000000003,0.0,704.056,0.0,0,249,2018-10-04 09:00:48.463,0.25,90,0,90,-180,1,F1703_Grainger,Block_J5-293
2018-10-04 08:49:06,44,0,741.189,0,-90,1,0.25,2,3,0.0,1.0,12,45.0,30.0,3,0.401,0.0,742.7510000000002,0.18,1,249,2018-10-04 09:01:27.189,0.25,90,-180,-90,-180,1,F1703_Grainger,Block_J5-293
2018-10-04 08:49:06,45,0,749.888,0,-90,1,0.25,2,3,0.0,1.0,12,45.0,30.0,3,0.301,0.0,751.3480000000002,0.18,1,249,2018-10-04 09:01:35.888,0.25,90,-180,-90,-180,1,F1703_Grainger,Block_J5-293
2018-10-04 08:49:06,46,0,758.832,0,-90,1,0.25,2,9,0.0,1.0,6,45.0,30.0,9,0.501,0.0,762.105,0.0,0,249,2018-10-04 09:01:44.832,0.25,90,0,90,-180,1,F1703_Grainger,Block_J5-293
2018-10-04 08:49:06,48,0,801.587,0,-90,1,0.25,2,9,0.0,1.0,6,45.0,30.0,9,0.451,0.0,804.095,0.0,0,249,2018-10-04 09:02:27.587,0.25,90,0,90,-180,1,F1703_Grainger,Block_J5-293
2018-10-04 08:49:06,53,0,842.663,0,-90,1,0.25,2,9,0.0,1.0,6,45.0,30.0,9,0.451,0.0,844.372,0.0,0,249,2018-10-04 09:03:08.663,0.25,90,0,90,-180,1,F1703_Grainger,Block_J5-293
2018-10-04 08:49:06,56,0,874.6039999999998,1,-90,1,0.25,2,3,0.0,1.0,12,45.0,30.0,3,0.35100000000000003,0.0,875.955,0.18,1,249,2018-10-04 09:03:40.604,0.25,90,-180,-90,-180,1,F1703_Grainger,Block_J5-293
2018-10-04 08:49:06,57,0,883.585,0,-90,1,0.25,2,3,0.0,1.0,12,45.0,30.0,3,0.301,1.0,886.615,0.0,0,249,2018-10-04 09:03:49.585,0.25,-90,-180,-90,0,1,F1703_Grainger,Block_J5-293
2018-10-04 08:49:06,59,0,903.859,0,-90,1,0.25,2,3,0.0,1.0,12,45.0,30.0,3,0.501,0.0,905.287,0.18,1,249,2018-10-04 09:04:09.859,0.25,90,-180,-90,-180,1,F1703_Grainger,Block_J5-293
2018-10-04 08:49:06,60,0,923.67,1,-90,1,0.25,2,3,0.0,1.0,12,45.0,30.0,3,0.451,0.0,929.286,0.18,1,249,2018-10-04 09:04:29.670,0.25,90,-180,-90,-180,1,F1703_Grainger,Block_J5-293
2018-10-04 08:49:06,61,0,936.092,0,-90,1,0.25,2,3,0.0,1.0,12,45.0,30.0,3,0.35100000000000003,0.0,937.26,0.18,1,249,2018-10-04 09:04:42.092,0.25,90,-180,-90,-180,1,F1703_Grainger,Block_J5-293
2018-10-04 08:49:06,62,0,950.246,0,-90,1,0.25,2,9,0.0,1.0,6,45.0,30.0,9,0.401,1.0,951.659,0.23,1,249,2018-10-04 09:04:56.246,0.25,-90,0,90,0,1,F1703_Grainger,Block_J5-293
2018-10-04 08:49:06,63,0,959.667,0,-90,1,0.25,2,3,0.0,1.0,12,45.0,30.0,3,0.501,0.0,961.17,0.18,1,249,2018-10-04 09:05:05.667,0.25,90,-180,-90,-180,1,F1703_Grainger,Block_J5-293
2018-10-04 08:49:06,64,0,994.365,1,-90,1,0.25,2,3,0.0,1.0,12,45.0,30.0,3,0.451,0.0,999.21,0.18,1,249,2018-10-04 09:05:40.365,0.25,90,-180,-90,-180,1,F1703_Grainger,Block_J5-293
2018-10-04 08:49:06,65,0,1005.97,0,-90,1,0.25,2,3,0.0,1.0,12,45.0,30.0,3,0.301,0.0,1007.748,0.18,1,249,2018-10-04 09:05:51.970,0.25,90,-180,-90,-180,1,F1703_Grainger,Block_J5-293
2018-10-04 08:49:06,66,0,1045.359,1,-90,1,0.25,2,3,0.0,1.0,12,45.0,30.0,3,0.451,1.0,1051.573,0.0,0,249,2018-10-04 09:06:31.359,0.25,-90,-180,-90,0,1,F1703_Grainger,Block_J5-293
2018-10-04 08:49:06,68,0,1071.293,0,-90,1,0.25,2,3,0.0,1.0,12,45.0,30.0,3,0.35100000000000003,0.0,1072.57,0.18,1,249,2018-10-04 09:06:57.293,0.25,90,-180,-90,-180,1,F1703_Grainger,Block_J5-293
2018-10-04 08:49:06,69,0,1080.897,0,-90,1,0.25,2,9,0.0,1.0,4,45.0,30.0,9,0.301,1.0,1083.217,0.23,1,249,2018-10-04 09:07:06.897,0.25,-90,60,150,0,0,F1703_Grainger,Block_J5-293
2018-10-04 08:49:06,70,0,1092.567,0,-90,1,0.25,2,9,0.0,1.0,6,45.0,30.0,9,0.401,0.0,1093.955,0.0,0,249,2018-10-04 09:07:18.567,0.25,90,0,90,-180,1,F1703_Grainger,Block_J5-293
2018-10-04 08:49:06,72,0,1114.999,0,-90,1,0.25,2,9,0.0,1.0,6,45.0,30.0,9,0.401,1.0,1116.319,0.23,1,249,2018-10-04 09:07:40.999,0.25,-90,0,90,0,1,F1703_Grainger,Block_J5-293
2018-10-04 08:49:06,73,0,1141.987,0,-90,1,0.25,2,9,0.0,1.0,6,45.0,30.0,9,0.501,1.0,1143.632,0.23,1,249,2018-10-04 09:08:07.987,0.25,-90,0,90,0,1,F1703_Grainger,Block_J5-293
2018-10-04 08:49:06,74,0,1161.239,1,-90,1,0.25,2,3,0.0,1.0,12,45.0,30.0,3,0.301,0.0,1162.546,0.18,1,249,2018-10-04 09:08:27.239,0.25,90,-180,-90,-180,1,F1703_Grainger,Block_J5-293
2018-10-04 08:49:06,75,0,1172.363,0,-90,1,0.25,2,9,0.0,1.0,6,45.0,30.0,9,0.35100000000000003,0.0,1177.477,0.0,0,249,2018-10-04 09:08:38.363,0.25,90,0,90,-180,1,F1703_Grainger,Block_J5-293
2018-10-04 08:49:06,78,0,1205.429,1,-90,1,0.25,2,9,0.0,1.0,6,45.0,30.0,9,0.451,1.0,1206.854,0.23,1,249,2018-10-04 09:09:11.429,0.25,-90,0,90,0,1,F1703_Grainger,Block_J5-293
2018-10-04 08:49:06,79,0,1218.726,0,-90,1,0.25,2,9,0.0,1.0,6,45.0,30.0,9,0.501,1.0,1220.914,0.23,1,249,2018-10-04 09:09:24.726,0.25,-90,0,90,0,1,F1703_Grainger,Block_J5-293
2018-10-04 08:49:06,80,0,1239.224,1,-90,1,0.25,2,9,0.0,1.0,6,45.0,30.0,9,0.401,0.0,1240.858,0.0,0,249,2018-10-04 09:09:45.224,0.25,90,0,90,-180,1,F1703_Grainger,Block_J5-293
2018-10-04 08:49:06,84,0,1268.931,0,-90,1,0.25,2,9,0.0,1.0,6,45.0,30.0,9,0.401,1.0,1270.335,0.23,1,249,2018-10-04 09:10:14.931,0.25,-90,0,90,0,1,F1703_Grainger,Block_J5-293
2018-10-04 08:49:06,85,0,1280.243,0,-90,1,0.25,2,9,0.0,1.0,6,45.0,30.0,9,0.301,1.0,1281.655,0.23,1,249,2018-10-04 09:10:26.243,0.25,-90,0,90,0,1,F1703_Grainger,Block_J5-293
2018-10-04 08:49:06,86,0,1300.938,0,-90,1,0.25,2,9,0.0,1.0,6,45.0,30.0,9,0.451,1.0,1302.34,0.23,1,249,2018-10-04 09:10:46.938,0.25,-90,0,90,0,1,F1703_Grainger,Block_J5-293
2018-10-04 08:49:06,87,0,1320.243,0,-90,1,0.25,2,9,0.0,1.0,6,45.0,30.0,9,0.401,1.0,1322.942,0.23,1,249,2018-10-04 09:11:06.243,0.25,-90,0,90,0,1,F1703_Grainger,Block_J5-293
2018-10-04 08:49:06,88,0,1334.304,0,-90,1,0.25,2,3,0.0,1.0,12,45.0,30.0,3,0.35100000000000003,0.0,1335.9920000000004,0.18,1,249,2018-10-04 09:11:20.304,0.25,90,-180,-90,-180,1,F1703_Grainger,Block_J5-293
2018-10-04 08:49:06,89,0,1343.9620000000002,1,-90,1,0.25,2,9,0.0,1.0,6,45.0,30.0,9,0.301,1.0,1345.706,0.23,1,249,2018-10-04 09:11:29.962,0.25,-90,0,90,0,1,F1703_Grainger,Block_J5-293
2018-10-04 08:49:06,90,0,1358.448,1,-90,1,0.25,2,9,0.0,1.0,6,45.0,30.0,9,0.501,1.0,1360.019,0.23,1,249,2018-10-04 09:11:44.448,0.25,-90,0,90,0,1,F1703_Grainger,Block_J5-293
2018-10-04 08:49:06,91,0,1374.711,0,-90,1,0.25,2,9,0.0,1.0,6,45.0,30.0,9,0.501,1.0,1378.053,0.23,1,249,2018-10-04 09:12:00.711,0.25,-90,0,90,0,1,F1703_Grainger,Block_J5-293
2018-10-04 08:49:06,92,0,1386.9489999999996,0,-90,1,0.25,2,3,0.0,1.0,12,45.0,30.0,3,0.301,0.0,1388.67,0.18,1,249,2018-10-04 09:12:12.949,0.25,90,-180,-90,-180,1,F1703_Grainger,Block_J5-293
2018-10-04 08:49:06,93,0,1396.132,0,-90,1,0.25,2,3,0.0,1.0,12,45.0,30.0,3,0.401,0.0,1397.831,0.18,1,249,2018-10-04 09:12:22.132,0.25,90,-180,-90,-180,1,F1703_Grainger,Block_J5-293
2018-10-04 08:49:06,94,0,1406.179,0,-90,1,0.25,2,9,0.0,1.0,6,45.0,30.0,9,0.35100000000000003,1.0,1407.6,0.23,1,249,2018-10-04 09:12:32.179,0.25,-90,0,90,0,1,F1703_Grainger,Block_J5-293
2018-10-04 08:49:06,95,0,1416.807,1,-90,1,0.25,2,3,0.0,1.0,12,45.0,30.0,3,0.451,0.0,1418.156,0.18,1,249,2018-10-04 09:12:42.807,0.25,90,-180,-90,-180,1,F1703_Grainger,Block_J5-293
2018-10-04 08:49:06,96,0,1425.519,1,-90,1,0.25,2,3,0.0,1.0,12,45.0,30.0,3,0.35100000000000003,0.0,1428.3970000000004,0.18,1,249,2018-10-04 09:12:51.519,0.25,90,-180,-90,-180,1,F1703_Grainger,Block_J5-293
2018-10-04 08:49:06,97,0,1443.7479999999996,0,-90,1,0.25,2,3,0.0,1.0,11,45.0,30.0,3,0.451,1.0,1449.402,0.0,0,249,2018-10-04 09:13:09.748,0.25,-90,-150,-60,0,0,F1703_Grainger,Block_J5-293
2018-10-04 08:49:06,98,0,1456.693,0,-90,1,0.25,2,9,0.0,1.0,6,45.0,30.0,9,0.401,1.0,1458.08,0.23,1,249,2018-10-04 09:13:22.693,0.25,-90,0,90,0,1,F1703_Grainger,Block_J5-293
2018-10-04 08:49:06,99,0,1474.197,0,-90,1,0.25,2,3,0.0,1.0,12,45.0,30.0,3,0.501,0.0,1475.422,0.18,1,249,2018-10-04 09:13:40.197,0.25,90,-180,-90,-180,1,F1703_Grainger,Block_J5-293
2018-10-04 08:49:06,100,0,1481.767,0,-90,1,0.25,2,3,0.0,1.0,12,45.0,30.0,3,0.301,0.0,1483.035,0.18,1,249,2018-10-04 09:13:47.767,0.25,90,-180,-90,-180,1,F1703_Grainger,Block_J5-293
2018-10-04 08:49:06,101,0,1490.846,0,-90,1,0.25,2,3,0.0,1.0,12,45.0,30.0,3,0.35100000000000003,0.0,1492.069,0.18,1,249,2018-10-04 09:13:56.846,0.25,90,-180,-90,-180,1,F1703_Grainger,Block_J5-293
2018-10-04 08:49:06,102,0,1499.135,0,-90,1,0.25,2,9,0.0,1.0,6,45.0,30.0,9,0.501,1.0,1500.7779999999998,0.23,1,249,2018-10-04 09:14:05.135,0.25,-90,0,90,0,1,F1703_Grainger,Block_J5-293
2018-10-04 08:49:06,103,0,1507.715,0,-90,1,0.25,2,9,0.0,1.0,6,45.0,30.0,9,0.301,1.0,1509.036,0.23,1,249,2018-10-04 09:14:13.715,0.25,-90,0,90,0,1,F1703_Grainger,Block_J5-293
2018-10-04 08:49:06,104,0,1516.686,1,-90,1,0.25,2,3,0.0,1.0,12,45.0,30.0,3,0.401,1.0,1518.184,0.0,0,249,2018-10-04 09:14:22.686,0.25,-90,-180,-90,0,1,F1703_Grainger,Block_J5-293
2018-10-04 08:49:06,107,0,1563.059,1,-90,1,0.25,2,9,0.0,1.0,6,45.0,30.0,9,0.451,1.0,1564.479,0.23,1,249,2018-10-04 09:15:09.059,0.25,-90,0,90,0,1,F1703_Grainger,Block_J5-293
2018-10-04 09:19:33,1,0,28.651,0,-90,1,0.25,2,9,0.0,1.0,6,45.0,30.0,9,0.451,1.0,31.147,0.23,1,285,2018-10-04 09:20:01.651,0.25,-90,0,90,0,1,F1701_Pendleton,Block_J5-308
2018-10-04 09:19:33,2,0,45.504,0,-90,1,0.25,2,3,0.0,1.0,12,45.0,30.0,3,0.601,0.0,46.924,0.2,1,285,2018-10-04 09:20:18.504,0.25,90,-180,-90,-180,1,F1701_Pendleton,Block_J5-308
2018-10-04 09:19:33,3,0,60.914,0,-90,1,0.25,2,9,0.0,1.0,6,45.0,30.0,9,0.301,1.0,62.754,0.23,1,285,2018-10-04 09:20:33.914,0.25,-90,0,90,0,1,F1701_Pendleton,Block_J5-308
2018-10-04 09:19:33,4,0,78.395,0,-90,1,0.25,2,9,0.0,1.0,6,45.0,30.0,9,0.526,1.0,79.90899999999998,0.23,1,285,2018-10-04 09:20:51.395,0.25,-90,0,90,0,1,F1701_Pendleton,Block_J5-308
2018-10-04 09:19:33,5,0,95.093,1,-90,1,0.25,2,9,0.0,1.0,6,45.0,30.0,9,0.376,0.0,96.968,0.0,0,285,2018-10-04 09:21:08.093,0.25,90,0,90,-180,1,F1701_Pendleton,Block_J5-308
2018-10-04 09:19:33,7,0,128.684,0,-90,1,0.25,2,3,0.0,1.0,12,45.0,30.0,3,0.376,0.0,129.825,0.2,1,285,2018-10-04 09:21:41.684,0.25,90,-180,-90,-180,1,F1701_Pendleton,Block_J5-308
2018-10-04 09:19:33,8,0,138.501,1,-90,1,0.25,2,9,0.0,1.0,6,45.0,30.0,9,0.451,0.0,140.889,0.0,0,285,2018-10-04 09:21:51.501,0.25,90,0,90,-180,1,F1701_Pendleton,Block_J5-308
2018-10-04 09:19:33,10,0,166.18599999999995,1,-90,1,0.25,2,9,0.0,1.0,6,45.0,30.0,9,0.301,0.0,170.365,0.0,0,285,2018-10-04 09:22:19.186,0.25,90,0,90,-180,1,F1701_Pendleton,Block_J5-308
2018-10-04 09:19:33,12,0,197.182,0,-90,1,0.25,2,9,0.0,1.0,6,45.0,30.0,9,0.526,0.0,199.324,0.0,0,285,2018-10-04 09:22:50.182,0.25,90,0,90,-180,1,F1701_Pendleton,Block_J5-308
2018-10-04 09:19:33,15,0,248.044,1,-90,1,0.25,2,3,0.0,1.0,12,45.0,30.0,3,0.451,0.0,249.33,0.2,1,285,2018-10-04 09:23:41.044,0.25,90,-180,-90,-180,1,F1701_Pendleton,Block_J5-308
2018-10-04 09:19:33,16,0,261.598,0,-90,1,0.25,2,3,0.0,1.0,12,45.0,30.0,3,0.301,0.0,263.17,0.2,1,285,2018-10-04 09:23:54.598,0.25,90,-180,-90,-180,1,F1701_Pendleton,Block_J5-308
2018-10-04 09:19:33,17,0,274.605,0,-90,1,0.25,2,9,0.0,1.0,6,45.0,30.0,9,0.526,0.0,276.383,0.0,0,285,2018-10-04 09:24:07.605,0.25,90,0,90,-180,1,F1701_Pendleton,Block_J5-308
2018-10-04 09:19:33,19,0,298.091,1,-90,1,0.25,2,3,0.0,1.0,12,45.0,30.0,3,0.451,1.0,300.733,0.0,0,285,2018-10-04 09:24:31.091,0.25,-90,-180,-90,0,1,F1701_Pendleton,Block_J5-308
2018-10-04 09:19:33,21,0,321.307,1,-90,1,0.25,2,3,0.0,1.0,12,45.0,30.0,3,0.451,0.0,323.36,0.2,1,285,2018-10-04 09:24:54.307,0.25,90,-180,-90,-180,1,F1701_Pendleton,Block_J5-308
2018-10-04 09:19:33,22,0,344.536,1,-90,1,0.25,2,3,0.0,1.0,12,45.0,30.0,3,0.526,1.0,347.528,0.0,0,285,2018-10-04 09:25:17.536,0.25,-90,-180,-90,0,1,F1701_Pendleton,Block_J5-308
2018-10-04 09:19:33,24,0,361.272,0,-90,1,0.25,2,9,0.0,1.0,6,45.0,30.0,9,0.301,0.0,363.713,0.0,0,285,2018-10-04 09:25:34.272,0.25,90,0,90,-180,1,F1701_Pendleton,Block_J5-308
2018-10-04 09:19:33,26,0,389.09,0,-90,1,0.25,2,3,0.0,1.0,12,45.0,30.0,3,0.526,0.0,390.426,0.2,1,285,2018-10-04 09:26:02.090,0.25,90,-180,-90,-180,1,F1701_Pendleton,Block_J5-308
2018-10-04 09:19:33,27,0,399.3,0,-90,1,0.25,2,3,0.0,1.0,12,45.0,30.0,3,0.451,0.0,400.655,0.2,1,285,2018-10-04 09:26:12.300,0.25,90,-180,-90,-180,1,F1701_Pendleton,Block_J5-308
2018-10-04 09:19:33,28,0,411.032,0,-90,1,0.25,2,3,0.0,1.0,12,45.0,30.0,3,0.376,0.0,412.87,0.2,1,285,2018-10-04 09:26:24.032,0.25,90,-180,-90,-180,1,F1701_Pendleton,Block_J5-308
2018-10-04 09:19:33,29,0,422.78,0,-90,1,0.25,2,9,0.0,1.0,6,45.0,30.0,9,0.601,0.0,424.7,0.0,0,285,2018-10-04 09:26:35.780,0.25,90,0,90,-180,1,F1701_Pendleton,Block_J5-308
2018-10-04 09:19:33,31,0,444.941,0,-90,1,0.25,2,9,0.0,1.0,6,45.0,30.0,9,0.451,1.0,446.75,0.23,1,285,2018-10-04 09:26:57.941,0.25,-90,0,90,0,1,F1701_Pendleton,Block_J5-308
2018-10-04 09:19:33,32,0,471.282,0,-90,1,0.25,2,9,0.0,1.0,6,45.0,30.0,9,0.376,0.0,473.222,0.0,0,285,2018-10-04 09:27:24.282,0.25,90,0,90,-180,1,F1701_Pendleton,Block_J5-308
2018-10-04 09:19:33,34,0,498.509,0,-90,1,0.25,2,9,0.0,1.0,6,45.0,30.0,9,0.301,1.0,500.604,0.23,1,285,2018-10-04 09:27:51.509,0.25,-90,0,90,0,1,F1701_Pendleton,Block_J5-308
2018-10-04 09:19:33,35,0,519.359,1,-90,1,0.25,2,9,0.0,1.0,6,45.0,30.0,9,0.601,1.0,522.15,0.23,1,285,2018-10-04 09:28:12.359,0.25,-90,0,90,0,1,F1701_Pendleton,Block_J5-308
2018-10-04 09:19:33,36,0,543.8240000000002,0,-90,1,0.25,2,3,0.0,1.0,12,45.0,30.0,3,0.526,0.0,545.2130000000002,0.2,1,285,2018-10-04 09:28:36.824,0.25,90,-180,-90,-180,1,F1701_Pendleton,Block_J5-308
2018-10-04 09:19:33,37,0,556.099,0,-90,1,0.25,2,3,0.0,1.0,7,45.0,30.0,3,0.376,0.0,557.521,0.2,1,285,2018-10-04 09:28:49.099,0.25,90,-30,60,-180,0,F1701_Pendleton,Block_J5-308
2018-10-04 09:19:33,38,0,576.047,1,-90,1,0.25,2,9,0.0,1.0,6,45.0,30.0,9,0.451,1.0,578.81,0.23,1,285,2018-10-04 09:29:09.047,0.25,-90,0,90,0,1,F1701_Pendleton,Block_J5-308
2018-10-04 09:19:33,39,0,592.925,1,-90,1,0.25,2,9,0.0,1.0,6,45.0,30.0,9,0.301,1.0,595.7719999999998,0.23,1,285,2018-10-04 09:29:25.925,0.25,-90,0,90,0,1,F1701_Pendleton,Block_J5-308
2018-10-04 09:19:33,40,0,615.663,1,-90,1,0.25,2,9,0.0,1.0,6,45.0,30.0,9,0.601,0.0,617.254,0.0,0,285,2018-10-04 09:29:48.663,0.25,90,0,90,-180,1,F1701_Pendleton,Block_J5-308
2018-10-04 09:19:33,45,0,654.366,0,-90,1,0.25,2,9,0.0,1.0,9,45.0,30.0,9,0.601,0.0,655.988,0.0,0,285,2018-10-04 09:30:27.366,0.25,90,-90,0,-180,0,F1701_Pendleton,Block_J5-308
2018-10-04 09:19:33,46,0,665.549,0,-90,1,0.25,2,3,0.0,1.0,12,45.0,30.0,3,0.526,0.0,667.4780000000002,0.2,1,285,2018-10-04 09:30:38.549,0.25,90,-180,-90,-180,1,F1701_Pendleton,Block_J5-308
2018-10-04 09:19:33,47,0,675.457,1,-90,1,0.25,2,3,0.0,1.0,12,45.0,30.0,3,0.451,0.0,677.409,0.2,1,285,2018-10-04 09:30:48.457,0.25,90,-180,-90,-180,1,F1701_Pendleton,Block_J5-308
2018-10-04 09:19:33,48,0,686.602,1,-90,1,0.25,2,3,0.0,1.0,12,45.0,30.0,3,0.601,0.0,688.946,0.2,1,285,2018-10-04 09:30:59.602,0.25,90,-180,-90,-180,1,F1701_Pendleton,Block_J5-308
2018-10-04 09:19:33,49,0,698.003,1,-90,1,0.25,2,3,0.0,1.0,12,45.0,30.0,3,0.376,0.0,700.7639999999999,0.2,1,285,2018-10-04 09:31:11.003,0.25,90,-180,-90,-180,1,F1701_Pendleton,Block_J5-308
2018-10-04 09:19:33,50,0,717.525,1,-90,1,0.25,2,9,0.0,1.0,6,45.0,30.0,9,0.301,0.0,719.765,0.0,0,285,2018-10-04 09:31:30.525,0.25,90,0,90,-180,1,F1701_Pendleton,Block_J5-308
2018-10-04 09:19:33,52,0,754.8330000000002,0,-90,1,0.25,2,9,0.0,1.0,6,45.0,30.0,9,0.526,1.0,756.555,0.23,1,285,2018-10-04 09:32:07.833,0.25,-90,0,90,0,1,F1701_Pendleton,Block_J5-308
2018-10-04 09:19:33,53,0,774.558,0,-90,1,0.25,2,3,0.0,1.0,12,45.0,30.0,3,0.451,0.0,775.863,0.2,1,285,2018-10-04 09:32:27.558,0.25,90,-180,-90,-180,1,F1701_Pendleton,Block_J5-308
2018-10-04 09:19:33,54,0,783.9910000000001,0,-90,1,0.25,2,3,0.0,1.0,12,45.0,30.0,3,0.301,0.0,786.081,0.2,1,285,2018-10-04 09:32:36.991,0.25,90,-180,-90,-180,1,F1701_Pendleton,Block_J5-308
2018-10-04 09:19:33,55,0,795.6289999999998,1,-90,1,0.25,2,3,0.0,1.0,12,45.0,30.0,3,0.376,0.0,797.7310000000001,0.2,1,285,2018-10-04 09:32:48.629,0.25,90,-180,-90,-180,1,F1701_Pendleton,Block_J5-308
2018-10-04 09:19:33,56,0,807.201,1,-90,1,0.25,2,3,0.0,1.0,12,45.0,30.0,3,0.526,0.0,809.52,0.2,1,285,2018-10-04 09:33:00.201,0.25,90,-180,-90,-180,1,F1701_Pendleton,Block_J5-308
2018-10-04 09:19:33,57,0,817.722,0,-90,1,0.25,2,9,0.0,1.0,6,45.0,30.0,9,0.451,0.0,819.941,0.0,0,285,2018-10-04 09:33:10.722,0.25,90,0,90,-180,1,F1701_Pendleton,Block_J5-308
2018-10-04 09:19:33,59,0,836.498,0,-90,1,0.25,2,3,0.0,1.0,11,45.0,30.0,3,0.601,0.0,837.8789999999998,0.2,1,285,2018-10-04 09:33:29.498,0.25,90,-150,-60,-180,0,F1701_Pendleton,Block_J5-308
2018-10-04 09:19:33,60,0,846.7280000000002,0,-90,1,0.25,2,9,0.0,1.0,6,45.0,30.0,9,0.301,0.0,848.5419999999998,0.0,0,285,2018-10-04 09:33:39.728,0.25,90,0,90,-180,1,F1701_Pendleton,Block_J5-308
2018-10-04 09:19:33,62,0,873.204,1,-90,1,0.25,2,9,0.0,1.0,6,45.0,30.0,9,0.376,1.0,875.8760000000002,0.23,1,285,2018-10-04 09:34:06.204,0.25,-90,0,90,0,1,F1701_Pendleton,Block_J5-308
2018-10-04 09:19:33,63,0,892.556,0,-90,1,0.25,2,3,0.0,1.0,12,45.0,30.0,3,0.526,0.0,894.2189999999998,0.2,1,285,2018-10-04 09:34:25.556,0.25,90,-180,-90,-180,1,F1701_Pendleton,Block_J5-308
2018-10-04 09:19:33,64,0,904.239,0,-90,1,0.25,2,9,0.0,1.0,6,45.0,30.0,9,0.301,0.0,905.87,0.0,0,285,2018-10-04 09:34:37.239,0.25,90,0,90,-180,1,F1701_Pendleton,Block_J5-308
2018-10-04 09:19:33,66,0,924.014,0,-90,1,0.25,2,9,0.0,1.0,11,45.0,30.0,9,0.451,0.0,926.317,0.0,0,285,2018-10-04 09:34:57.014,0.25,90,-150,-60,-180,0,F1701_Pendleton,Block_J5-308
2018-10-04 09:19:33,67,0,934.495,0,-90,1,0.25,2,3,0.0,1.0,12,45.0,30.0,3,0.526,0.0,936.272,0.2,1,285,2018-10-04 09:35:07.495,0.25,90,-180,-90,-180,1,F1701_Pendleton,Block_J5-308
2018-10-04 09:19:33,68,0,944.933,0,-90,1,0.25,2,9,0.0,1.0,6,45.0,30.0,9,0.301,0.0,947.326,0.0,0,285,2018-10-04 09:35:17.933,0.25,90,0,90,-180,1,F1701_Pendleton,Block_J5-308
2018-10-04 15:13:57,1,0,131.571,0,150,1,0.25,2,9,0.0,1.0,6,45.0,30.0,9,0.451,0.0,133.16299999999998,0.0,0,266,2018-10-04 15:16:08.571,0.25,90,0,-150,-60,1,F1703_Grainger,Block_J5-294
2018-10-04 15:13:57,3,0,159.67600000000004,0,150,1,0.25,2,3,0.0,1.0,12,45.0,30.0,3,0.35100000000000003,0.0,161.097,0.18,1,266,2018-10-04 15:16:36.676,0.25,90,-180,30,-60,1,F1703_Grainger,Block_J5-294
2018-10-04 15:13:57,4,0,172.067,0,150,1,0.25,2,3,0.0,1.0,12,45.0,30.0,3,0.301,0.0,173.30200000000005,0.18,1,266,2018-10-04 15:16:49.067,0.25,90,-180,30,-60,1,F1703_Grainger,Block_J5-294
2018-10-04 15:13:57,5,0,188.259,0,150,1,0.25,2,3,0.0,1.0,12,45.0,30.0,3,0.501,1.0,189.181,0.0,0,266,2018-10-04 15:17:05.259,0.25,-90,-180,30,120,1,F1703_Grainger,Block_J5-294
2018-10-04 15:13:57,7,0,204.142,1,150,1,0.25,2,3,0.0,1.0,12,45.0,30.0,3,0.301,0.0,205.428,0.18,1,266,2018-10-04 15:17:21.142,0.25,90,-180,30,-60,1,F1703_Grainger,Block_J5-294
2018-10-04 15:13:57,8,0,213.178,1,150,1,0.25,2,3,0.0,1.0,12,45.0,30.0,3,0.35100000000000003,0.0,216.957,0.18,1,266,2018-10-04 15:17:30.178,0.25,90,-180,30,-60,1,F1703_Grainger,Block_J5-294
2018-10-04 15:13:57,9,0,235.655,0,150,1,0.25,2,3,0.0,1.0,12,45.0,30.0,3,0.501,0.0,237.031,0.18,1,266,2018-10-04 15:17:52.655,0.25,90,-180,30,-60,1,F1703_Grainger,Block_J5-294
2018-10-04 15:13:57,10,0,257.281,0,150,1,0.25,2,9,0.0,1.0,6,45.0,30.0,9,0.451,0.0,259.835,0.0,0,266,2018-10-04 15:18:14.281,0.25,90,0,-150,-60,1,F1703_Grainger,Block_J5-294
2018-10-04 15:13:57,12,0,276.013,0,150,1,0.25,2,3,0.0,1.0,12,45.0,30.0,3,0.301,0.0,277.523,0.18,1,266,2018-10-04 15:18:33.013,0.25,90,-180,30,-60,1,F1703_Grainger,Block_J5-294
2018-10-04 15:13:57,13,0,284.1,0,150,1,0.25,2,3,0.0,1.0,12,45.0,30.0,3,0.35100000000000003,0.0,285.735,0.18,1,266,2018-10-04 15:18:41.100,0.25,90,-180,30,-60,1,F1703_Grainger,Block_J5-294
2018-10-04 15:13:57,14,0,296.2390000000001,1,150,1,0.25,2,3,0.0,1.0,12,45.0,30.0,3,0.501,0.0,297.706,0.18,1,266,2018-10-04 15:18:53.239,0.25,90,-180,30,-60,1,F1703_Grainger,Block_J5-294
2018-10-04 15:13:57,15,0,304.339,0,150,1,0.25,2,9,0.0,1.0,2,45.0,30.0,9,0.401,0.0,305.807,0.0,0,266,2018-10-04 15:19:01.339,0.25,90,120,-30,-60,0,F1703_Grainger,Block_J5-294
2018-10-04 15:13:57,16,0,313.772,0,150,1,0.25,2,9,0.0,1.0,6,45.0,30.0,9,0.451,0.0,316.203,0.0,0,266,2018-10-04 15:19:10.772,0.25,90,0,-150,-60,1,F1703_Grainger,Block_J5-294
2018-10-04 15:13:57,20,0,353.825,0,150,1,0.25,2,9,0.0,1.0,6,45.0,30.0,9,0.35100000000000003,0.0,355.287,0.0,0,266,2018-10-04 15:19:50.825,0.25,90,0,-150,-60,1,F1703_Grainger,Block_J5-294
2018-10-04 15:13:57,22,0,371.309,0,150,1,0.25,2,9,0.0,1.0,6,45.0,30.0,9,0.501,1.0,372.486,0.23,1,266,2018-10-04 15:20:08.309,0.25,-90,0,-150,120,1,F1703_Grainger,Block_J5-294
2018-10-04 15:13:57,23,0,391.692,1,150,1,0.25,2,9,0.0,1.0,6,45.0,30.0,9,0.35100000000000003,0.0,392.875,0.0,0,266,2018-10-04 15:20:28.692,0.25,90,0,-150,-60,1,F1703_Grainger,Block_J5-294
2018-10-04 15:13:57,27,0,433.62,0,150,1,0.25,2,9,0.0,1.0,6,45.0,30.0,9,0.501,1.0,434.598,0.23,1,266,2018-10-04 15:21:10.620,0.25,-90,0,-150,120,1,F1703_Grainger,Block_J5-294
2018-10-04 15:13:57,28,0,452.201,1,150,1,0.25,2,3,0.0,1.0,12,45.0,30.0,3,0.301,0.0,453.381,0.18,1,266,2018-10-04 15:21:29.201,0.25,90,-180,30,-60,1,F1703_Grainger,Block_J5-294
2018-10-04 15:13:57,29,0,460.535,0,150,1,0.25,2,9,0.0,1.0,6,45.0,30.0,9,0.451,1.0,463.518,0.23,1,266,2018-10-04 15:21:37.535,0.25,-90,0,-150,120,1,F1703_Grainger,Block_J5-294
2018-10-04 15:13:57,30,0,492.876,0,150,1,0.25,2,9,0.0,1.0,6,45.0,30.0,9,0.35100000000000003,0.0,493.966,0.0,0,266,2018-10-04 15:22:09.876,0.25,90,0,-150,-60,1,F1703_Grainger,Block_J5-294
2018-10-04 15:13:57,33,0,534.071,1,150,1,0.25,2,9,0.0,1.0,6,45.0,30.0,9,0.501,1.0,539.893,0.23,1,266,2018-10-04 15:22:51.071,0.25,-90,0,-150,120,1,F1703_Grainger,Block_J5-294
2018-10-04 15:13:57,34,0,586.493,1,150,1,0.25,2,9,0.0,1.0,6,45.0,30.0,9,0.451,1.0,592.95,0.23,1,266,2018-10-04 15:23:43.493,0.25,-90,0,-150,120,1,F1703_Grainger,Block_J5-294
2018-10-04 15:13:57,35,0,607.474,0,150,1,0.25,2,3,0.0,1.0,12,45.0,30.0,3,0.35100000000000003,1.0,610.807,0.0,0,266,2018-10-04 15:24:04.474,0.25,-90,-180,30,120,1,F1703_Grainger,Block_J5-294
2018-10-04 15:13:57,37,0,626.039,0,150,1,0.25,2,3,0.0,1.0,12,45.0,30.0,3,0.301,0.0,628.075,0.18,1,266,2018-10-04 15:24:23.039,0.25,90,-180,30,-60,1,F1703_Grainger,Block_J5-294
2018-10-04 15:13:57,38,0,634.875,0,150,1,0.25,2,3,0.0,1.0,12,45.0,30.0,3,0.401,0.0,637.069,0.18,1,266,2018-10-04 15:24:31.875,0.25,90,-180,30,-60,1,F1703_Grainger,Block_J5-294
2018-10-04 15:13:57,39,0,648.516,0,150,1,0.25,2,3,0.0,1.0,12,45.0,30.0,3,0.35100000000000003,0.0,650.049,0.18,1,266,2018-10-04 15:24:45.516,0.25,90,-180,30,-60,1,F1703_Grainger,Block_J5-294
2018-10-04 15:13:57,40,0,656.7760000000002,0,150,1,0.25,2,9,0.0,1.0,6,45.0,30.0,9,0.501,1.0,659.6010000000001,0.23,1,266,2018-10-04 15:24:53.776,0.25,-90,0,-150,120,1,F1703_Grainger,Block_J5-294
2018-10-04 15:13:57,41,0,680.43,0,150,1,0.25,2,9,0.0,1.0,6,45.0,30.0,9,0.451,1.0,682.442,0.23,1,266,2018-10-04 15:25:17.430,0.25,-90,0,-150,120,1,F1703_Grainger,Block_J5-294
2018-10-04 15:13:57,42,0,696.7610000000002,0,150,1,0.25,2,9,0.0,1.0,9,45.0,30.0,9,0.401,1.0,699.828,0.23,1,266,2018-10-04 15:25:33.761,0.25,-90,-90,120,120,0,F1703_Grainger,Block_J5-294
2018-10-04 15:13:57,43,0,713.4110000000002,0,150,1,0.25,2,9,0.0,1.0,6,45.0,30.0,9,0.301,1.0,715.028,0.23,1,266,2018-10-04 15:25:50.411,0.25,-90,0,-150,120,1,F1703_Grainger,Block_J5-294
2018-10-04 15:13:57,44,0,729.842,0,150,1,0.25,2,3,0.0,1.0,12,45.0,30.0,3,0.35100000000000003,0.0,731.488,0.18,1,266,2018-10-04 15:26:06.842,0.25,90,-180,30,-60,1,F1703_Grainger,Block_J5-294
2018-10-04 15:13:57,45,0,773.062,0,150,1,0.25,2,3,0.0,1.0,2,45.0,30.0,3,0.501,0.0,774.6289999999998,0.18,1,266,2018-10-04 15:26:50.062,0.25,90,120,-30,-60,0,F1703_Grainger,Block_J5-294
2018-10-04 15:13:57,46,0,780.742,0,150,1,0.25,2,9,0.0,1.0,6,45.0,30.0,9,0.35100000000000003,1.0,781.8480000000002,0.23,1,266,2018-10-04 15:26:57.742,0.25,-90,0,-150,120,1,F1703_Grainger,Block_J5-294
2018-10-04 15:13:57,47,0,788.559,0,150,1,0.25,2,9,0.0,1.0,6,45.0,30.0,9,0.501,0.0,790.3639999999998,0.0,0,266,2018-10-04 15:27:05.559,0.25,90,0,-150,-60,1,F1703_Grainger,Block_J5-294
2018-10-04 15:13:57,49,0,810.171,1,150,1,0.25,2,9,0.0,1.0,6,45.0,30.0,9,0.451,1.0,811.5880000000002,0.23,1,266,2018-10-04 15:27:27.171,0.25,-90,0,-150,120,1,F1703_Grainger,Block_J5-294
2018-10-04 15:13:57,50,0,819.6419999999998,0,150,1,0.25,2,9,0.0,1.0,6,45.0,30.0,9,0.301,1.0,822.596,0.23,1,266,2018-10-04 15:27:36.642,0.25,-90,0,-150,120,1,F1703_Grainger,Block_J5-294
2018-10-04 15:13:57,51,0,833.437,0,150,1,0.25,2,3,0.0,1.0,12,45.0,30.0,3,0.451,0.0,834.9060000000002,0.18,1,266,2018-10-04 15:27:50.437,0.25,90,-180,30,-60,1,F1703_Grainger,Block_J5-294
2018-10-04 15:13:57,52,0,841.926,1,150,1,0.25,2,3,0.0,1.0,12,45.0,30.0,3,0.501,0.0,846.727,0.18,1,266,2018-10-04 15:27:58.926,0.25,90,-180,30,-60,1,F1703_Grainger,Block_J5-294
2018-10-04 15:13:57,53,0,853.3389999999998,0,150,1,0.25,2,3,0.0,1.0,12,45.0,30.0,3,0.35100000000000003,1.0,854.7810000000002,0.0,0,266,2018-10-04 15:28:10.339,0.25,-90,-180,30,120,1,F1703_Grainger,Block_J5-294
2018-10-04 15:13:57,55,0,870.3960000000002,0,150,1,0.25,2,3,0.0,1.0,12,45.0,30.0,3,0.301,0.0,871.676,0.18,1,266,2018-10-04 15:28:27.396,0.25,90,-180,30,-60,1,F1703_Grainger,Block_J5-294
2018-10-04 15:13:57,56,0,878.492,0,150,1,0.25,2,9,0.0,1.0,6,45.0,30.0,9,0.401,1.0,879.7230000000002,0.23,1,266,2018-10-04 15:28:35.492,0.25,-90,0,-150,120,1,F1703_Grainger,Block_J5-294
2018-10-04 15:13:57,57,0,885.9689999999998,0,150,1,0.25,2,3,0.0,1.0,12,45.0,30.0,3,0.451,0.0,887.525,0.18,1,266,2018-10-04 15:28:42.969,0.25,90,-180,30,-60,1,F1703_Grainger,Block_J5-294
2018-10-04 15:13:57,58,0,891.939,0,150,1,0.25,2,3,0.0,1.0,11,45.0,30.0,3,0.501,0.0,893.288,0.18,1,266,2018-10-04 15:28:48.939,0.25,90,-150,60,-60,0,F1703_Grainger,Block_J5-294
2018-10-04 15:13:57,59,0,899.2539999999998,0,150,1,0.25,2,9,0.0,1.0,6,45.0,30.0,9,0.301,1.0,900.453,0.23,1,266,2018-10-04 15:28:56.254,0.25,-90,0,-150,120,1,F1703_Grainger,Block_J5-294
2018-10-04 15:13:57,60,0,916.776,0,150,1,0.25,2,9,0.0,1.0,6,45.0,30.0,9,0.35100000000000003,1.0,918.05,0.23,1,266,2018-10-04 15:29:13.776,0.25,-90,0,-150,120,1,F1703_Grainger,Block_J5-294
2018-10-04 15:13:57,61,0,926.261,0,150,1,0.25,2,9,0.0,1.0,6,45.0,30.0,9,0.501,1.0,927.318,0.23,1,266,2018-10-04 15:29:23.261,0.25,-90,0,-150,120,1,F1703_Grainger,Block_J5-294
2018-10-04 15:13:57,62,0,941.064,1,150,1,0.25,2,3,0.0,1.0,12,45.0,30.0,3,0.301,1.0,942.605,0.0,0,266,2018-10-04 15:29:38.064,0.25,-90,-180,30,120,1,F1703_Grainger,Block_J5-294
2018-10-04 15:13:57,64,0,975.071,0,150,1,0.25,2,3,0.0,1.0,12,45.0,30.0,3,0.451,0.0,976.352,0.18,1,266,2018-10-04 15:30:12.071,0.25,90,-180,30,-60,1,F1703_Grainger,Block_J5-294
2018-10-04 15:34:03,1,0,94.728,0,150,1,0.25,2,3,0.0,1.0,12,45.0,30.0,3,0.451,1.0,98.12,0.0,0,230,2018-10-04 15:35:37.728,0.25,-90,-180,30,120,1,F1701_Pendleton,Block_J5-310
2018-10-04 15:34:03,3,0,111.634,0,150,1,0.25,2,3,0.0,1.0,12,45.0,30.0,3,0.601,1.0,113.196,0.0,0,230,2018-10-04 15:35:54.634,0.25,-90,-180,30,120,1,F1701_Pendleton,Block_J5-310
2018-10-04 15:34:03,5,0,123.902,1,150,1,0.25,2,3,0.0,1.0,12,45.0,30.0,3,0.376,0.0,126.257,0.2,1,230,2018-10-04 15:36:06.902,0.25,90,-180,30,-60,1,F1701_Pendleton,Block_J5-310
2018-10-04 15:34:03,6,0,150.793,1,150,1,0.25,2,3,0.0,1.0,12,45.0,30.0,3,0.301,0.0,153.366,0.2,1,230,2018-10-04 15:36:33.793,0.25,90,-180,30,-60,1,F1701_Pendleton,Block_J5-310
2018-10-04 15:34:03,7,0,161.306,1,150,1,0.25,2,3,0.0,1.0,12,45.0,30.0,3,0.601,0.0,163.165,0.2,1,230,2018-10-04 15:36:44.306,0.25,90,-180,30,-60,1,F1701_Pendleton,Block_J5-310
2018-10-04 15:34:03,8,0,175.41400000000004,0,150,1,0.25,2,9,0.0,1.0,6,45.0,30.0,9,0.451,0.0,177.245,0.0,0,230,2018-10-04 15:36:58.414,0.25,90,0,-150,-60,1,F1701_Pendleton,Block_J5-310
2018-10-04 15:34:03,11,0,208.39,0,150,1,0.25,2,3,0.0,1.0,12,45.0,30.0,3,0.376,0.0,209.586,0.2,1,230,2018-10-04 15:37:31.390,0.25,90,-180,30,-60,1,F1701_Pendleton,Block_J5-310
2018-10-04 15:34:03,12,0,222.97,1,150,1,0.25,2,3,0.0,1.0,12,45.0,30.0,3,0.526,0.0,225.248,0.2,1,230,2018-10-04 15:37:45.970,0.25,90,-180,30,-60,1,F1701_Pendleton,Block_J5-310
2018-10-04 15:34:03,13,0,236.263,0,150,1,0.25,2,3,0.0,1.0,12,45.0,30.0,3,0.451,1.0,237.931,0.0,0,230,2018-10-04 15:37:59.263,0.25,-90,-180,30,120,1,F1701_Pendleton,Block_J5-310
2018-10-04 15:34:03,15,0,249.393,0,150,1,0.25,2,9,0.0,1.0,6,45.0,30.0,9,0.601,0.0,250.721,0.0,0,230,2018-10-04 15:38:12.393,0.25,90,0,-150,-60,1,F1701_Pendleton,Block_J5-310
2018-10-04 15:34:03,18,0,277.556,0,150,1,0.25,2,9,0.0,1.0,6,45.0,30.0,9,0.451,0.0,278.953,0.0,0,230,2018-10-04 15:38:40.556,0.25,90,0,-150,-60,1,F1701_Pendleton,Block_J5-310
