Trial	CorrectionTrial	StartTime	CenterReward	CenterSpoutRotation	nStimReps	Duration	Modality	LED_Location	LED_trial_V	LED_bgnd_V	Speaker_Location	Speaker_trial_V	Speaker_bgnd_V	TargetSpout	HoldTime	Response	RespTime	ValveTime	Correct	CenterPixelVal	
1	0	35.916	0	120	1	0.250	2	3	0.0	1.0	11	48.0	20.000	3	0.801	3	36.544	0.140	1	255	
2	0	42.325	0	120	1	0.250	2	9	0.0	1.0	5	48.0	20.000	9	0.751	9	42.854	0.140	1	255	
3	0	46.390	0	120	1	0.250	2	3	0.0	1.0	11	48.0	20.000	3	0.651	3	47.128	0.140	1	255	
4	0	50.567	0	120	1	0.250	2	3	0.0	1.0	11	48.0	20.000	3	0.601	3	51.300	0.140	1	255	
5	0	55.071	0	120	1	0.250	2	3	0.0	1.0	11	48.0	20.000	3	0.701	3	55.414	0.140	1	255	
6	0	58.839	0	120	1	0.250	2	3	0.0	1.0	11	48.0	20.000	3	0.601	3	59.476	0.140	1	255	
7	0	63.372	0	120	1	0.250	2	9	0.0	1.0	5	48.0	20.000	9	0.801	9	63.921	0.140	1	255	
8	0	67.890	0	120	1	0.250	2	9	0.0	1.0	5	48.0	20.000	9	0.651	3	68.481	0.000	0	255	
9	1	72.631	0	120	1	0.250	2	9	0.0	1.0	5	48.0	20.000	9	0.751	9	73.113	0.140	1	255	
10	0	76.840	0	120	1	0.250	2	3	0.0	1.0	11	48.0	20.000	3	0.701	9	77.309	0.000	0	255	
11	1	82.503	0	120	1	0.250	2	3	0.0	1.0	11	48.0	20.000	3	0.601	3	83.264	0.140	1	255	
12	0	89.301	0	120	1	0.250	2	3	0.0	1.0	11	48.0	20.000	3	0.801	3	89.994	0.140	1	255	
13	0	94.064	0	120	1	0.250	2	9	0.0	1.0	5	48.0	20.000	9	0.751	3	94.570	0.000	0	255	
14	1	98.767	0	120	1	0.250	2	9	0.0	1.0	5	48.0	20.000	9	0.701	9	99.326	0.140	1	255	
15	0	102.947	0	120	1	0.250	2	3	0.0	1.0	11	48.0	20.000	3	0.651	3	103.665	0.140	1	255	
16	0	107.262	0	120	1	0.250	2	9	0.0	1.0	3	48.0	20.000	9	0.801	9	107.654	0.140	1	255	
17	0	110.920	0	120	1	0.250	2	9	0.0	1.0	5	48.0	20.000	9	0.601	9	111.714	0.140	1	255	
18	0	115.110	0	120	1	0.250	2	9	0.0	1.0	5	48.0	20.000	9	0.701	9	115.943	0.140	1	255	
19	0	119.371	0	120	1	0.250	2	9	0.0	1.0	5	48.0	20.000	9	0.651	3	120.350	0.000	0	255	
20	1	124.206	0	120	1	0.250	2	9	0.0	1.0	5	48.0	20.000	9	0.751	9	124.738	0.140	1	255	
21	0	128.148	0	120	1	0.250	2	3	0.0	1.0	11	48.0	20.000	3	0.601	9	128.777	0.000	0	255	
22	1	138.746	0	120	1	0.250	2	3	0.0	1.0	11	48.0	20.000	3	0.751	3	139.521	0.140	1	255	
23	0	142.507	0	120	1	0.250	2	3	0.0	1.0	11	48.0	20.000	3	0.651	3	143.115	0.140	1	255	
24	0	146.340	0	120	1	0.250	2	9	0.0	1.0	5	48.0	20.000	9	0.701	9	146.823	0.140	1	255	
25	0	150.157	0	120	1	0.250	2	9	0.0	1.0	5	48.0	20.000	9	0.801	9	150.822	0.140	1	255	
26	0	154.379	0	120	1	0.250	2	3	0.0	1.0	11	48.0	20.000	3	0.751	3	155.527	0.140	1	255	
27	0	158.436	0	120	1	0.250	2	3	0.0	1.0	11	48.0	20.000	3	0.601	9	159.568	0.000	0	255	
28	1	164.808	0	120	1	0.250	2	3	0.0	1.0	11	48.0	20.000	3	0.701	3	165.702	0.140	1	255	
29	0	168.816	0	120	1	0.250	2	9	0.0	1.0	5	48.0	20.000	9	0.651	9	169.199	0.140	1	255	
30	0	172.602	0	120	1	0.250	2	9	0.0	1.0	12	48.0	20.000	9	0.801	3	173.554	0.000	0	255	
31	0	176.829	0	120	1	0.250	2	3	0.0	1.0	11	48.0	20.000	3	0.651	3	177.733	0.140	1	255	
32	0	181.139	0	120	1	0.250	2	9	0.0	1.0	5	48.0	20.000	9	0.801	9	181.628	0.140	1	255	
33	0	184.991	0	120	1	0.250	2	9	0.0	1.0	5	48.0	20.000	9	0.601	9	185.717	0.140	1	255	
34	0	189.233	0	120	1	0.250	2	3	0.0	1.0	11	48.0	20.000	3	0.751	3	190.327	0.140	1	255	
35	0	193.648	0	120	1	0.250	2	3	0.0	1.0	11	48.0	20.000	3	0.701	3	194.244	0.140	1	255	
36	0	197.152	0	120	1	0.250	2	3	0.0	1.0	11	48.0	20.000	3	0.601	3	198.127	0.140	1	255	
37	0	201.684	0	120	1	0.250	2	9	0.0	1.0	1	48.0	20.000	9	0.701	3	202.645	0.000	0	255	
38	0	206.006	0	120	1	0.250	2	9	0.0	1.0	5	48.0	20.000	9	0.651	9	206.467	0.140	1	255	
39	0	210.091	0	120	1	0.250	2	3	0.0	1.0	11	48.0	20.000	3	0.751	3	210.969	0.140	1	255	
40	0	214.563	0	120	1	0.250	2	3	0.0	1.0	11	48.0	20.000	3	0.801	3	216.278	0.140	1	255	
41	0	219.803	0	120	1	0.250	2	9	0.0	1.0	5	48.0	20.000	9	0.651	3	220.863	0.000	0	255	
42	1	225.191	0	120	1	0.250	2	9	0.0	1.0	5	48.0	20.000	9	0.601	9	225.987	0.140	1	255	
43	0	229.894	0	120	1	0.250	2	3	0.0	1.0	11	48.0	20.000	3	0.801	3	231.299	0.140	1	255	
44	0	234.780	0	120	1	0.250	2	3	0.0	1.0	10	48.0	20.000	3	0.701	9	235.501	0.000	0	255	
45	0	238.858	0	120	1	0.250	2	9	0.0	1.0	8	48.0	20.000	9	0.751	9	239.623	0.140	1	255	
46	0	242.929	0	120	1	0.250	2	9	0.0	1.0	5	48.0	20.000	9	0.701	9	243.699	0.140	1	255	
47	0	247.153	0	120	1	0.250	2	9	0.0	1.0	5	48.0	20.000	9	0.601	9	248.253	0.140	1	255	
48	0	251.741	0	120	1	0.250	2	3	0.0	1.0	11	48.0	20.000	3	0.801	9	252.725	0.000	0	255	
49	1	258.325	0	120	1	0.250	2	3	0.0	1.0	11	48.0	20.000	3	0.751	3	259.058	0.140	1	255	
50	0	262.476	0	120	1	0.250	2	3	0.0	1.0	1	48.0	20.000	3	0.651	3	263.181	0.140	1	255	
51	0	266.444	0	120	1	0.250	2	9	0.0	1.0	3	48.0	20.000	9	0.601	3	267.445	0.000	0	255	
52	0	270.526	0	120	1	0.250	2	3	0.0	1.0	11	48.0	20.000	3	0.801	3	272.004	0.140	1	255	
53	0	275.480	0	120	1	0.250	2	9	0.0	1.0	5	48.0	20.000	9	0.701	9	276.052	0.140	1	255	
54	0	279.756	0	120	1	0.250	2	3	0.0	1.0	9	48.0	20.000	3	0.751	3	281.275	0.140	1	255	
55	0	284.648	0	120	1	0.250	2	3	0.0	1.0	6	48.0	20.000	3	0.651	9	285.306	0.000	0	255	
56	0	289.221	0	120	1	0.250	2	3	0.0	1.0	11	48.0	20.000	3	0.801	3	290.056	0.140	1	255	
57	0	293.319	0	120	1	0.250	2	3	0.0	1.0	11	48.0	20.000	3	0.601	3	294.199	0.140	1	255	
58	0	297.343	0	120	1	0.250	2	3	0.0	1.0	3	48.0	20.000	3	0.651	9	298.063	0.000	0	255	
59	0	301.507	0	120	1	0.250	2	9	0.0	1.0	5	48.0	20.000	9	0.751	3	302.509	0.000	0	255	
60	1	306.403	0	120	1	0.250	2	9	0.0	1.0	5	48.0	20.000	9	0.701	9	307.055	0.140	1	255	
61	0	310.411	0	120	1	0.250	2	9	0.0	1.0	6	48.0	20.000	9	0.801	9	311.152	0.140	1	255	
62	0	314.324	0	120	1	0.250	2	3	0.0	1.0	11	48.0	20.000	3	0.651	3	315.434	0.140	1	255	
63	0	318.524	0	120	1	0.250	2	9	0.0	1.0	5	48.0	20.000	9	0.601	9	319.156	0.140	1	255	
64	0	322.502	0	120	1	0.250	2	3	0.0	1.0	11	48.0	20.000	3	0.751	3	323.936	0.140	1	255	
65	0	326.877	0	120	1	0.250	2	9	0.0	1.0	5	48.0	20.000	9	0.701	9	327.438	0.140	1	255	
66	0	330.642	0	120	1	0.250	2	9	0.0	1.0	7	48.0	20.000	9	0.651	9	331.713	0.140	1	255	
67	0	335.129	0	120	1	0.250	2	9	0.0	1.0	5	48.0	20.000	9	0.701	3	336.256	0.000	0	255	
68	1	340.685	0	120	1	0.250	2	9	0.0	1.0	5	48.0	20.000	9	0.601	9	341.206	0.140	1	255	
69	0	348.896	0	120	1	0.250	2	9	0.0	1.0	5	48.0	20.000	9	0.801	9	349.234	0.140	1	255	
70	0	352.535	0	120	1	0.250	2	9	0.0	1.0	5	48.0	20.000	9	0.751	3	353.422	0.000	0	255	
71	1	358.543	0	120	1	0.250	2	9	0.0	1.0	5	48.0	20.000	9	0.751	9	359.373	0.140	1	255	
72	0	362.715	0	120	1	0.250	2	9	0.0	1.0	5	48.0	20.000	9	0.801	3	363.617	0.000	0	255	
73	1	368.773	0	120	1	0.250	2	9	0.0	1.0	5	48.0	20.000	9	0.651	9	369.504	0.140	1	255	
74	0	373.482	0	120	1	0.250	2	9	0.0	1.0	5	48.0	20.000	9	0.701	3	374.652	0.000	0	255	
75	1	379.169	0	120	1	0.250	2	9	0.0	1.0	5	48.0	20.000	9	0.601	9	379.756	0.140	1	255	
76	0	383.655	0	120	1	0.250	2	3	0.0	1.0	11	48.0	20.000	3	0.801	3	384.462	0.140	1	255	
77	0	387.634	0	120	1	0.250	2	3	0.0	1.0	11	48.0	20.000	3	0.751	9	388.262	0.000	0	255	
78	1	394.066	0	120	1	0.250	2	3	0.0	1.0	11	48.0	20.000	3	0.651	3	394.872	0.140	1	255	
79	0	398.404	0	120	1	0.250	2	3	0.0	1.0	11	48.0	20.000	3	0.701	3	399.346	0.140	1	255	
80	0	402.897	0	120	1	0.250	2	9	0.0	1.0	5	48.0	20.000	9	0.601	9	403.260	0.140	1	255	
81	0	406.521	0	120	1	0.250	2	3	0.0	1.0	4	48.0	20.000	3	0.701	3	407.616	0.140	1	255	
82	0	410.796	0	120	1	0.250	2	9	0.0	1.0	5	48.0	20.000	9	0.601	3	411.868	0.000	0	255	
83	1	416.822	0	120	1	0.250	2	9	0.0	1.0	5	48.0	20.000	9	0.751	9	417.284	0.140	1	255	
84	0	420.190	0	120	1	0.250	2	3	0.0	1.0	11	48.0	20.000	3	0.651	9	421.089	0.000	0	255	
85	1	425.257	0	120	1	0.250	2	3	0.0	1.0	11	48.0	20.000	3	0.801	3	425.934	0.140	1	255	
86	0	428.745	0	120	1	0.250	2	3	0.0	1.0	11	48.0	20.000	3	0.601	3	429.538	0.140	1	255	
87	0	432.983	0	120	1	0.250	2	3	0.0	1.0	11	48.0	20.000	3	0.701	3	434.069	0.140	1	255	
88	0	437.303	0	120	1	0.250	2	3	0.0	1.0	2	48.0	20.000	3	0.651	9	437.734	0.000	0	255	
89	0	440.936	0	120	1	0.250	2	9	0.0	1.0	5	48.0	20.000	9	0.801	9	441.692	0.140	1	255	
90	0	444.925	0	120	1	0.250	2	9	0.0	1.0	5	48.0	20.000	9	0.751	9	445.611	0.140	1	255	
91	0	449.499	0	120	1	0.250	2	9	0.0	1.0	9	48.0	20.000	9	0.751	3	451.586	0.000	0	255	
92	0	454.263	0	120	1	0.250	2	3	0.0	1.0	7	48.0	20.000	3	0.601	3	455.406	0.140	1	255	
93	0	460.245	0	120	1	0.250	2	9	0.0	1.0	5	48.0	20.000	9	0.801	3	460.795	0.000	0	255	
94	1	464.919	0	120	1	0.250	2	9	0.0	1.0	5	48.0	20.000	9	0.651	9	465.627	0.140	1	255	
95	0	471.728	0	120	1	0.250	2	3	0.0	1.0	11	48.0	20.000	3	0.701	3	472.753	0.140	1	255	
96	0	475.927	0	120	1	0.250	2	9	0.0	1.0	5	48.0	20.000	9	0.651	9	476.080	0.140	1	255	
97	0	479.662	0	120	1	0.250	2	9	0.0	1.0	5	48.0	20.000	9	0.801	9	480.280	0.140	1	255	
98	0	483.808	0	120	1	0.250	2	9	0.0	1.0	5	48.0	20.000	9	0.701	9	485.262	0.140	1	255	
99	0	489.009	0	120	1	0.250	2	3	0.0	1.0	1	48.0	20.000	3	0.601	3	489.529	0.140	1	255	
100	0	492.344	0	120	1	0.250	2	9	0.0	1.0	5	48.0	20.000	9	0.751	9	493.078	0.140	1	255	
101	0	499.430	0	120	1	0.250	2	9	0.0	1.0	5	48.0	20.000	9	0.701	9	500.525	0.140	1	255	
102	0	503.899	0	120	1	0.250	2	9	0.0	1.0	5	48.0	20.000	9	0.651	3	505.073	0.000	0	255	
103	1	509.892	0	120	1	0.250	2	9	0.0	1.0	5	48.0	20.000	9	0.801	9	510.651	0.140	1	255	
104	0	516.935	0	120	1	0.250	2	3	0.0	1.0	1	48.0	20.000	3	0.751	3	518.015	0.140	1	255	
105	0	521.008	0	120	1	0.250	2	9	0.0	1.0	5	48.0	20.000	9	0.601	9	521.572	0.140	1	255	
106	0	525.059	0	120	1	0.250	2	9	0.0	1.0	10	48.0	20.000	9	0.651	3	526.180	0.000	0	255	
107	0	529.616	0	120	1	0.250	2	9	0.0	1.0	5	48.0	20.000	9	0.701	3	530.174	0.000	0	255	
108	1	535.203	0	120	1	0.250	2	9	0.0	1.0	5	48.0	20.000	9	0.801	9	535.752	0.140	1	255	
109	0	539.166	0	120	1	0.250	2	9	0.0	1.0	5	48.0	20.000	9	0.751	9	539.917	0.140	1	255	
110	0	543.731	0	120	1	0.250	2	3	0.0	1.0	11	48.0	20.000	3	0.601	3	544.971	0.140	1	255	
111	0	550.961	0	120	1	0.250	2	9	0.0	1.0	5	48.0	20.000	9	0.701	3	551.596	0.000	0	255	
112	1	556.328	0	120	1	0.250	2	9	0.0	1.0	5	48.0	20.000	9	0.801	3	556.734	0.000	0	255	
113	1	561.780	0	120	1	0.250	2	9	0.0	1.0	5	48.0	20.000	9	0.651	9	562.924	0.140	1	255	
114	0	566.748	0	120	1	0.250	2	3	0.0	1.0	11	48.0	20.000	3	0.751	3	567.489	0.140	1	255	
115	0	570.449	0	120	1	0.250	2	3	0.0	1.0	3	48.0	20.000	3	0.601	3	571.338	0.140	1	255	
116	0	574.592	0	120	1	0.250	2	3	0.0	1.0	11	48.0	20.000	3	0.751	3	575.941	0.140	1	255	
117	0	579.157	0	120	1	0.250	2	9	0.0	1.0	5	48.0	20.000	9	0.601	9	579.978	0.140	1	255	
118	0	583.267	0	120	1	0.250	2	3	0.0	1.0	11	48.0	20.000	3	0.801	3	584.485	0.140	1	255	
119	0	587.432	0	120	1	0.250	2	3	0.0	1.0	11	48.0	20.000	3	0.651	3	588.493	0.140	1	255	
120	0	591.976	0	120	1	0.250	2	3	0.0	1.0	11	48.0	20.000	3	0.701	3	592.590	0.140	1	255	
121	0	595.885	0	120	1	0.250	2	3	0.0	1.0	12	48.0	20.000	3	0.701	3	597.350	0.140	1	255	
122	0	600.421	0	120	1	0.250	2	9	0.0	1.0	5	48.0	20.000	9	0.751	9	600.872	0.140	1	255	
123	0	604.053	1	120	1	0.250	2	3	0.0	1.0	11	48.0	20.000	3	0.651	3	608.301	0.140	1	255	
124	0	610.979	0	120	1	0.250	2	3	0.0	1.0	11	48.0	20.000	3	0.601	3	612.746	0.140	1	255	
125	0	615.886	0	120	1	0.250	2	9	0.0	1.0	5	48.0	20.000	9	0.801	3	617.067	0.000	0	255	
126	1	623.853	0	120	1	0.250	2	9	0.0	1.0	5	48.0	20.000	9	0.651	9	624.695	0.140	1	255	
127	0	628.254	0	120	1	0.250	2	3	0.0	1.0	11	48.0	20.000	3	0.601	3	630.365	0.140	1	255	
128	0	633.603	0	120	1	0.250	2	3	0.0	1.0	11	48.0	20.000	3	0.751	3	635.086	0.140	1	255	
129	0	638.122	0	120	1	0.250	2	9	0.0	1.0	5	48.0	20.000	9	0.801	9	638.829	0.140	1	255	
130	0	642.194	0	120	1	0.250	2	9	0.0	1.0	5	48.0	20.000	9	0.701	9	643.545	0.140	1	255	
131	0	646.654	0	120	1	0.250	2	3	0.0	1.0	11	48.0	20.000	3	0.601	3	648.187	0.140	1	255	
132	0	651.175	0	120	1	0.250	2	3	0.0	1.0	11	48.0	20.000	3	0.801	3	652.621	0.140	1	255	
133	0	655.594	0	120	1	0.250	2	3	0.0	1.0	11	48.0	20.000	3	0.751	3	656.641	0.140	1	255	
134	0	659.896	0	120	1	0.250	2	9	0.0	1.0	5	48.0	20.000	9	0.651	9	661.046	0.140	1	255	
135	0	664.119	0	120	1	0.250	2	9	0.0	1.0	5	48.0	20.000	9	0.701	9	665.136	0.140	1	255	
136	0	668.255	0	120	1	0.250	2	3	0.0	1.0	11	48.0	20.000	3	0.601	3	669.869	0.140	1	255	
137	0	672.835	0	120	1	0.250	2	9	0.0	1.0	5	48.0	20.000	9	0.701	9	673.369	0.140	1	255	
138	0	676.976	0	120	1	0.250	2	9	0.0	1.0	5	48.0	20.000	9	0.651	3	678.818	0.000	0	255	
139	1	684.097	0	120	1	0.250	2	9	0.0	1.0	5	48.0	20.000	9	0.801	9	684.795	0.140	1	255	
140	0	688.416	0	120	1	0.250	2	3	0.0	1.0	1	48.0	20.000	3	0.751	3	690.000	0.140	1	255	
141	0	693.363	1	120	1	0.250	2	3	0.0	1.0	11	48.0	20.000	3	0.801	3	697.792	0.140	1	255	
142	0	700.814	0	120	1	0.250	2	9	0.0	1.0	4	48.0	20.000	9	0.601	9	701.610	0.140	1	255	
143	0	704.967	0	120	1	0.250	2	9	0.0	1.0	5	48.0	20.000	9	0.651	3	706.324	0.000	0	255	
144	1	711.349	0	120	1	0.250	2	9	0.0	1.0	5	48.0	20.000	9	0.701	3	712.631	0.000	0	255	
145	1	720.194	0	120	1	0.250	2	9	0.0	1.0	5	48.0	20.000	9	0.751	9	720.948	0.140	1	255	
146	0	724.578	0	120	1	0.250	2	9	0.0	1.0	4	48.0	20.000	9	0.751	3	725.569	0.000	0	255	
147	0	728.704	0	120	1	0.250	2	3	0.0	1.0	11	48.0	20.000	3	0.801	3	729.666	0.140	1	255	
148	0	732.613	0	120	1	0.250	2	3	0.0	1.0	11	48.0	20.000	3	0.701	3	733.598	0.140	1	255	
149	0	736.560	0	120	1	0.250	2	3	0.0	1.0	11	48.0	20.000	3	0.651	3	737.632	0.140	1	255	
150	0	740.789	0	120	1	0.250	2	9	0.0	1.0	5	48.0	20.000	9	0.601	9	741.703	0.140	1	255	
151	0	745.656	0	120	1	0.250	2	3	0.0	1.0	11	48.0	20.000	3	0.751	3	746.771	0.140	1	255	
152	0	750.191	0	120	1	0.250	2	9	0.0	1.0	1	48.0	20.000	9	0.801	3	751.021	0.000	0	255	
153	0	754.056	0	120	1	0.250	2	9	0.0	1.0	5	48.0	20.000	9	0.651	9	754.942	0.140	1	255	
154	0	757.799	0	120	1	0.250	2	3	0.0	1.0	11	48.0	20.000	3	0.701	3	758.770	0.140	1	255	
155	0	761.774	0	120	1	0.250	2	3	0.0	1.0	11	48.0	20.000	3	0.601	3	762.846	0.140	1	255	
156	0	765.577	0	120	1	0.250	2	3	0.0	1.0	7	48.0	20.000	3	0.701	3	766.737	0.140	1	255	
157	0	769.414	0	120	1	0.250	2	9	0.0	1.0	5	48.0	20.000	9	0.601	3	771.062	0.000	0	255	
158	1	776.383	0	120	1	0.250	2	9	0.0	1.0	5	48.0	20.000	9	0.801	9	777.155	0.140	1	255	
159	0	780.565	0	120	1	0.250	2	9	0.0	1.0	5	48.0	20.000	9	0.651	9	781.293	0.140	1	255	
160	0	784.357	0	120	1	0.250	2	9	0.0	1.0	5	48.0	20.000	9	0.751	9	785.089	0.140	1	255	
161	0	788.551	0	120	1	0.250	2	3	0.0	1.0	10	48.0	20.000	3	0.801	3	789.287	0.140	1	255	
162	0	792.141	0	120	1	0.250	2	9	0.0	1.0	5	48.0	20.000	9	0.651	9	792.562	0.140	1	255	
163	0	795.816	0	120	1	0.250	2	3	0.0	1.0	11	48.0	20.000	3	0.751	3	797.302	0.140	1	255	
164	0	800.133	0	120	1	0.250	2	3	0.0	1.0	11	48.0	20.000	3	0.701	3	801.087	0.140	1	255	
165	0	804.311	0	120	1	0.250	2	9	0.0	1.0	5	48.0	20.000	9	0.601	9	805.061	0.140	1	255	
166	0	808.387	0	120	1	0.250	2	9	0.0	1.0	3	48.0	20.000	9	0.601	3	809.545	0.000	0	255	
167	0	812.678	0	120	1	0.250	2	3	0.0	1.0	11	48.0	20.000	3	0.801	3	814.266	0.140	1	255	
168	0	817.284	0	120	1	0.250	2	3	0.0	1.0	11	48.0	20.000	3	0.651	3	818.476	0.140	1	255	
169	0	821.280	0	120	1	0.250	2	3	0.0	1.0	7	48.0	20.000	3	0.701	9	821.889	0.000	0	255	
170	0	825.099	0	120	1	0.250	2	9	0.0	1.0	5	48.0	20.000	9	0.751	9	825.927	0.140	1	255	
171	0	829.019	0	120	1	0.250	2	9	0.0	1.0	5	48.0	20.000	9	0.751	3	829.855	0.000	0	255	
172	1	836.721	0	120	1	0.250	2	9	0.0	1.0	5	48.0	20.000	9	0.651	9	837.355	0.140	1	255	
173	0	840.660	0	120	1	0.250	2	9	0.0	1.0	5	48.0	20.000	9	0.701	9	841.181	0.140	1	255	
174	0	844.452	0	120	1	0.250	2	9	0.0	1.0	5	48.0	20.000	9	0.801	3	845.293	0.000	0	255	
175	1	849.102	0	120	1	0.250	2	9	0.0	1.0	5	48.0	20.000	9	0.601	9	849.892	0.140	1	255	
176	0	853.578	0	120	1	0.250	2	3	0.0	1.0	11	48.0	20.000	3	0.751	3	854.538	0.140	1	255	
177	0	857.507	0	120	1	0.250	2	3	0.0	1.0	11	48.0	20.000	3	0.601	3	858.690	0.140	1	255	
178	0	861.250	0	120	1	0.250	2	3	0.0	1.0	11	48.0	20.000	3	0.651	3	862.283	0.140	1	255	
179	0	865.135	0	120	1	0.250	2	9	0.0	1.0	5	48.0	20.000	9	0.801	9	865.636	0.140	1	255	
180	0	869.118	0	120	1	0.250	2	9	0.0	1.0	5	48.0	20.000	9	0.701	3	870.259	0.000	0	255	
181	1	874.243	0	120	1	0.250	2	9	0.0	1.0	5	48.0	20.000	9	0.751	9	874.785	0.140	1	255	
182	0	878.142	0	120	1	0.250	2	9	0.0	1.0	5	48.0	20.000	9	0.651	3	879.484	0.000	0	255	
183	1	885.782	0	120	1	0.250	2	9	0.0	1.0	5	48.0	20.000	9	0.601	3	886.813	0.000	0	255	
184	1	892.061	0	120	1	0.250	2	9	0.0	1.0	5	48.0	20.000	9	0.701	9	892.861	0.140	1	255	
185	0	896.409	0	120	1	0.250	2	3	0.0	1.0	11	48.0	20.000	3	0.801	3	897.130	0.140	1	255	
186	0	900.038	0	120	1	0.250	2	3	0.0	1.0	4	48.0	20.000	3	0.601	3	900.845	0.140	1	255	
187	0	903.584	0	120	1	0.250	2	3	0.0	1.0	11	48.0	20.000	3	0.651	3	904.040	0.140	1	255	
188	0	907.152	0	120	1	0.250	2	3	0.0	1.0	11	48.0	20.000	3	0.751	3	908.120	0.140	1	255	
189	0	910.602	0	120	1	0.250	2	9	0.0	1.0	3	48.0	20.000	9	0.701	9	911.301	0.140	1	255	
190	0	914.581	0	120	1	0.250	2	9	0.0	1.0	5	48.0	20.000	9	0.801	9	915.357	0.140	1	255	
191	0	918.427	0	120	1	0.250	2	9	0.0	1.0	5	48.0	20.000	9	0.801	3	919.404	0.000	0	255	
192	1	923.984	0	120	1	0.250	2	9	0.0	1.0	5	48.0	20.000	9	0.651	9	924.910	0.140	1	255	
193	0	927.924	0	120	1	0.250	2	9	0.0	1.0	2	48.0	20.000	9	0.701	3	928.967	0.000	0	255	
194	0	931.564	0	120	1	0.250	2	3	0.0	1.0	11	48.0	20.000	3	0.601	3	932.823	0.140	1	255	
195	0	935.870	0	120	1	0.250	2	9	0.0	1.0	5	48.0	20.000	9	0.751	9	936.778	0.140	1	255	
196	0	939.890	0	120	1	0.250	2	9	0.0	1.0	5	48.0	20.000	9	0.701	3	940.982	0.000	0	255	
197	1	949.029	0	120	1	0.250	2	9	0.0	1.0	5	48.0	20.000	9	0.651	9	949.634	0.140	1	255	
198	0	953.875	0	120	1	0.250	2	3	0.0	1.0	11	48.0	20.000	3	0.801	3	954.833	0.140	1	255	
199	0	957.397	0	120	1	0.250	2	3	0.0	1.0	2	48.0	20.000	3	0.601	3	958.306	0.140	1	255	
200	0	961.297	0	120	1	0.250	2	3	0.0	1.0	11	48.0	20.000	3	0.751	3	961.991	0.140	1	255	
201	0	964.808	0	120	1	0.250	2	3	0.0	1.0	11	48.0	20.000	3	0.651	3	965.677	0.140	1	255	
202	0	968.634	0	120	1	0.250	2	3	0.0	1.0	11	48.0	20.000	3	0.751	3	969.363	0.140	1	255	
203	0	972.128	0	120	1	0.250	2	3	0.0	1.0	11	48.0	20.000	3	0.701	3	973.010	0.140	1	255	
204	0	976.183	0	120	1	0.250	2	3	0.0	1.0	6	48.0	20.000	3	0.601	9	977.368	0.000	0	255	
205	0	980.555	0	120	1	0.250	2	9	0.0	1.0	5	48.0	20.000	9	0.801	9	981.132	0.150	1	255	
206	0	984.405	0	120	1	0.250	2	3	0.0	1.0	11	48.0	20.000	3	0.651	3	985.371	0.140	1	255	
207	0	988.395	0	120	1	0.250	2	3	0.0	1.0	11	48.0	20.000	3	0.701	3	989.169	0.140	1	255	
208	0	992.176	0	120	1	0.250	2	9	0.0	1.0	5	48.0	20.000	9	0.601	9	992.702	0.150	1	255	
209	0	1000.888	0	120	1	0.250	2	9	0.0	1.0	5	48.0	20.000	9	0.801	9	1001.380	0.150	1	255	
210	0	1007.869	0	120	1	0.250	2	9	0.0	1.0	6	48.0	20.000	9	0.751	9	1008.188	0.150	1	255	
211	0	1011.015	0	120	1	0.250	2	9	0.0	1.0	5	48.0	20.000	9	0.601	9	1011.951	0.150	1	255	
212	0	1015.185	0	120	1	0.250	2	9	0.0	1.0	5	48.0	20.000	9	0.801	3	1016.324	0.000	0	255	
213	1	1036.998	0	120	1	0.250	2	9	0.0	1.0	5	48.0	20.000	9	0.751	3	1036.923	0.000	0	255	
214	1	1043.118	0	120	1	0.250	2	9	0.0	1.0	5	48.0	20.000	9	0.651	9	1043.488	0.150	1	255	
215	0	1047.249	0	120	1	0.250	2	9	0.0	1.0	6	48.0	20.000	9	0.701	3	1047.714	0.000	0	255	
216	0	1051.126	0	120	1	0.250	2	3	0.0	1.0	11	48.0	20.000	3	0.601	9	1051.635	0.000	0	255	
217	1	1057.362	0	120	1	0.250	2	3	0.0	1.0	11	48.0	20.000	3	0.751	3	1057.898	0.140	1	255	
218	0	1060.719	0	120	1	0.250	2	3	0.0	1.0	11	48.0	20.000	3	0.801	3	1061.309	0.140	1	255	
219	0	1063.989	0	120	1	0.250	2	9	0.0	1.0	5	48.0	20.000	9	0.701	9	1064.384	0.150	1	255	
220	0	1067.618	0	120	1	0.250	2	3	0.0	1.0	11	48.0	20.000	3	0.651	3	1068.415	0.140	1	255	
221	0	1070.799	0	120	1	0.250	2	9	0.0	1.0	5	48.0	20.000	9	0.601	9	1071.197	0.150	1	255	
222	0	1074.453	0	120	1	0.250	2	9	0.0	1.0	5	48.0	20.000	9	0.801	9	1075.070	0.150	1	255	
223	0	1078.639	0	120	1	0.250	2	3	0.0	1.0	11	48.0	20.000	3	0.751	3	1079.454	0.140	1	255	
224	0	1082.097	0	120	1	0.250	2	3	0.0	1.0	11	48.0	20.000	3	0.651	3	1083.120	0.140	1	255	
225	0	1085.692	0	120	1	0.250	2	3	0.0	1.0	11	48.0	20.000	3	0.701	3	1086.506	0.140	1	255	
226	0	1089.496	0	120	1	0.250	2	9	0.0	1.0	5	48.0	20.000	9	0.701	9	1089.958	0.150	1	255	
227	0	1093.463	0	120	1	0.250	2	9	0.0	1.0	5	48.0	20.000	9	0.801	9	1093.879	0.150	1	255	
228	0	1097.106	0	120	1	0.250	2	9	0.0	1.0	8	48.0	20.000	9	0.651	3	1097.971	0.000	0	255	
229	0	1100.943	0	120	1	0.250	2	3	0.0	1.0	11	48.0	20.000	3	0.601	3	1101.717	0.140	1	255	
230	0	1105.069	0	120	1	0.250	2	9	0.0	1.0	5	48.0	20.000	9	0.751	9	1105.709	0.150	1	255	
231	0	1109.122	0	120	1	0.250	2	3	0.0	1.0	11	48.0	20.000	3	0.751	3	1109.998	0.140	1	255	
232	0	1112.596	0	120	1	0.250	2	3	0.0	1.0	8	48.0	20.000	3	0.651	3	1113.479	0.140	1	255	
233	0	1116.187	0	120	1	0.250	2	9	0.0	1.0	5	48.0	20.000	9	0.701	9	1116.401	0.150	1	255	
234	0	1120.029	0	120	1	0.250	2	9	0.0	1.0	5	48.0	20.000	9	0.601	9	1120.992	0.150	1	255	
235	0	1122.960	0	120	1	0.250	2	9	0.0	1.0	5	48.0	20.000	9	0.801	3	1123.437	0.000	0	255	
236	1	1128.125	0	120	1	0.250	2	9	0.0	1.0	5	48.0	20.000	9	0.651	9	1128.553	0.150	1	255	
237	0	1134.938	0	120	1	0.250	2	3	0.0	1.0	9	48.0	20.000	3	0.751	3	1135.825	0.140	1	255	
238	0	1138.376	0	120	1	0.250	2	3	0.0	1.0	11	48.0	20.000	3	0.701	9	1138.862	0.000	0	255	
239	1	1142.887	0	120	1	0.250	2	3	0.0	1.0	11	48.0	20.000	3	0.801	3	1143.516	0.140	1	255	
240	0	1146.561	0	120	1	0.250	2	9	0.0	1.0	5	48.0	20.000	9	0.601	9	1147.120	0.150	1	255	
241	0	1149.982	0	120	1	0.250	2	3	0.0	1.0	11	48.0	20.000	3	0.701	3	1150.828	0.140	1	255	
242	0	1153.549	0	120	1	0.250	2	3	0.0	1.0	3	48.0	20.000	3	0.801	3	1154.490	0.140	1	255	
243	0	1157.410	0	120	1	0.250	2	9	0.0	1.0	5	48.0	20.000	9	0.651	9	1158.195	0.150	1	255	
244	0	1161.914	0	120	1	0.250	2	9	0.0	1.0	5	48.0	20.000	9	0.601	9	1162.406	0.150	1	255	
245	0	1166.242	0	120	1	0.250	2	9	0.0	1.0	5	48.0	20.000	9	0.751	9	1166.716	0.150	1	255	
246	0	1170.043	0	120	1	0.250	2	9	0.0	1.0	5	48.0	20.000	9	0.701	3	1170.785	0.000	0	255	
247	1	1175.176	0	120	1	0.250	2	9	0.0	1.0	5	48.0	20.000	9	0.651	9	1175.597	0.150	1	255	
248	0	1178.171	0	120	1	0.250	2	3	0.0	1.0	1	48.0	20.000	3	0.601	3	1179.113	0.140	1	255	
249	0	1181.939	0	120	1	0.250	2	9	0.0	1.0	8	48.0	20.000	9	0.801	3	1182.227	0.000	0	255	
250	0	1185.031	0	120	1	0.250	2	9	0.0	1.0	5	48.0	20.000	9	0.751	9	1185.435	0.150	1	255	
251	0	1188.599	0	120	1	0.250	2	3	0.0	1.0	11	48.0	20.000	3	0.801	3	1189.483	0.140	1	255	
252	0	1192.109	0	120	1	0.250	2	9	0.0	1.0	5	48.0	20.000	9	0.651	9	1192.862	0.150	1	255	
253	0	1196.481	0	120	1	0.250	2	9	0.0	1.0	5	48.0	20.000	9	0.751	9	1197.282	0.150	1	255	
254	0	1200.679	0	120	1	0.250	2	3	0.0	1.0	11	48.0	20.000	3	0.701	3	1201.519	0.140	1	255	
255	0	1204.676	0	120	1	0.250	2	3	0.0	1.0	11	48.0	20.000	3	0.601	9	1205.332	0.000	0	255	
256	1	1210.943	0	120	1	0.250	2	3	0.0	1.0	11	48.0	20.000	3	0.751	3	1211.872	0.140	1	255	
257	0	1214.316	0	120	1	0.250	2	3	0.0	1.0	11	48.0	20.000	3	0.601	3	1215.036	0.140	1	255	
258	0	1217.647	0	120	1	0.250	2	3	0.0	1.0	11	48.0	20.000	3	0.651	3	1218.597	0.140	1	255	
259	0	1221.406	0	120	1	0.250	2	9	0.0	1.0	2	48.0	20.000	9	0.701	3	1222.086	0.000	0	255	
260	0	1224.946	0	120	1	0.250	2	3	0.0	1.0	11	48.0	20.000	3	0.801	3	1225.703	0.140	1	255	
261	0	1230.796	0	120	1	0.250	2	3	0.0	1.0	8	48.0	20.000	3	0.651	9	1231.407	0.000	0	255	
262	0	1234.446	0	120	1	0.250	2	3	0.0	1.0	11	48.0	20.000	3	0.601	3	1235.561	0.140	1	255	
263	0	1239.389	0	120	1	0.250	2	3	0.0	1.0	11	48.0	20.000	3	0.751	3	1239.731	0.140	1	255	
264	0	1242.333	0	120	1	0.250	2	3	0.0	1.0	11	48.0	20.000	3	0.701	3	1243.095	0.140	1	255	
265	0	1245.816	0	120	1	0.250	2	9	0.0	1.0	8	48.0	20.000	9	0.801	9	1246.432	0.150	1	255	
266	0	1249.993	1	120	1	0.250	2	9	0.0	1.0	5	48.0	20.000	9	0.701	9	1253.690	0.150	1	255	
267	0	1257.738	0	120	1	0.250	2	3	0.0	1.0	11	48.0	20.000	3	0.801	3	1258.782	0.140	1	255	
268	0	1261.560	0	120	1	0.250	2	3	0.0	1.0	11	48.0	20.000	3	0.651	9	1262.478	0.000	0	255	
269	1	1267.969	0	120	1	0.250	2	3	0.0	1.0	11	48.0	20.000	3	0.601	3	1268.983	0.140	1	255	
270	0	1271.848	0	120	1	0.250	2	9	0.0	1.0	10	48.0	20.000	9	0.751	3	1272.744	0.000	0	255	
271	0	1275.386	0	120	1	0.250	2	3	0.0	1.0	11	48.0	20.000	3	0.701	3	1276.260	0.140	1	255	
272	0	1279.053	0	120	1	0.250	2	9	0.0	1.0	5	48.0	20.000	9	0.801	9	1279.885	0.150	1	255	
273	0	1283.151	0	120	1	0.250	2	9	0.0	1.0	5	48.0	20.000	9	0.751	3	1284.273	0.000	0	255	
274	1	1289.319	0	120	1	0.250	2	9	0.0	1.0	5	48.0	20.000	9	0.601	9	1289.939	0.150	1	255	
275	0	1293.430	0	120	1	0.250	2	9	0.0	1.0	5	48.0	20.000	9	0.651	3	1294.108	0.000	0	255	
276	1	1298.016	0	120	1	0.250	2	9	0.0	1.0	5	48.0	20.000	9	0.701	9	1298.864	0.150	1	255	
277	0	1302.398	0	120	1	0.250	2	9	0.0	1.0	5	48.0	20.000	9	0.801	9	1303.028	0.150	1	255	
278	0	1305.753	0	120	1	0.250	2	3	0.0	1.0	1	48.0	20.000	3	0.651	3	1306.747	0.140	1	255	
279	0	1308.944	0	120	1	0.250	2	3	0.0	1.0	11	48.0	20.000	3	0.601	3	1310.118	0.140	1	255	
280	0	1312.662	0	120	1	0.250	2	9	0.0	1.0	5	48.0	20.000	9	0.751	9	1313.609	0.150	1	255	
281	0	1316.885	0	120	1	0.250	2	9	0.0	1.0	5	48.0	20.000	9	0.801	9	1317.826	0.150	1	255	
282	0	1325.589	0	120	1	0.250	2	3	0.0	1.0	11	48.0	20.000	3	0.751	3	1326.007	0.140	1	255	
283	0	1328.709	0	120	1	0.250	2	9	0.0	1.0	5	48.0	20.000	9	0.701	9	1329.172	0.150	1	255	
284	0	1333.355	0	120	1	0.250	2	9	0.0	1.0	5	48.0	20.000	9	0.601	3	1334.238	0.000	0	255	
