Trial,CorrectionTrial,StartTime,CenterReward,CenterSpoutRotation,nStimReps,Duration,Modality,LED Location,LED_trial_V,LED_bgnd_V,Speaker Location,Speaker_trial_V,Speaker_bgnd_V,TargetSpout,HoldTime,Response,RespTime,ValveTime,Correct,SessionDate,SessionID,StartDateTime,StimulusTotalDuration,response_angle_world,speaker_angle_world,speaker_angle_platform,response_angle_platform,not_probe
1,0,47.55,0,-90,1,0.15,2,9,0.0,1.0,6,40.0,30.0,9,0.861,0.0,53.347,0.0,0,2018-02-13 09:05:26.000,51,2018-02-13 09:06:13.550,0.15,90,0,90,-180,1
3,0,90.915,0,-90,1,0.15,2,3,0.0,1.0,12,40.0,30.0,3,1.121,0.0,93.73200000000001,0.2,1,2018-02-13 09:05:26.000,51,2018-02-13 09:06:56.915,0.15,90,-180,-90,-180,1
4,0,124.791,0,-90,1,0.15,2,9,0.0,1.0,6,40.0,30.0,9,0.731,0.0,127.803,0.0,0,2018-02-13 09:05:26.000,51,2018-02-13 09:07:30.791,0.15,90,0,90,-180,1
6,0,229.33599999999998,0,-90,1,0.15,2,3,0.0,1.0,12,40.0,30.0,3,0.991,1.0,231.37400000000002,0.0,0,2018-02-13 09:05:26.000,51,2018-02-13 09:09:15.336,0.15,-90,-180,-90,0,1
8,0,273.724,0,-90,1,0.15,2,3,0.0,1.0,12,40.0,30.0,3,0.861,0.0,275.283,0.2,1,2018-02-13 09:05:26.000,51,2018-02-13 09:09:59.724,0.15,90,-180,-90,-180,1
9,0,364.069,0,-90,1,0.15,2,3,0.0,1.0,12,40.0,30.0,3,1.121,1.0,369.582,0.0,0,2018-02-13 09:05:26.000,51,2018-02-13 09:11:30.069,0.15,-90,-180,-90,0,1
11,0,412.733,0,-90,1,0.15,2,3,0.0,1.0,12,40.0,30.0,3,1.121,1.0,416.207,0.0,0,2018-02-13 09:05:26.000,51,2018-02-13 09:12:18.733,0.15,-90,-180,-90,0,1
13,0,452.48199999999997,0,-90,1,0.15,2,3,0.0,1.0,12,40.0,30.0,3,0.601,1.0,454.365,0.0,0,2018-02-13 09:05:26.000,51,2018-02-13 09:12:58.482,0.15,-90,-180,-90,0,1
15,0,502.665,0,-90,1,0.15,2,9,0.0,1.0,6,40.0,30.0,9,0.861,1.0,504.855,0.2,1,2018-02-13 09:05:26.000,51,2018-02-13 09:13:48.665,0.15,-90,0,90,0,1
16,0,531.03,0,-90,1,0.15,2,3,0.0,1.0,12,40.0,30.0,3,0.731,0.0,533.842,0.2,1,2018-02-13 09:05:26.000,51,2018-02-13 09:14:17.030,0.15,90,-180,-90,-180,1
17,0,589.378,0,-90,1,0.15,2,3,0.0,1.0,12,40.0,30.0,3,0.601,0.0,593.008,0.2,1,2018-02-13 09:05:26.000,51,2018-02-13 09:15:15.378,0.15,90,-180,-90,-180,1
18,0,612.52,0,-90,1,0.15,2,9,0.0,1.0,6,40.0,30.0,9,1.121,1.0,615.124,0.2,1,2018-02-13 09:05:26.000,51,2018-02-13 09:15:38.520,0.15,-90,0,90,0,1
19,0,644.12,0,-90,1,0.15,2,3,0.0,1.0,12,40.0,30.0,3,0.991,1.0,646.6709999999999,0.0,0,2018-02-13 09:05:26.000,51,2018-02-13 09:16:10.120,0.15,-90,-180,-90,0,1
21,0,674.735,1,-90,1,0.15,2,9,0.0,1.0,6,40.0,30.0,9,0.991,1.0,677.368,0.2,1,2018-02-13 09:05:26.000,51,2018-02-13 09:16:40.735,0.15,-90,0,90,0,1
22,0,754.6510000000001,0,-90,1,0.15,2,9,0.0,1.0,6,40.0,30.0,9,1.121,1.0,757.3,0.2,1,2018-02-13 09:05:26.000,51,2018-02-13 09:18:00.651,0.15,-90,0,90,0,1
23,0,782.4839999999999,0,-90,1,0.15,2,9,0.0,1.0,6,40.0,30.0,9,0.861,1.0,784.446,0.2,1,2018-02-13 09:05:26.000,51,2018-02-13 09:18:28.484,0.15,-90,0,90,0,1
24,0,805.578,0,-90,1,0.15,2,9,0.0,1.0,6,40.0,30.0,9,0.601,1.0,807.932,0.2,1,2018-02-13 09:05:26.000,51,2018-02-13 09:18:51.578,0.15,-90,0,90,0,1
25,0,831.674,0,-90,1,0.15,2,9,0.0,1.0,6,40.0,30.0,9,0.731,0.0,837.674,0.0,0,2018-02-13 09:05:26.000,51,2018-02-13 09:19:17.674,0.15,90,0,90,-180,1
27,0,899.498,0,-90,1,0.15,2,3,0.0,1.0,12,40.0,30.0,3,0.601,0.0,901.581,0.2,1,2018-02-13 09:05:26.000,51,2018-02-13 09:20:25.498,0.15,90,-180,-90,-180,1
28,0,920.0980000000001,1,-90,1,0.15,2,9,0.0,1.0,6,40.0,30.0,9,0.731,1.0,922.064,0.2,1,2018-02-13 09:05:26.000,51,2018-02-13 09:20:46.098,0.15,-90,0,90,0,1
29,0,941.4010000000001,0,-90,1,0.15,2,9,0.0,1.0,6,40.0,30.0,9,0.861,1.0,943.185,0.2,1,2018-02-13 09:05:26.000,51,2018-02-13 09:21:07.401,0.15,-90,0,90,0,1
30,0,997.41,0,-90,1,0.15,2,3,0.0,1.0,12,40.0,30.0,3,0.991,1.0,999.436,0.0,0,2018-02-13 09:05:26.000,51,2018-02-13 09:22:03.410,0.15,-90,-180,-90,0,1
32,0,1051.527,0,-90,1,0.15,2,9,0.0,1.0,6,40.0,30.0,9,1.121,1.0,1052.884,0.2,1,2018-02-13 09:05:26.000,51,2018-02-13 09:22:57.527,0.15,-90,0,90,0,1
33,0,1070.79,0,-90,1,0.15,2,3,0.0,1.0,12,40.0,30.0,3,0.861,0.0,1072.672,0.2,1,2018-02-13 09:05:26.000,51,2018-02-13 09:23:16.790,0.15,90,-180,-90,-180,1
34,0,1092.8039999999999,0,-90,1,0.15,2,3,0.0,1.0,12,40.0,30.0,3,0.991,0.0,1094.8210000000001,0.2,1,2018-02-13 09:05:26.000,51,2018-02-13 09:23:38.804,0.15,90,-180,-90,-180,1
35,0,1121.77,0,-90,1,0.15,2,3,0.0,1.0,12,40.0,30.0,3,0.601,0.0,1125.583,0.2,1,2018-02-13 09:05:26.000,51,2018-02-13 09:24:07.770,0.15,90,-180,-90,-180,1
36,0,1164.598,0,-90,1,0.15,2,9,0.0,1.0,6,40.0,30.0,9,1.121,1.0,1166.253,0.2,1,2018-02-13 09:05:26.000,51,2018-02-13 09:24:50.598,0.15,-90,0,90,0,1
37,0,1184.19,0,-90,1,0.15,2,9,0.0,1.0,6,40.0,30.0,9,0.731,1.0,1186.124,0.2,1,2018-02-13 09:05:26.000,51,2018-02-13 09:25:10.190,0.15,-90,0,90,0,1
38,0,1232.43,0,-90,1,0.15,2,3,0.0,1.0,12,40.0,30.0,3,0.991,0.0,1234.088,0.2,1,2018-02-13 09:05:26.000,51,2018-02-13 09:25:58.430,0.15,90,-180,-90,-180,1
39,0,1261.046,0,-90,1,0.15,2,3,0.0,1.0,12,40.0,30.0,3,0.601,0.0,1268.805,0.2,1,2018-02-13 09:05:26.000,51,2018-02-13 09:26:27.046,0.15,90,-180,-90,-180,1
40,0,1307.856,0,-90,1,0.15,2,3,0.0,1.0,12,40.0,30.0,3,0.861,0.0,1313.156,0.2,1,2018-02-13 09:05:26.000,51,2018-02-13 09:27:13.856,0.15,90,-180,-90,-180,1
41,0,1356.195,0,-90,1,0.15,2,9,0.0,1.0,6,40.0,30.0,9,0.991,1.0,1363.5279999999998,0.2,1,2018-02-13 09:05:26.000,51,2018-02-13 09:28:02.195,0.15,-90,0,90,0,1
42,0,1381.9560000000001,0,-90,1,0.15,2,3,0.0,1.0,12,40.0,30.0,3,0.601,0.0,1384.351,0.2,1,2018-02-13 09:05:26.000,51,2018-02-13 09:28:27.956,0.15,90,-180,-90,-180,1
43,0,1447.29,0,-90,1,0.15,2,9,0.0,1.0,6,40.0,30.0,9,0.861,0.0,1449.175,0.0,0,2018-02-13 09:05:26.000,51,2018-02-13 09:29:33.290,0.15,90,0,90,-180,1
1,0,24.015,0,90,1,0.15,2,3,0.0,1.0,12,40.0,30.0,3,0.991,0.0,26.25,0.2,1,2018-02-13 14:54:23.000,158,2018-02-13 14:54:47.015,0.15,90,-180,90,0,1
2,0,46.302,1,90,1,0.15,2,9,0.0,1.0,6,40.0,30.0,9,0.861,1.0,52.216,0.2,1,2018-02-13 14:54:23.000,158,2018-02-13 14:55:09.302,0.15,-90,0,-90,-180,1
3,0,72.391,0,90,1,0.15,2,9,0.0,1.0,6,40.0,30.0,9,0.731,0.0,76.557,0.0,0,2018-02-13 14:54:23.000,158,2018-02-13 14:55:35.391,0.15,90,0,-90,0,1
5,0,120.21700000000001,0,90,1,0.15,2,9,0.0,1.0,6,40.0,30.0,9,1.121,1.0,131.643,0.2,1,2018-02-13 14:54:23.000,158,2018-02-13 14:56:23.217,0.15,-90,0,-90,-180,1
6,0,143.786,0,90,1,0.15,2,9,0.0,1.0,6,40.0,30.0,9,0.731,0.0,148.12,0.0,0,2018-02-13 14:54:23.000,158,2018-02-13 14:56:46.786,0.15,90,0,-90,0,1
8,0,176.27,0,90,1,0.15,2,9,0.0,1.0,6,40.0,30.0,9,0.991,1.0,178.52700000000002,0.2,1,2018-02-13 14:54:23.000,158,2018-02-13 14:57:19.270,0.15,-90,0,-90,-180,1
9,0,201.327,0,90,1,0.15,2,3,0.0,1.0,12,40.0,30.0,3,0.861,0.0,203.49599999999998,0.2,1,2018-02-13 14:54:23.000,158,2018-02-13 14:57:44.327,0.15,90,-180,90,0,1
10,0,219.72299999999998,0,90,1,0.15,2,3,0.0,1.0,12,40.0,30.0,3,0.601,1.0,222.899,0.0,0,2018-02-13 14:54:23.000,158,2018-02-13 14:58:02.723,0.15,-90,-180,90,-180,1
12,0,265.793,0,90,1,0.15,2,3,0.0,1.0,12,40.0,30.0,3,0.601,0.0,267.498,0.2,1,2018-02-13 14:54:23.000,158,2018-02-13 14:58:48.793,0.15,90,-180,90,0,1
13,0,290.029,0,90,1,0.15,2,3,0.0,1.0,12,40.0,30.0,3,0.991,1.0,292.175,0.0,0,2018-02-13 14:54:23.000,158,2018-02-13 14:59:13.029,0.15,-90,-180,90,-180,1
15,0,338.85900000000004,0,90,1,0.15,2,9,0.0,1.0,6,40.0,30.0,9,0.861,1.0,341.814,0.2,1,2018-02-13 14:54:23.000,158,2018-02-13 15:00:01.859,0.15,-90,0,-90,-180,1
16,0,379.069,0,90,1,0.15,2,3,0.0,1.0,12,40.0,30.0,3,0.991,0.0,380.346,0.2,1,2018-02-13 14:54:23.000,158,2018-02-13 15:00:42.069,0.15,90,-180,90,0,1
17,0,428.285,0,90,1,0.15,2,3,0.0,1.0,12,40.0,30.0,3,1.121,0.0,430.68699999999995,0.2,1,2018-02-13 14:54:23.000,158,2018-02-13 15:01:31.285,0.15,90,-180,90,0,1
18,0,459.278,1,90,1,0.15,2,3,0.0,1.0,12,40.0,30.0,3,0.731,1.0,462.17699999999996,0.0,0,2018-02-13 14:54:23.000,158,2018-02-13 15:02:02.278,0.15,-90,-180,90,-180,1
20,0,503.655,0,90,1,0.15,2,3,0.0,1.0,12,40.0,30.0,3,0.861,0.0,513.139,0.2,1,2018-02-13 14:54:23.000,158,2018-02-13 15:02:46.655,0.15,90,-180,90,0,1
21,0,548.076,0,90,1,0.15,2,3,0.0,1.0,12,40.0,30.0,3,0.991,0.0,549.942,0.2,1,2018-02-13 14:54:23.000,158,2018-02-13 15:03:31.076,0.15,90,-180,90,0,1
22,0,573.078,0,90,1,0.15,2,9,0.0,1.0,6,40.0,30.0,9,0.731,1.0,577.026,0.2,1,2018-02-13 14:54:23.000,158,2018-02-13 15:03:56.078,0.15,-90,0,-90,-180,1
23,0,631.71,1,90,1,0.15,2,9,0.0,1.0,6,40.0,30.0,9,0.601,0.0,633.769,0.0,0,2018-02-13 14:54:23.000,158,2018-02-13 15:04:54.710,0.15,90,0,-90,0,1
25,0,711.044,0,90,1,0.15,2,9,0.0,1.0,6,40.0,30.0,9,0.861,0.0,741.836,0.0,0,2018-02-13 14:54:23.000,158,2018-02-13 15:06:14.044,0.15,90,0,-90,0,1
27,0,799.627,0,90,1,0.15,2,9,0.0,1.0,6,40.0,30.0,9,0.991,0.0,811.655,0.0,0,2018-02-13 14:54:23.000,158,2018-02-13 15:07:42.627,0.15,90,0,-90,0,1
29,0,840.7810000000001,0,90,1,0.15,2,3,0.0,1.0,12,40.0,30.0,3,0.861,0.0,847.2289999999999,0.2,1,2018-02-13 14:54:23.000,158,2018-02-13 15:08:23.781,0.15,90,-180,90,0,1
30,0,879.9630000000001,0,90,1,0.15,2,3,0.0,1.0,12,40.0,30.0,3,1.121,1.0,888.4019999999999,0.0,0,2018-02-13 14:54:23.000,158,2018-02-13 15:09:02.963,0.15,-90,-180,90,-180,1
32,0,951.326,0,90,1,0.15,2,3,0.0,1.0,12,40.0,30.0,3,1.121,0.0,953.395,0.2,1,2018-02-13 14:54:23.000,158,2018-02-13 15:10:14.326,0.15,90,-180,90,0,1
33,0,975.888,0,90,1,0.15,2,3,0.0,1.0,12,40.0,30.0,3,0.991,1.0,979.275,0.0,0,2018-02-13 14:54:23.000,158,2018-02-13 15:10:38.888,0.15,-90,-180,90,-180,1
35,0,1018.02,0,90,1,0.15,2,3,0.0,1.0,12,40.0,30.0,3,0.601,0.0,1020.299,0.2,1,2018-02-13 14:54:23.000,158,2018-02-13 15:11:21.020,0.15,90,-180,90,0,1
36,0,1093.218,0,90,1,0.15,2,9,0.0,1.0,6,40.0,30.0,9,0.861,0.0,1109.359,0.0,0,2018-02-13 14:54:23.000,158,2018-02-13 15:12:36.218,0.15,90,0,-90,0,1
39,0,1148.866,1,90,1,0.15,2,9,0.0,1.0,6,40.0,30.0,9,0.601,0.0,1152.778,0.0,0,2018-02-13 14:54:23.000,158,2018-02-13 15:13:31.866,0.15,90,0,-90,0,1
42,0,1193.19,0,90,1,0.15,2,9,0.0,1.0,6,40.0,30.0,9,0.991,0.0,1198.329,0.0,0,2018-02-13 14:54:23.000,158,2018-02-13 15:14:16.190,0.15,90,0,-90,0,1
48,0,1295.458,0,90,1,0.15,2,9,0.0,1.0,6,40.0,30.0,9,0.601,1.0,1300.0910000000001,0.2,1,2018-02-13 14:54:23.000,158,2018-02-13 15:15:58.458,0.15,-90,0,-90,-180,1
49,0,1341.7479999999998,0,90,1,0.15,2,3,0.0,1.0,12,40.0,30.0,3,0.861,0.0,1343.4,0.2,1,2018-02-13 14:54:23.000,158,2018-02-13 15:16:44.748,0.15,90,-180,90,0,1
50,0,1359.836,0,90,1,0.15,2,9,0.0,1.0,6,40.0,30.0,9,0.731,1.0,1363.132,0.2,1,2018-02-13 14:54:23.000,158,2018-02-13 15:17:02.836,0.15,-90,0,-90,-180,1
51,0,1394.876,0,90,1,0.15,2,9,0.0,1.0,6,40.0,30.0,9,0.861,1.0,1398.5379999999998,0.2,1,2018-02-13 14:54:23.000,158,2018-02-13 15:17:37.876,0.15,-90,0,-90,-180,1
52,0,1424.26,0,90,1,0.15,2,9,0.0,1.0,6,40.0,30.0,9,1.121,1.0,1426.476,0.2,1,2018-02-13 14:54:23.000,158,2018-02-13 15:18:07.260,0.15,-90,0,-90,-180,1
53,0,1487.818,0,90,1,0.15,2,9,0.0,1.0,6,40.0,30.0,9,0.731,1.0,1490.8339999999998,0.2,1,2018-02-13 14:54:23.000,158,2018-02-13 15:19:10.818,0.15,-90,0,-90,-180,1
54,0,1509.5279999999998,0,90,1,0.15,2,9,0.0,1.0,6,40.0,30.0,9,0.601,0.0,1516.234,0.0,0,2018-02-13 14:54:23.000,158,2018-02-13 15:19:32.528,0.15,90,0,-90,0,1
58,0,1553.71,0,90,1,0.15,2,3,0.0,1.0,12,40.0,30.0,3,1.121,1.0,1557.279,0.0,0,2018-02-13 14:54:23.000,158,2018-02-13 15:20:16.710,0.15,-90,-180,90,-180,1
60,0,1585.245,1,90,1,0.15,2,3,0.0,1.0,12,40.0,30.0,3,0.991,0.0,1586.9160000000002,0.2,1,2018-02-13 14:54:23.000,158,2018-02-13 15:20:48.245,0.15,90,-180,90,0,1
61,0,1610.475,0,90,1,0.15,2,3,0.0,1.0,12,40.0,30.0,3,1.121,0.0,1612.2020000000002,0.2,1,2018-02-13 14:54:23.000,158,2018-02-13 15:21:13.475,0.15,90,-180,90,0,1
62,0,1641.92,0,90,1,0.15,2,3,0.0,1.0,12,40.0,30.0,3,0.861,0.0,1644.379,0.2,1,2018-02-13 14:54:23.000,158,2018-02-13 15:21:44.920,0.15,90,-180,90,0,1
63,0,1666.006,0,90,1,0.15,2,9,0.0,1.0,6,40.0,30.0,9,0.601,1.0,1672.34,0.2,1,2018-02-13 14:54:23.000,158,2018-02-13 15:22:09.006,0.15,-90,0,-90,-180,1
64,0,1716.0220000000002,1,90,1,0.15,2,3,0.0,1.0,12,40.0,30.0,3,0.991,0.0,1725.454,0.2,1,2018-02-13 14:54:23.000,158,2018-02-13 15:22:59.022,0.15,90,-180,90,0,1
65,0,1739.8039999999999,0,90,1,0.15,2,9,0.0,1.0,6,40.0,30.0,9,0.731,0.0,1742.394,0.0,0,2018-02-13 14:54:23.000,158,2018-02-13 15:23:22.804,0.15,90,0,-90,0,1
67,0,1767.5910000000001,1,90,1,0.15,2,3,0.0,1.0,12,40.0,30.0,3,0.861,0.0,1770.332,0.2,1,2018-02-13 14:54:23.000,158,2018-02-13 15:23:50.591,0.15,90,-180,90,0,1
68,0,1802.6029999999998,0,90,1,0.15,2,9,0.0,1.0,6,40.0,30.0,9,0.991,0.0,1806.3310000000001,0.0,0,2018-02-13 14:54:23.000,158,2018-02-13 15:24:25.603,0.15,90,0,-90,0,1
73,0,1882.026,0,90,1,0.15,2,3,0.0,1.0,12,40.0,30.0,3,1.121,0.0,1886.8670000000002,0.2,1,2018-02-13 14:54:23.000,158,2018-02-13 15:25:45.026,0.15,90,-180,90,0,1
74,0,1899.229,0,90,1,0.15,2,9,0.0,1.0,6,40.0,30.0,9,0.601,0.0,1906.03,0.0,0,2018-02-13 14:54:23.000,158,2018-02-13 15:26:02.229,0.15,90,0,-90,0,1
76,0,1928.144,0,90,1,0.15,2,9,0.0,1.0,6,40.0,30.0,9,0.731,1.0,1930.1729999999998,0.2,1,2018-02-13 14:54:23.000,158,2018-02-13 15:26:31.144,0.15,-90,0,-90,-180,1
77,0,1957.108,0,90,1,0.15,2,9,0.0,1.0,6,40.0,30.0,9,0.601,0.0,1960.524,0.0,0,2018-02-13 14:54:23.000,158,2018-02-13 15:27:00.108,0.15,90,0,-90,0,1
1,0,51.11,0,-30,1,0.15,2,3,0.0,1.0,12,40.0,30.0,3,0.731,0.0,53.16,0.2,1,2018-02-16 15:00:36.000,17,2018-02-16 15:01:27.110,0.15,90,-180,-150,120,1
2,0,72.128,0,-30,1,0.15,2,9,0.0,1.0,6,40.0,30.0,9,0.601,1.0,74.062,0.2,1,2018-02-16 15:00:36.000,17,2018-02-16 15:01:48.128,0.15,-90,0,30,-60,1
3,0,92.473,0,-30,1,0.15,2,3,0.0,1.0,12,40.0,30.0,3,0.861,0.0,94.93,0.2,1,2018-02-16 15:00:36.000,17,2018-02-16 15:02:08.473,0.15,90,-180,-150,120,1
4,0,124.415,0,-30,1,0.15,2,9,0.0,1.0,6,40.0,30.0,9,1.121,0.0,125.785,0.0,0,2018-02-16 15:00:36.000,17,2018-02-16 15:02:40.415,0.15,90,0,30,120,1
6,0,154.809,0,-30,1,0.15,2,9,0.0,1.0,6,40.0,30.0,9,0.861,1.0,155.986,0.2,1,2018-02-16 15:00:36.000,17,2018-02-16 15:03:10.809,0.15,-90,0,30,-60,1
7,0,173.817,0,-30,1,0.15,2,3,0.0,1.0,12,40.0,30.0,3,0.731,0.0,175.89,0.2,1,2018-02-16 15:00:36.000,17,2018-02-16 15:03:29.817,0.15,90,-180,-150,120,1
8,0,225.516,0,-30,1,0.15,2,9,0.0,1.0,6,40.0,30.0,9,0.991,1.0,226.967,0.2,1,2018-02-16 15:00:36.000,17,2018-02-16 15:04:21.516,0.15,-90,0,30,-60,1
9,0,243.94400000000002,0,-30,1,0.15,2,3,0.0,1.0,12,40.0,30.0,3,1.121,1.0,245.225,0.0,0,2018-02-16 15:00:36.000,17,2018-02-16 15:04:39.944,0.15,-90,-180,-150,-60,1
11,0,274.327,0,-30,1,0.15,2,3,0.0,1.0,12,40.0,30.0,3,0.731,1.0,275.807,0.0,0,2018-02-16 15:00:36.000,17,2018-02-16 15:05:10.327,0.15,-90,-180,-150,-60,1
13,0,361.86400000000003,0,-30,1,0.15,2,3,0.0,1.0,12,40.0,30.0,3,0.601,1.0,364.36400000000003,0.0,0,2018-02-16 15:00:36.000,17,2018-02-16 15:06:37.864,0.15,-90,-180,-150,-60,1
15,0,410.18800000000005,0,-30,1,0.15,2,9,0.0,1.0,6,40.0,30.0,9,0.991,1.0,411.68,0.2,1,2018-02-16 15:00:36.000,17,2018-02-16 15:07:26.188,0.15,-90,0,30,-60,1
16,0,436.024,0,-30,1,0.15,2,3,0.0,1.0,12,40.0,30.0,3,0.991,0.0,437.727,0.2,1,2018-02-16 15:00:36.000,17,2018-02-16 15:07:52.024,0.15,90,-180,-150,120,1
17,0,463.545,0,-30,1,0.15,2,9,0.0,1.0,6,40.0,30.0,9,0.861,0.0,465.63199999999995,0.0,0,2018-02-16 15:00:36.000,17,2018-02-16 15:08:19.545,0.15,90,0,30,120,1
19,0,503.79,0,-30,1,0.15,2,3,0.0,1.0,12,40.0,30.0,3,0.731,0.0,505.332,0.2,1,2018-02-16 15:00:36.000,17,2018-02-16 15:08:59.790,0.15,90,-180,-150,120,1
20,0,524.74,0,-30,1,0.15,2,3,0.0,1.0,12,40.0,30.0,3,1.121,1.0,528.3430000000001,0.0,0,2018-02-16 15:00:36.000,17,2018-02-16 15:09:20.740,0.15,-90,-180,-150,-60,1
23,0,567.374,0,-30,1,0.15,2,9,0.0,1.0,6,40.0,30.0,9,0.731,1.0,572.081,0.2,1,2018-02-16 15:00:36.000,17,2018-02-16 15:10:03.374,0.15,-90,0,30,-60,1
24,0,588.621,0,-30,1,0.15,2,3,0.0,1.0,12,40.0,30.0,3,0.861,1.0,589.821,0.0,0,2018-02-16 15:00:36.000,17,2018-02-16 15:10:24.621,0.15,-90,-180,-150,-60,1
26,0,625.275,0,-30,1,0.15,2,9,0.0,1.0,6,40.0,30.0,9,0.601,1.0,629.681,0.2,1,2018-02-16 15:00:36.000,17,2018-02-16 15:11:01.275,0.15,-90,0,30,-60,1
27,0,648.715,0,-30,1,0.15,2,9,0.0,1.0,6,40.0,30.0,9,0.731,0.0,651.256,0.0,0,2018-02-16 15:00:36.000,17,2018-02-16 15:11:24.715,0.15,90,0,30,120,1
29,0,683.6110000000001,0,-30,1,0.15,2,9,0.0,1.0,6,40.0,30.0,9,0.861,1.0,684.966,0.2,1,2018-02-16 15:00:36.000,17,2018-02-16 15:11:59.611,0.15,-90,0,30,-60,1
30,0,702.183,0,-30,1,0.15,2,3,0.0,1.0,12,40.0,30.0,3,0.991,0.0,704.1,0.2,1,2018-02-16 15:00:36.000,17,2018-02-16 15:12:18.183,0.15,90,-180,-150,120,1
31,0,725.118,0,-30,1,0.15,2,9,0.0,1.0,6,40.0,30.0,9,0.991,1.0,729.164,0.2,1,2018-02-16 15:00:36.000,17,2018-02-16 15:12:41.118,0.15,-90,0,30,-60,1
32,0,756.7719999999999,0,-30,1,0.15,2,9,0.0,1.0,6,40.0,30.0,9,0.731,0.0,760.193,0.0,0,2018-02-16 15:00:36.000,17,2018-02-16 15:13:12.772,0.15,90,0,30,120,1
34,0,802.128,0,-30,1,0.15,2,3,0.0,1.0,12,40.0,30.0,3,1.121,1.0,805.587,0.0,0,2018-02-16 15:00:36.000,17,2018-02-16 15:13:58.128,0.15,-90,-180,-150,-60,1
37,0,830.7139999999999,0,-30,1,0.15,2,3,0.0,1.0,12,40.0,30.0,3,0.991,1.0,834.189,0.0,0,2018-02-16 15:00:36.000,17,2018-02-16 15:14:26.714,0.15,-90,-180,-150,-60,1
39,0,884.865,0,-30,1,0.15,2,9,0.0,1.0,6,40.0,30.0,9,1.121,0.0,886.685,0.0,0,2018-02-16 15:00:36.000,17,2018-02-16 15:15:20.865,0.15,90,0,30,120,1
43,0,954.9730000000001,0,-30,1,0.15,2,3,0.0,1.0,12,40.0,30.0,3,0.991,0.0,956.0880000000001,0.2,1,2018-02-16 15:00:36.000,17,2018-02-16 15:16:30.973,0.15,90,-180,-150,120,1
44,0,964.1030000000001,0,-30,1,0.15,2,3,0.0,1.0,12,40.0,30.0,3,0.861,0.0,965.796,0.2,1,2018-02-16 15:00:36.000,17,2018-02-16 15:16:40.103,0.15,90,-180,-150,120,1
45,0,989.33,0,-30,1,0.15,2,3,0.0,1.0,12,40.0,30.0,3,1.121,0.0,993.5010000000001,0.2,1,2018-02-16 15:00:36.000,17,2018-02-16 15:17:05.330,0.15,90,-180,-150,120,1
46,0,1020.492,0,-30,1,0.15,2,3,0.0,1.0,12,40.0,30.0,3,0.991,1.0,1024.1760000000002,0.0,0,2018-02-16 15:00:36.000,17,2018-02-16 15:17:36.492,0.15,-90,-180,-150,-60,1
48,0,1058.17,0,-30,1,0.15,2,9,0.0,1.0,6,40.0,30.0,9,0.601,1.0,1064.035,0.2,1,2018-02-16 15:00:36.000,17,2018-02-16 15:18:14.170,0.15,-90,0,30,-60,1
49,0,1081.076,0,-30,1,0.15,2,3,0.0,1.0,12,40.0,30.0,3,0.731,1.0,1082.393,0.0,0,2018-02-16 15:00:36.000,17,2018-02-16 15:18:37.076,0.15,-90,-180,-150,-60,1
52,0,1123.907,0,-30,1,0.15,2,3,0.0,1.0,12,40.0,30.0,3,0.991,1.0,1128.892,0.0,0,2018-02-16 15:00:36.000,17,2018-02-16 15:19:19.907,0.15,-90,-180,-150,-60,1
54,0,1166.573,0,-30,1,0.15,2,9,0.0,1.0,6,40.0,30.0,9,0.601,1.0,1170.013,0.2,1,2018-02-16 15:00:36.000,17,2018-02-16 15:20:02.573,0.15,-90,0,30,-60,1
55,0,1184.307,0,-30,1,0.15,2,9,0.0,1.0,6,40.0,30.0,9,0.731,1.0,1185.642,0.2,1,2018-02-16 15:00:36.000,17,2018-02-16 15:20:20.307,0.15,-90,0,30,-60,1
56,0,1203.897,0,-30,1,0.15,2,3,0.0,1.0,12,40.0,30.0,3,0.731,0.0,1206.772,0.2,1,2018-02-16 15:00:36.000,17,2018-02-16 15:20:39.897,0.15,90,-180,-150,120,1
57,0,1228.52,0,-30,1,0.15,2,9,0.0,1.0,6,40.0,30.0,9,0.861,1.0,1231.896,0.2,1,2018-02-16 15:00:36.000,17,2018-02-16 15:21:04.520,0.15,-90,0,30,-60,1
58,0,1254.622,0,-30,1,0.15,2,9,0.0,1.0,6,40.0,30.0,9,0.991,1.0,1256.151,0.2,1,2018-02-16 15:00:36.000,17,2018-02-16 15:21:30.622,0.15,-90,0,30,-60,1
59,0,1274.137,0,-30,1,0.15,2,9,0.0,1.0,6,40.0,30.0,9,0.601,0.0,1275.634,0.0,0,2018-02-16 15:00:36.000,17,2018-02-16 15:21:50.137,0.15,90,0,30,120,1
62,0,1358.599,0,-30,1,0.15,2,9,0.0,1.0,6,40.0,30.0,9,0.861,1.0,1362.9520000000002,0.2,1,2018-02-16 15:00:36.000,17,2018-02-16 15:23:14.599,0.15,-90,0,30,-60,1
63,0,1389.807,0,-30,1,0.15,2,9,0.0,1.0,6,40.0,30.0,9,0.601,1.0,1392.229,0.2,1,2018-02-16 15:00:36.000,17,2018-02-16 15:23:45.807,0.15,-90,0,30,-60,1
64,0,1427.398,0,-30,1,0.15,2,9,0.0,1.0,6,40.0,30.0,9,1.121,1.0,1429.25,0.2,1,2018-02-16 15:00:36.000,17,2018-02-16 15:24:23.398,0.15,-90,0,30,-60,1
65,0,1443.785,0,-30,1,0.15,2,9,0.0,1.0,6,40.0,30.0,9,0.731,1.0,1445.204,0.2,1,2018-02-16 15:00:36.000,17,2018-02-16 15:24:39.785,0.15,-90,0,30,-60,1
66,0,1471.707,0,-30,1,0.15,2,9,0.0,1.0,6,40.0,30.0,9,0.731,1.0,1474.175,0.2,1,2018-02-16 15:00:36.000,17,2018-02-16 15:25:07.707,0.15,-90,0,30,-60,1
67,0,1508.525,0,-30,1,0.15,2,9,0.0,1.0,6,40.0,30.0,9,1.121,0.0,1510.362,0.0,0,2018-02-16 15:00:36.000,17,2018-02-16 15:25:44.525,0.15,90,0,30,120,1
70,0,1545.0079999999998,0,-30,1,0.15,2,3,0.0,1.0,12,40.0,30.0,3,0.991,1.0,1546.463,0.0,0,2018-02-16 15:00:36.000,17,2018-02-16 15:26:21.008,0.15,-90,-180,-150,-60,1
72,0,1570.54,0,-30,1,0.15,2,9,0.0,1.0,6,40.0,30.0,9,0.601,1.0,1575.5379999999998,0.2,1,2018-02-16 15:00:36.000,17,2018-02-16 15:26:46.540,0.15,-90,0,30,-60,1
73,0,1592.644,0,-30,1,0.15,2,3,0.0,1.0,12,40.0,30.0,3,1.121,0.0,1594.0179999999998,0.2,1,2018-02-16 15:00:36.000,17,2018-02-16 15:27:08.644,0.15,90,-180,-150,120,1
74,0,1617.401,0,-30,1,0.15,2,9,0.0,1.0,6,40.0,30.0,9,0.861,1.0,1620.066,0.2,1,2018-02-16 15:00:36.000,17,2018-02-16 15:27:33.401,0.15,-90,0,30,-60,1
75,0,1633.432,0,-30,1,0.15,2,9,0.0,1.0,6,40.0,30.0,9,0.991,0.0,1635.114,0.0,0,2018-02-16 15:00:36.000,17,2018-02-16 15:27:49.432,0.15,90,0,30,120,1
77,0,1669.067,0,-30,1,0.15,2,3,0.0,1.0,12,40.0,30.0,3,0.861,0.0,1670.614,0.2,1,2018-02-16 15:00:36.000,17,2018-02-16 15:28:25.067,0.15,90,-180,-150,120,1
78,0,1686.7910000000002,0,-30,1,0.15,2,3,0.0,1.0,12,40.0,30.0,3,0.991,0.0,1687.8270000000002,0.2,1,2018-02-16 15:00:36.000,17,2018-02-16 15:28:42.791,0.15,90,-180,-150,120,1
79,0,1746.781,0,-30,1,0.15,2,3,0.0,1.0,12,40.0,30.0,3,1.121,0.0,1748.126,0.2,1,2018-02-16 15:00:36.000,17,2018-02-16 15:29:42.781,0.15,90,-180,-150,120,1
80,0,1764.014,0,-30,1,0.15,2,3,0.0,1.0,12,40.0,30.0,3,0.601,0.0,1765.856,0.2,1,2018-02-16 15:00:36.000,17,2018-02-16 15:30:00.014,0.15,90,-180,-150,120,1
81,0,1787.0810000000001,0,-30,1,0.15,2,3,0.0,1.0,12,40.0,30.0,3,1.121,0.0,1788.507,0.2,1,2018-02-16 15:00:36.000,17,2018-02-16 15:30:23.081,0.15,90,-180,-150,120,1
82,0,1806.638,0,-30,1,0.15,2,9,0.0,1.0,6,40.0,30.0,9,0.731,1.0,1809.265,0.2,1,2018-02-16 15:00:36.000,17,2018-02-16 15:30:42.638,0.15,-90,0,30,-60,1
83,0,1847.148,0,-30,1,0.15,2,3,0.0,1.0,12,40.0,30.0,3,0.991,1.0,1849.098,0.0,0,2018-02-16 15:00:36.000,17,2018-02-16 15:31:23.148,0.15,-90,-180,-150,-60,1
1,0,173.855,1,-120,1,0.15,2,3,0.0,1.0,12,40.0,30.0,3,0.861,1.0,190.042,0.0,0,2018-02-21 15:42:41.000,137,2018-02-21 15:45:34.855,0.15,-90,-180,-60,30,1
6,0,326.574,1,-120,1,0.15,2,3,0.0,1.0,12,40.0,30.0,3,1.121,1.0,339.186,0.0,0,2018-02-21 15:42:41.000,137,2018-02-21 15:48:07.574,0.15,-90,-180,-60,30,1
8,0,390.25,0,-120,1,0.15,2,3,0.0,1.0,12,40.0,30.0,3,0.991,1.0,396.765,0.0,0,2018-02-21 15:42:41.000,137,2018-02-21 15:49:11.250,0.15,-90,-180,-60,30,1
10,0,465.977,0,-120,1,0.15,2,3,0.0,1.0,12,40.0,30.0,3,0.861,0.0,467.70300000000003,0.2,1,2018-02-21 15:42:41.000,137,2018-02-21 15:50:26.977,0.15,90,-180,-60,-150,1
11,0,488.31199999999995,0,-120,1,0.15,2,9,0.0,1.0,6,40.0,30.0,9,0.731,0.0,490.19699999999995,0.0,0,2018-02-21 15:42:41.000,137,2018-02-21 15:50:49.312,0.15,90,0,120,-150,1
14,0,582.6030000000001,1,-120,1,0.15,2,3,0.0,1.0,12,40.0,30.0,3,1.121,0.0,594.196,0.2,1,2018-02-21 15:42:41.000,137,2018-02-21 15:52:23.603,0.15,90,-180,-60,-150,1
15,0,609.888,1,-120,1,0.15,2,3,0.0,1.0,12,40.0,30.0,3,0.601,0.0,612.184,0.2,1,2018-02-21 15:42:41.000,137,2018-02-21 15:52:50.888,0.15,90,-180,-60,-150,1
16,0,632.915,1,-120,1,0.15,2,3,0.0,1.0,12,40.0,30.0,3,0.731,0.0,637.991,0.2,1,2018-02-21 15:42:41.000,137,2018-02-21 15:53:13.915,0.15,90,-180,-60,-150,1
17,0,657.673,0,-120,1,0.15,2,3,0.0,1.0,12,40.0,30.0,3,0.991,0.0,662.423,0.2,1,2018-02-21 15:42:41.000,137,2018-02-21 15:53:38.673,0.15,90,-180,-60,-150,1
18,0,685.4169999999999,0,-120,1,0.15,2,9,0.0,1.0,6,40.0,30.0,9,1.121,1.0,690.791,0.2,1,2018-02-21 15:42:41.000,137,2018-02-21 15:54:06.417,0.15,-90,0,120,30,1
19,0,715.138,0,-120,1,0.15,2,9,0.0,1.0,6,40.0,30.0,9,0.861,1.0,717.0889999999999,0.2,1,2018-02-21 15:42:41.000,137,2018-02-21 15:54:36.138,0.15,-90,0,120,30,1
20,0,750.365,0,-120,1,0.15,2,9,0.0,1.0,6,40.0,30.0,9,0.601,1.0,756.783,0.2,1,2018-02-21 15:42:41.000,137,2018-02-21 15:55:11.365,0.15,-90,0,120,30,1
21,0,777.438,0,-120,1,0.15,2,9,0.0,1.0,6,40.0,30.0,9,1.121,1.0,779.1139999999999,0.2,1,2018-02-21 15:42:41.000,137,2018-02-21 15:55:38.438,0.15,-90,0,120,30,1
22,0,805.88,0,-120,1,0.15,2,9,0.0,1.0,6,40.0,30.0,9,0.731,1.0,807.613,0.2,1,2018-02-21 15:42:41.000,137,2018-02-21 15:56:06.880,0.15,-90,0,120,30,1
23,0,826.5419999999999,0,-120,1,0.15,2,3,0.0,1.0,12,40.0,30.0,3,0.601,0.0,829.827,0.2,1,2018-02-21 15:42:41.000,137,2018-02-21 15:56:27.542,0.15,90,-180,-60,-150,1
24,0,844.0139999999999,0,-120,1,0.15,2,9,0.0,1.0,6,40.0,30.0,9,0.991,1.0,845.8330000000001,0.2,1,2018-02-21 15:42:41.000,137,2018-02-21 15:56:45.014,0.15,-90,0,120,30,1
25,0,866.0319999999999,0,-120,1,0.15,2,9,0.0,1.0,6,40.0,30.0,9,0.861,1.0,867.437,0.2,1,2018-02-21 15:42:41.000,137,2018-02-21 15:57:07.032,0.15,-90,0,120,30,1
26,0,885.828,0,-120,1,0.15,2,9,0.0,1.0,6,40.0,30.0,9,0.991,1.0,887.11,0.2,1,2018-02-21 15:42:41.000,137,2018-02-21 15:57:26.828,0.15,-90,0,120,30,1
27,0,905.7860000000001,1,-120,1,0.15,2,9,0.0,1.0,6,40.0,30.0,9,0.601,0.0,910.263,0.0,0,2018-02-21 15:42:41.000,137,2018-02-21 15:57:46.786,0.15,90,0,120,-150,1
29,0,951.1210000000001,0,-120,1,0.15,2,3,0.0,1.0,12,40.0,30.0,3,0.731,0.0,956.628,0.2,1,2018-02-21 15:42:41.000,137,2018-02-21 15:58:32.121,0.15,90,-180,-60,-150,1
30,0,972.423,0,-120,1,0.15,2,3,0.0,1.0,12,40.0,30.0,3,1.121,0.0,974.413,0.2,1,2018-02-21 15:42:41.000,137,2018-02-21 15:58:53.423,0.15,90,-180,-60,-150,1
31,0,996.722,0,-120,1,0.15,2,9,0.0,1.0,6,40.0,30.0,9,0.731,1.0,998.441,0.2,1,2018-02-21 15:42:41.000,137,2018-02-21 15:59:17.722,0.15,-90,0,120,30,1
32,0,1016.85,1,-120,1,0.15,2,3,0.0,1.0,12,40.0,30.0,3,0.601,0.0,1019.064,0.2,1,2018-02-21 15:42:41.000,137,2018-02-21 15:59:37.850,0.15,90,-180,-60,-150,1
33,0,1049.417,0,-120,1,0.15,2,9,0.0,1.0,6,40.0,30.0,9,0.991,1.0,1051.518,0.2,1,2018-02-21 15:42:41.000,137,2018-02-21 16:00:10.417,0.15,-90,0,120,30,1
34,0,1081.9560000000001,0,-120,1,0.15,2,3,0.0,1.0,12,40.0,30.0,3,1.121,1.0,1085.036,0.0,0,2018-02-21 15:42:41.000,137,2018-02-21 16:00:42.956,0.15,-90,-180,-60,30,1
36,0,1113.732,0,-120,1,0.15,2,9,0.0,1.0,6,40.0,30.0,9,0.861,0.0,1117.272,0.0,0,2018-02-21 15:42:41.000,137,2018-02-21 16:01:14.732,0.15,90,0,120,-150,1
38,0,1154.215,0,-120,1,0.15,2,9,0.0,1.0,6,40.0,30.0,9,1.121,1.0,1155.678,0.2,1,2018-02-21 15:42:41.000,137,2018-02-21 16:01:55.215,0.15,-90,0,120,30,1
39,0,1170.923,0,-120,1,0.15,2,9,0.0,1.0,6,40.0,30.0,9,0.601,1.0,1173.245,0.2,1,2018-02-21 15:42:41.000,137,2018-02-21 16:02:11.923,0.15,-90,0,120,30,1
40,0,1194.271,0,-120,1,0.15,2,3,0.0,1.0,12,40.0,30.0,3,0.731,0.0,1196.24,0.2,1,2018-02-21 15:42:41.000,137,2018-02-21 16:02:35.271,0.15,90,-180,-60,-150,1
41,0,1213.6689999999999,0,-120,1,0.15,2,9,0.0,1.0,6,40.0,30.0,9,0.601,1.0,1215.249,0.2,1,2018-02-21 15:42:41.000,137,2018-02-21 16:02:54.669,0.15,-90,0,120,30,1
42,0,1234.046,0,-120,1,0.15,2,9,0.0,1.0,6,40.0,30.0,9,0.861,1.0,1235.914,0.2,1,2018-02-21 15:42:41.000,137,2018-02-21 16:03:15.046,0.15,-90,0,120,30,1
43,0,1259.846,0,-120,1,0.15,2,3,0.0,1.0,12,40.0,30.0,3,0.991,0.0,1265.211,0.2,1,2018-02-21 15:42:41.000,137,2018-02-21 16:03:40.846,0.15,90,-180,-60,-150,1
44,0,1286.542,0,-120,1,0.15,2,9,0.0,1.0,6,40.0,30.0,9,1.121,0.0,1288.633,0.0,0,2018-02-21 15:42:41.000,137,2018-02-21 16:04:07.542,0.15,90,0,120,-150,1
47,0,1392.8370000000002,0,-120,1,0.15,2,3,0.0,1.0,12,40.0,30.0,3,0.991,0.0,1396.7479999999998,0.2,1,2018-02-21 15:42:41.000,137,2018-02-21 16:05:53.837,0.15,90,-180,-60,-150,1
48,0,1407.705,0,-120,1,0.15,2,9,0.0,1.0,6,40.0,30.0,9,0.861,0.0,1409.996,0.0,0,2018-02-21 15:42:41.000,137,2018-02-21 16:06:08.705,0.15,90,0,120,-150,1
51,0,1460.31,0,-120,1,0.15,2,3,0.0,1.0,12,40.0,30.0,3,0.861,0.0,1463.239,0.2,1,2018-02-21 15:42:41.000,137,2018-02-21 16:07:01.310,0.15,90,-180,-60,-150,1
52,0,1484.392,0,-120,1,0.15,2,3,0.0,1.0,12,40.0,30.0,3,1.121,0.0,1487.1979999999999,0.2,1,2018-02-21 15:42:41.000,137,2018-02-21 16:07:25.392,0.15,90,-180,-60,-150,1
53,0,1507.2920000000001,1,-120,1,0.15,2,3,0.0,1.0,12,40.0,30.0,3,0.991,0.0,1510.5620000000001,0.2,1,2018-02-21 15:42:41.000,137,2018-02-21 16:07:48.292,0.15,90,-180,-60,-150,1
54,0,1541.047,0,-120,1,0.15,2,9,0.0,1.0,6,40.0,30.0,9,0.731,1.0,1542.9460000000001,0.2,1,2018-02-21 15:42:41.000,137,2018-02-21 16:08:22.047,0.15,-90,0,120,30,1
55,0,1555.2120000000002,0,-120,1,0.15,2,3,0.0,1.0,12,40.0,30.0,3,0.601,0.0,1557.1860000000001,0.2,1,2018-02-21 15:42:41.000,137,2018-02-21 16:08:36.212,0.15,90,-180,-60,-150,1
56,0,1574.741,0,-120,1,0.15,2,3,0.0,1.0,12,40.0,30.0,3,0.601,0.0,1577.868,0.2,1,2018-02-21 15:42:41.000,137,2018-02-21 16:08:55.741,0.15,90,-180,-60,-150,1
57,0,1618.53,0,-120,1,0.15,2,3,0.0,1.0,12,40.0,30.0,3,0.861,1.0,1620.9279999999999,0.0,0,2018-02-21 15:42:41.000,137,2018-02-21 16:09:39.530,0.15,-90,-180,-60,30,1
59,0,1643.6870000000001,0,-120,1,0.15,2,9,0.0,1.0,6,40.0,30.0,9,0.991,1.0,1650.578,0.2,1,2018-02-21 15:42:41.000,137,2018-02-21 16:10:04.687,0.15,-90,0,120,30,1
60,0,1690.69,1,-120,1,0.15,2,9,0.0,1.0,6,40.0,30.0,9,1.121,1.0,1692.51,0.2,1,2018-02-21 15:42:41.000,137,2018-02-21 16:10:51.690,0.15,-90,0,120,30,1
61,0,1709.175,1,-120,1,0.15,2,3,0.0,1.0,12,40.0,30.0,3,0.731,1.0,1715.668,0.0,0,2018-02-21 15:42:41.000,137,2018-02-21 16:11:10.175,0.15,-90,-180,-60,30,1
1,0,12.085,0,-150,1,0.15,2,3,0.0,1.0,12,40.0,30.0,3,0.601,0.0,20.349,0.2,1,2018-02-22 08:57:56.000,73,2018-02-22 08:58:08.085,0.15,90,-180,-30,-120,1
2,0,42.001000000000005,0,-150,1,0.15,2,3,0.0,1.0,12,40.0,30.0,3,0.731,0.0,45.416000000000004,0.2,1,2018-02-22 08:57:56.000,73,2018-02-22 08:58:38.001,0.15,90,-180,-30,-120,1
3,0,70.737,0,-150,1,0.15,2,9,0.0,1.0,6,40.0,30.0,9,0.991,0.0,71.92399999999999,0.0,0,2018-02-22 08:57:56.000,73,2018-02-22 08:59:06.737,0.15,90,0,150,-120,1
6,0,177.987,0,-150,1,0.15,2,3,0.0,1.0,12,40.0,30.0,3,1.121,0.0,180.958,0.2,1,2018-02-22 08:57:56.000,73,2018-02-22 09:00:53.987,0.15,90,-180,-30,-120,1
7,0,198.854,0,-150,1,0.15,2,3,0.0,1.0,12,40.0,30.0,3,0.731,1.0,201.06400000000002,0.0,0,2018-02-22 08:57:56.000,73,2018-02-22 09:01:14.854,0.15,-90,-180,-30,60,1
10,0,242.123,0,-150,1,0.15,2,9,0.0,1.0,6,40.0,30.0,9,0.601,0.0,244.31900000000002,0.0,0,2018-02-22 08:57:56.000,73,2018-02-22 09:01:58.123,0.15,90,0,150,-120,1
12,0,278.91,0,-150,1,0.15,2,3,0.0,1.0,12,40.0,30.0,3,0.601,0.0,282.212,0.2,1,2018-02-22 08:57:56.000,73,2018-02-22 09:02:34.910,0.15,90,-180,-30,-120,1
13,0,304.223,0,-150,1,0.15,2,9,0.0,1.0,6,40.0,30.0,9,0.991,0.0,307.018,0.0,0,2018-02-22 08:57:56.000,73,2018-02-22 09:03:00.223,0.15,90,0,150,-120,1
15,0,338.536,0,-150,1,0.15,2,3,0.0,1.0,12,40.0,30.0,3,0.861,1.0,339.78,0.0,0,2018-02-22 08:57:56.000,73,2018-02-22 09:03:34.536,0.15,-90,-180,-30,60,1
17,0,373.418,0,-150,1,0.15,2,9,0.0,1.0,6,40.0,30.0,9,1.121,0.0,375.866,0.0,0,2018-02-22 08:57:56.000,73,2018-02-22 09:04:09.418,0.15,90,0,150,-120,1
20,0,473.35699999999997,0,-150,1,0.15,2,9,0.0,1.0,6,40.0,30.0,9,0.991,1.0,474.659,0.2,1,2018-02-22 08:57:56.000,73,2018-02-22 09:05:49.357,0.15,-90,0,150,60,1
21,0,554.941,0,-150,1,0.15,2,9,0.0,1.0,6,40.0,30.0,9,0.991,1.0,556.831,0.2,1,2018-02-22 08:57:56.000,73,2018-02-22 09:07:10.941,0.15,-90,0,150,60,1
22,0,577.911,0,-150,1,0.15,2,3,0.0,1.0,12,40.0,30.0,3,0.861,0.0,579.992,0.2,1,2018-02-22 08:57:56.000,73,2018-02-22 09:07:33.911,0.15,90,-180,-30,-120,1
23,0,614.654,0,-150,1,0.15,2,9,0.0,1.0,6,40.0,30.0,9,0.731,1.0,616.129,0.2,1,2018-02-22 08:57:56.000,73,2018-02-22 09:08:10.654,0.15,-90,0,150,60,1
24,0,669.9810000000001,0,-150,1,0.15,2,9,0.0,1.0,6,40.0,30.0,9,1.121,1.0,671.6339999999999,0.2,1,2018-02-22 08:57:56.000,73,2018-02-22 09:09:05.981,0.15,-90,0,150,60,1
25,0,687.586,0,-150,1,0.15,2,3,0.0,1.0,12,40.0,30.0,3,0.601,1.0,689.6460000000001,0.0,0,2018-02-22 08:57:56.000,73,2018-02-22 09:09:23.586,0.15,-90,-180,-30,60,1
27,0,738.497,0,-150,1,0.15,2,9,0.0,1.0,6,40.0,30.0,9,0.861,0.0,740.82,0.0,0,2018-02-22 08:57:56.000,73,2018-02-22 09:10:14.497,0.15,90,0,150,-120,1
30,0,879.429,0,-150,1,0.15,2,3,0.0,1.0,12,40.0,30.0,3,0.731,0.0,883.043,0.2,1,2018-02-22 08:57:56.000,73,2018-02-22 09:12:35.429,0.15,90,-180,-30,-120,1
31,0,946.7689999999999,0,-150,1,0.15,2,9,0.0,1.0,6,40.0,30.0,9,0.991,1.0,948.574,0.2,1,2018-02-22 08:57:56.000,73,2018-02-22 09:13:42.769,0.15,-90,0,150,60,1
32,0,967.2289999999999,0,-150,1,0.15,2,3,0.0,1.0,12,40.0,30.0,3,0.861,0.0,971.1360000000001,0.2,1,2018-02-22 08:57:56.000,73,2018-02-22 09:14:03.229,0.15,90,-180,-30,-120,1
33,0,989.232,0,-150,1,0.15,2,9,0.0,1.0,6,40.0,30.0,9,0.601,0.0,991.385,0.0,0,2018-02-22 08:57:56.000,73,2018-02-22 09:14:25.232,0.15,90,0,150,-120,1
35,0,1020.955,0,-150,1,0.15,2,3,0.0,1.0,12,40.0,30.0,3,0.731,0.0,1024.397,0.2,1,2018-02-22 08:57:56.000,73,2018-02-22 09:14:56.955,0.15,90,-180,-30,-120,1
36,0,1063.58,0,-150,1,0.15,2,9,0.0,1.0,6,40.0,30.0,9,0.991,0.0,1076.07,0.0,0,2018-02-22 08:57:56.000,73,2018-02-22 09:15:39.580,0.15,90,0,150,-120,1
39,0,1113.414,0,-150,1,0.15,2,3,0.0,1.0,12,40.0,30.0,3,0.731,0.0,1117.0439999999999,0.2,1,2018-02-22 08:57:56.000,73,2018-02-22 09:16:29.414,0.15,90,-180,-30,-120,1
40,0,1151.617,0,-150,1,0.15,2,3,0.0,1.0,12,40.0,30.0,3,1.121,1.0,1153.162,0.0,0,2018-02-22 08:57:56.000,73,2018-02-22 09:17:07.617,0.15,-90,-180,-30,60,1
42,0,1194.142,0,-150,1,0.15,2,9,0.0,1.0,6,40.0,30.0,9,0.601,1.0,1199.604,0.2,1,2018-02-22 08:57:56.000,73,2018-02-22 09:17:50.142,0.15,-90,0,150,60,1
43,0,1214.104,0,-150,1,0.15,2,3,0.0,1.0,12,40.0,30.0,3,0.731,0.0,1216.073,0.2,1,2018-02-22 08:57:56.000,73,2018-02-22 09:18:10.104,0.15,90,-180,-30,-120,1
44,0,1257.404,0,-150,1,0.15,2,3,0.0,1.0,12,40.0,30.0,3,0.991,0.0,1260.4080000000001,0.2,1,2018-02-22 08:57:56.000,73,2018-02-22 09:18:53.404,0.15,90,-180,-30,-120,1
45,0,1281.595,0,-150,1,0.15,2,3,0.0,1.0,12,40.0,30.0,3,0.861,0.0,1283.351,0.2,1,2018-02-22 08:57:56.000,73,2018-02-22 09:19:17.595,0.15,90,-180,-30,-120,1
46,0,1309.5430000000001,0,-150,1,0.15,2,3,0.0,1.0,12,40.0,30.0,3,1.121,1.0,1311.899,0.0,0,2018-02-22 08:57:56.000,73,2018-02-22 09:19:45.543,0.15,-90,-180,-30,60,1
48,0,1384.5479999999998,0,-150,1,0.15,2,3,0.0,1.0,12,40.0,30.0,3,0.991,0.0,1386.286,0.2,1,2018-02-22 08:57:56.000,73,2018-02-22 09:21:00.548,0.15,90,-180,-30,-120,1
49,0,1429.031,0,-150,1,0.15,2,9,0.0,1.0,6,40.0,30.0,9,0.601,1.0,1430.785,0.2,1,2018-02-22 08:57:56.000,73,2018-02-22 09:21:45.031,0.15,-90,0,150,60,1
50,0,1501.2720000000002,0,-150,1,0.15,2,3,0.0,1.0,12,40.0,30.0,3,0.861,0.0,1515.4229999999998,0.2,1,2018-02-22 08:57:56.000,73,2018-02-22 09:22:57.272,0.15,90,-180,-30,-120,1
51,0,1531.764,0,-150,1,0.15,2,9,0.0,1.0,6,40.0,30.0,9,0.601,0.0,1535.1789999999999,0.0,0,2018-02-22 08:57:56.000,73,2018-02-22 09:23:27.764,0.15,90,0,150,-120,1
54,0,1573.842,0,-150,1,0.15,2,9,0.0,1.0,6,40.0,30.0,9,0.731,1.0,1575.535,0.2,1,2018-02-22 08:57:56.000,73,2018-02-22 09:24:09.842,0.15,-90,0,150,60,1
55,0,1587.6129999999998,0,-150,1,0.15,2,3,0.0,1.0,12,40.0,30.0,3,0.861,0.0,1589.713,0.2,1,2018-02-22 08:57:56.000,73,2018-02-22 09:24:23.613,0.15,90,-180,-30,-120,1
56,0,1602.098,0,-150,1,0.15,2,9,0.0,1.0,6,40.0,30.0,9,0.991,0.0,1605.1029999999998,0.0,0,2018-02-22 08:57:56.000,73,2018-02-22 09:24:38.098,0.15,90,0,150,-120,1
58,0,1641.622,0,-150,1,0.15,2,9,0.0,1.0,6,40.0,30.0,9,0.861,1.0,1643.787,0.2,1,2018-02-22 08:57:56.000,73,2018-02-22 09:25:17.622,0.15,-90,0,150,60,1
59,0,1671.511,0,-150,1,0.15,2,9,0.0,1.0,6,40.0,30.0,9,1.121,0.0,1674.207,0.0,0,2018-02-22 08:57:56.000,73,2018-02-22 09:25:47.511,0.15,90,0,150,-120,1
61,0,1693.382,0,-150,1,0.15,2,9,0.0,1.0,6,40.0,30.0,9,0.601,1.0,1694.8370000000002,0.2,1,2018-02-22 08:57:56.000,73,2018-02-22 09:26:09.382,0.15,-90,0,150,60,1
62,0,1736.902,0,-150,1,0.15,2,3,0.0,1.0,12,40.0,30.0,3,0.991,0.0,1739.215,0.2,1,2018-02-22 08:57:56.000,73,2018-02-22 09:26:52.902,0.15,90,-180,-30,-120,1
63,0,1751.109,0,-150,1,0.15,2,9,0.0,1.0,6,40.0,30.0,9,1.121,0.0,1752.497,0.0,0,2018-02-22 08:57:56.000,73,2018-02-22 09:27:07.109,0.15,90,0,150,-120,1
68,0,1816.808,0,-150,1,0.15,2,3,0.0,1.0,12,40.0,30.0,3,1.121,1.0,1821.227,0.0,0,2018-02-22 08:57:56.000,73,2018-02-22 09:28:12.808,0.15,-90,-180,-30,60,1
70,0,1861.9279999999999,0,-150,1,0.15,2,9,0.0,1.0,6,40.0,30.0,9,0.861,1.0,1864.2620000000002,0.2,1,2018-02-22 08:57:56.000,73,2018-02-22 09:28:57.928,0.15,-90,0,150,60,1
71,0,1872.6660000000002,0,-150,1,0.15,2,9,0.0,1.0,6,40.0,30.0,9,0.731,0.0,1874.374,0.0,0,2018-02-22 08:57:56.000,73,2018-02-22 09:29:08.666,0.15,90,0,150,-120,1
1,0,22.586,0,0,1,0.15,2,9,0.0,1.0,6,40.0,30.0,9,0.861,1.0,26.458000000000002,0.2,1,2018-03-05 08:27:55.000,60,2018-03-05 08:28:17.586,0.15,-90,0,0,-90,1
2,0,56.968999999999994,0,0,1,0.15,2,9,0.0,1.0,6,40.0,30.0,9,1.121,1.0,62.178999999999995,0.2,1,2018-03-05 08:27:55.000,60,2018-03-05 08:28:51.969,0.15,-90,0,0,-90,1
3,0,75.536,0,0,1,0.15,2,9,0.0,1.0,6,40.0,30.0,9,0.601,0.0,77.19800000000001,0.0,0,2018-03-05 08:27:55.000,60,2018-03-05 08:29:10.536,0.15,90,0,0,90,1
5,0,113.90899999999999,0,0,1,0.15,2,9,0.0,1.0,6,40.0,30.0,9,0.731,1.0,115.55,0.2,1,2018-03-05 08:27:55.000,60,2018-03-05 08:29:48.909,0.15,-90,0,0,-90,1
6,0,136.621,0,0,1,0.15,2,9,0.0,1.0,6,40.0,30.0,9,0.731,1.0,140.045,0.2,1,2018-03-05 08:27:55.000,60,2018-03-05 08:30:11.621,0.15,-90,0,0,-90,1
7,0,168.41299999999998,0,0,1,0.15,2,3,0.0,1.0,12,40.0,30.0,3,0.991,1.0,171.482,0.0,0,2018-03-05 08:27:55.000,60,2018-03-05 08:30:43.413,0.15,-90,-180,-180,-90,1
12,0,413.223,0,0,1,0.15,2,3,0.0,1.0,12,40.0,30.0,3,0.861,0.0,414.717,0.2,1,2018-03-05 08:27:55.000,60,2018-03-05 08:34:48.223,0.15,90,-180,-180,90,1
13,0,433.43300000000005,0,0,1,0.15,2,9,0.0,1.0,6,40.0,30.0,9,0.601,1.0,435.43699999999995,0.2,1,2018-03-05 08:27:55.000,60,2018-03-05 08:35:08.433,0.15,-90,0,0,-90,1
14,0,449.335,0,0,1,0.15,2,9,0.0,1.0,6,40.0,30.0,9,0.731,1.0,451.19800000000004,0.2,1,2018-03-05 08:27:55.000,60,2018-03-05 08:35:24.335,0.15,-90,0,0,-90,1
15,0,465.615,0,0,1,0.15,2,9,0.0,1.0,6,40.0,30.0,9,0.991,1.0,466.97,0.2,1,2018-03-05 08:27:55.000,60,2018-03-05 08:35:40.615,0.15,-90,0,0,-90,1
16,0,487.215,0,0,1,0.15,2,3,0.0,1.0,12,40.0,30.0,3,0.861,0.0,489.06699999999995,0.2,1,2018-03-05 08:27:55.000,60,2018-03-05 08:36:02.215,0.15,90,-180,-180,90,1
17,0,522.456,0,0,1,0.15,2,3,0.0,1.0,12,40.0,30.0,3,0.601,0.0,523.881,0.2,1,2018-03-05 08:27:55.000,60,2018-03-05 08:36:37.456,0.15,90,-180,-180,90,1
18,0,547.955,0,0,1,0.15,2,3,0.0,1.0,12,40.0,30.0,3,0.731,1.0,550.827,0.0,0,2018-03-05 08:27:55.000,60,2018-03-05 08:37:02.955,0.15,-90,-180,-180,-90,1
21,0,591.5980000000001,0,0,1,0.15,2,3,0.0,1.0,12,40.0,30.0,3,0.601,0.0,593.28,0.2,1,2018-03-05 08:27:55.000,60,2018-03-05 08:37:46.598,0.15,90,-180,-180,90,1
22,0,610.2,0,0,1,0.15,2,3,0.0,1.0,12,40.0,30.0,3,0.861,1.0,612.22,0.0,0,2018-03-05 08:27:55.000,60,2018-03-05 08:38:05.200,0.15,-90,-180,-180,-90,1
1,0,9.814,0,0,1,0.15,2,9,0.0,1.0,6,40.0,30.0,9,0.861,1.0,12.41,0.2,1,2018-03-05 14:02:01.000,187,2018-03-05 14:02:10.814,0.15,-90,0,0,-90,1
2,0,54.275,0,0,1,0.15,2,9,0.0,1.0,6,40.0,30.0,9,1.121,1.0,55.501999999999995,0.2,1,2018-03-05 14:02:01.000,187,2018-03-05 14:02:55.275,0.15,-90,0,0,-90,1
3,0,69.99,0,0,1,0.15,2,3,0.0,1.0,12,40.0,30.0,3,0.601,0.0,72.153,0.2,1,2018-03-05 14:02:01.000,187,2018-03-05 14:03:10.990,0.15,90,-180,-180,90,1
4,0,86.259,0,0,1,0.15,2,3,0.0,1.0,12,40.0,30.0,3,0.731,0.0,87.45100000000001,0.2,1,2018-03-05 14:02:01.000,187,2018-03-05 14:03:27.259,0.15,90,-180,-180,90,1
5,0,110.257,0,0,1,0.15,2,9,0.0,1.0,6,40.0,30.0,9,0.991,0.0,112.089,0.0,0,2018-03-05 14:02:01.000,187,2018-03-05 14:03:51.257,0.15,90,0,0,90,1
7,0,148.981,0,0,1,0.15,2,9,0.0,1.0,6,40.0,30.0,9,0.731,1.0,150.702,0.2,1,2018-03-05 14:02:01.000,187,2018-03-05 14:04:29.981,0.15,-90,0,0,-90,1
8,0,217.40599999999998,0,0,1,0.15,2,3,0.0,1.0,12,40.0,30.0,3,0.861,0.0,218.81,0.2,1,2018-03-05 14:02:01.000,187,2018-03-05 14:05:38.406,0.15,90,-180,-180,90,1
9,0,256.539,0,0,1,0.15,2,3,0.0,1.0,12,40.0,30.0,3,1.121,0.0,257.733,0.2,1,2018-03-05 14:02:01.000,187,2018-03-05 14:06:17.539,0.15,90,-180,-180,90,1
10,0,280.027,0,0,1,0.15,2,9,0.0,1.0,6,40.0,30.0,9,0.601,1.0,282.655,0.2,1,2018-03-05 14:02:01.000,187,2018-03-05 14:06:41.027,0.15,-90,0,0,-90,1
11,0,297.855,0,0,1,0.15,2,3,0.0,1.0,12,40.0,30.0,3,0.601,1.0,299.53,0.0,0,2018-03-05 14:02:01.000,187,2018-03-05 14:06:58.855,0.15,-90,-180,-180,-90,1
13,0,339.30199999999996,0,0,1,0.15,2,3,0.0,1.0,12,40.0,30.0,3,0.991,0.0,340.815,0.2,1,2018-03-05 14:02:01.000,187,2018-03-05 14:07:40.302,0.15,90,-180,-180,90,1
14,0,361.006,0,0,1,0.15,2,3,0.0,1.0,12,40.0,30.0,3,0.731,0.0,362.236,0.2,1,2018-03-05 14:02:01.000,187,2018-03-05 14:08:02.006,0.15,90,-180,-180,90,1
15,0,398.50699999999995,0,0,1,0.15,2,9,0.0,1.0,6,40.0,30.0,9,1.121,1.0,400.523,0.2,1,2018-03-05 14:02:01.000,187,2018-03-05 14:08:39.507,0.15,-90,0,0,-90,1
16,0,418.92900000000003,0,0,1,0.15,2,9,0.0,1.0,6,40.0,30.0,9,0.991,1.0,420.164,0.2,1,2018-03-05 14:02:01.000,187,2018-03-05 14:08:59.929,0.15,-90,0,0,-90,1
17,0,436.80400000000003,0,0,1,0.15,2,3,0.0,1.0,12,40.0,30.0,3,0.731,1.0,438.653,0.0,0,2018-03-05 14:02:01.000,187,2018-03-05 14:09:17.804,0.15,-90,-180,-180,-90,1
20,0,487.04,0,0,1,0.15,2,3,0.0,1.0,12,40.0,30.0,3,0.861,0.0,488.87300000000005,0.2,1,2018-03-05 14:02:01.000,187,2018-03-05 14:10:08.040,0.15,90,-180,-180,90,1
21,0,530.637,0,0,1,0.15,2,9,0.0,1.0,6,40.0,30.0,9,0.991,0.0,532.623,0.0,0,2018-03-05 14:02:01.000,187,2018-03-05 14:10:51.637,0.15,90,0,0,90,1
24,0,569.658,0,0,1,0.15,2,9,0.0,1.0,6,40.0,30.0,9,0.731,1.0,571.062,0.2,1,2018-03-05 14:02:01.000,187,2018-03-05 14:11:30.658,0.15,-90,0,0,-90,1
25,0,597.145,0,0,1,0.15,2,3,0.0,1.0,12,40.0,30.0,3,0.861,1.0,599.124,0.0,0,2018-03-05 14:02:01.000,187,2018-03-05 14:11:58.145,0.15,-90,-180,-180,-90,1
28,0,637.09,0,0,1,0.15,2,9,0.0,1.0,6,40.0,30.0,9,0.731,1.0,638.555,0.2,1,2018-03-05 14:02:01.000,187,2018-03-05 14:12:38.090,0.15,-90,0,0,-90,1
29,0,655.439,0,0,1,0.15,2,3,0.0,1.0,12,40.0,30.0,3,0.861,1.0,656.783,0.0,0,2018-03-05 14:02:01.000,187,2018-03-05 14:12:56.439,0.15,-90,-180,-180,-90,1
32,0,699.16,0,0,1,0.15,2,3,0.0,1.0,12,40.0,30.0,3,0.601,0.0,700.29,0.2,1,2018-03-05 14:02:01.000,187,2018-03-05 14:13:40.160,0.15,90,-180,-180,90,1
33,0,757.914,0,0,1,0.15,2,9,0.0,1.0,6,40.0,30.0,9,1.121,0.0,759.677,0.0,0,2018-03-05 14:02:01.000,187,2018-03-05 14:14:38.914,0.15,90,0,0,90,1
35,0,784.694,0,0,1,0.15,2,9,0.0,1.0,6,40.0,30.0,9,0.991,1.0,786.24,0.2,1,2018-03-05 14:02:01.000,187,2018-03-05 14:15:05.694,0.15,-90,0,0,-90,1
36,0,811.22,0,0,1,0.15,2,9,0.0,1.0,6,40.0,30.0,9,0.601,1.0,814.555,0.2,1,2018-03-05 14:02:01.000,187,2018-03-05 14:15:32.220,0.15,-90,0,0,-90,1
37,0,850.16,0,0,1,0.15,2,9,0.0,1.0,6,40.0,30.0,9,0.731,0.0,851.329,0.0,0,2018-03-05 14:02:01.000,187,2018-03-05 14:16:11.160,0.15,90,0,0,90,1
1,0,52.52,0,0,1,0.15,2,9,0.0,1.0,6,40.0,30.0,9,0.861,1.0,54.675,0.2,1,2018-03-06 08:35:15.000,169,2018-03-06 08:36:07.520,0.15,-90,0,0,-90,1
1,0,32.731,0,0,1,0.15,2,3,0.0,1.0,12,40.0,30.0,3,1.121,0.0,34.106,0.2,1,2018-03-06 08:36:36.000,201,2018-03-06 08:37:08.731,0.15,90,-180,-180,90,1
2,0,103.96799999999999,0,0,1,0.15,2,3,0.0,1.0,12,40.0,30.0,3,0.861,0.0,104.87200000000001,0.2,1,2018-03-06 08:36:36.000,201,2018-03-06 08:38:19.968,0.15,90,-180,-180,90,1
3,0,126.792,0,0,1,0.15,2,9,0.0,1.0,6,40.0,30.0,9,0.991,1.0,128.707,0.2,1,2018-03-06 08:36:36.000,201,2018-03-06 08:38:42.792,0.15,-90,0,0,-90,1
4,0,143.562,0,0,1,0.15,2,3,0.0,1.0,12,40.0,30.0,3,0.731,1.0,144.899,0.0,0,2018-03-06 08:36:36.000,201,2018-03-06 08:38:59.562,0.15,-90,-180,-180,-90,1
7,0,229.532,0,0,1,0.15,2,3,0.0,1.0,12,40.0,30.0,3,0.991,0.0,230.47,0.2,1,2018-03-06 08:36:36.000,201,2018-03-06 08:40:25.532,0.15,90,-180,-180,90,1
8,0,252.403,0,0,1,0.15,2,3,0.0,1.0,12,40.0,30.0,3,0.601,0.0,253.31,0.2,1,2018-03-06 08:36:36.000,201,2018-03-06 08:40:48.403,0.15,90,-180,-180,90,1
9,0,293.927,0,0,1,0.15,2,9,0.0,1.0,6,40.0,30.0,9,0.861,0.0,295.173,0.0,0,2018-03-06 08:36:36.000,201,2018-03-06 08:41:29.927,0.15,90,0,0,90,1
12,0,342.042,0,0,1,0.15,2,9,0.0,1.0,6,40.0,30.0,9,0.861,1.0,344.046,0.2,1,2018-03-06 08:36:36.000,201,2018-03-06 08:42:18.042,0.15,-90,0,0,-90,1
13,0,360.91900000000004,0,0,1,0.15,2,9,0.0,1.0,6,40.0,30.0,9,0.601,1.0,362.81,0.2,1,2018-03-06 08:36:36.000,201,2018-03-06 08:42:36.919,0.15,-90,0,0,-90,1
14,0,387.19699999999995,0,0,1,0.15,2,9,0.0,1.0,6,40.0,30.0,9,0.991,1.0,388.717,0.2,1,2018-03-06 08:36:36.000,201,2018-03-06 08:43:03.197,0.15,-90,0,0,-90,1
15,0,409.702,0,0,1,0.15,2,9,0.0,1.0,6,40.0,30.0,9,0.731,1.0,411.278,0.2,1,2018-03-06 08:36:36.000,201,2018-03-06 08:43:25.702,0.15,-90,0,0,-90,1
16,0,428.952,0,0,1,0.15,2,9,0.0,1.0,6,40.0,30.0,9,0.731,1.0,430.667,0.2,1,2018-03-06 08:36:36.000,201,2018-03-06 08:43:44.952,0.15,-90,0,0,-90,1
17,0,448.158,0,0,1,0.15,2,3,0.0,1.0,12,40.0,30.0,3,0.861,1.0,450.36699999999996,0.0,0,2018-03-06 08:36:36.000,201,2018-03-06 08:44:04.158,0.15,-90,-180,-180,-90,1
19,0,540.34,0,0,1,0.15,2,9,0.0,1.0,6,40.0,30.0,9,0.601,0.0,542.056,0.0,0,2018-03-06 08:36:36.000,201,2018-03-06 08:45:36.340,0.15,90,0,0,90,1
21,0,595.8530000000001,0,0,1,0.15,2,9,0.0,1.0,6,40.0,30.0,9,0.861,1.0,597.146,0.2,1,2018-03-06 08:36:36.000,201,2018-03-06 08:46:31.853,0.15,-90,0,0,-90,1
22,0,618.398,0,0,1,0.15,2,9,0.0,1.0,6,40.0,30.0,9,0.991,1.0,620.236,0.2,1,2018-03-06 08:36:36.000,201,2018-03-06 08:46:54.398,0.15,-90,0,0,-90,1
23,0,639.0,0,0,1,0.15,2,3,0.0,1.0,12,40.0,30.0,3,1.121,1.0,640.317,0.0,0,2018-03-06 08:36:36.000,201,2018-03-06 08:47:15.000,0.15,-90,-180,-180,-90,1
25,0,671.329,0,0,1,0.15,2,3,0.0,1.0,12,40.0,30.0,3,0.601,0.0,672.288,0.2,1,2018-03-06 08:36:36.000,201,2018-03-06 08:47:47.329,0.15,90,-180,-180,90,1
26,0,692.9889999999999,0,0,1,0.15,2,3,0.0,1.0,12,40.0,30.0,3,0.991,1.0,695.2239999999999,0.0,0,2018-03-06 08:36:36.000,201,2018-03-06 08:48:08.989,0.15,-90,-180,-180,-90,1
29,0,752.895,0,0,1,0.15,2,3,0.0,1.0,12,40.0,30.0,3,0.601,1.0,754.8889999999999,0.0,0,2018-03-06 08:36:36.000,201,2018-03-06 08:49:08.895,0.15,-90,-180,-180,-90,1
31,0,795.018,0,0,1,0.15,2,9,0.0,1.0,6,40.0,30.0,9,0.731,1.0,797.5269999999999,0.2,1,2018-03-06 08:36:36.000,201,2018-03-06 08:49:51.018,0.15,-90,0,0,-90,1
32,0,813.057,0,0,1,0.15,2,3,0.0,1.0,12,40.0,30.0,3,0.861,1.0,814.35,0.0,0,2018-03-06 08:36:36.000,201,2018-03-06 08:50:09.057,0.15,-90,-180,-180,-90,1
34,0,887.956,0,0,1,0.15,2,3,0.0,1.0,12,40.0,30.0,3,1.121,0.0,889.64,0.22,1,2018-03-06 08:36:36.000,201,2018-03-06 08:51:23.956,0.15,90,-180,-180,90,1
35,0,909.505,0,0,1,0.15,2,3,0.0,1.0,12,40.0,30.0,3,0.991,1.0,911.422,0.0,0,2018-03-06 08:36:36.000,201,2018-03-06 08:51:45.505,0.15,-90,-180,-180,-90,1
38,0,987.1619999999999,0,0,1,0.15,2,9,0.0,1.0,6,40.0,30.0,9,0.861,0.0,988.698,0.0,0,2018-03-06 08:36:36.000,201,2018-03-06 08:53:03.162,0.15,90,0,0,90,1
41,0,1014.2339999999999,0,0,1,0.15,2,3,0.0,1.0,12,40.0,30.0,3,0.731,1.0,1016.087,0.0,0,2018-03-06 08:36:36.000,201,2018-03-06 08:53:30.234,0.15,-90,-180,-180,-90,1
43,0,1050.639,0,0,1,0.15,2,9,0.0,1.0,6,40.0,30.0,9,0.861,1.0,1052.692,0.18,1,2018-03-06 08:36:36.000,201,2018-03-06 08:54:06.639,0.15,-90,0,0,-90,1
44,0,1065.6,0,0,1,0.15,2,3,0.0,1.0,12,40.0,30.0,3,0.991,1.0,1066.906,0.0,0,2018-03-06 08:36:36.000,201,2018-03-06 08:54:21.600,0.15,-90,-180,-180,-90,1
47,0,1128.975,0,0,1,0.15,2,3,0.0,1.0,12,40.0,30.0,3,1.121,0.0,1130.122,0.22,1,2018-03-06 08:36:36.000,201,2018-03-06 08:55:24.975,0.15,90,-180,-180,90,1
48,0,1151.441,0,0,1,0.15,2,9,0.0,1.0,6,40.0,30.0,9,0.861,1.0,1155.157,0.18,1,2018-03-06 08:36:36.000,201,2018-03-06 08:55:47.441,0.15,-90,0,0,-90,1
49,0,1184.635,0,0,1,0.15,2,3,0.0,1.0,12,40.0,30.0,3,0.601,1.0,1188.289,0.0,0,2018-03-06 08:36:36.000,201,2018-03-06 08:56:20.635,0.15,-90,-180,-180,-90,1
51,0,1240.3980000000001,0,0,1,0.15,2,9,0.0,1.0,6,40.0,30.0,9,0.991,1.0,1242.893,0.18,1,2018-03-06 08:36:36.000,201,2018-03-06 08:57:16.398,0.15,-90,0,0,-90,1
52,0,1266.9489999999998,0,0,1,0.15,2,9,0.0,1.0,6,40.0,30.0,9,1.121,1.0,1268.491,0.18,1,2018-03-06 08:36:36.000,201,2018-03-06 08:57:42.949,0.15,-90,0,0,-90,1
53,0,1281.376,0,0,1,0.15,2,9,0.0,1.0,6,40.0,30.0,9,0.731,1.0,1284.432,0.18,1,2018-03-06 08:36:36.000,201,2018-03-06 08:57:57.376,0.15,-90,0,0,-90,1
54,0,1298.694,0,0,1,0.15,2,3,0.0,1.0,12,40.0,30.0,3,0.601,0.0,1301.1019999999999,0.22,1,2018-03-06 08:36:36.000,201,2018-03-06 08:58:14.694,0.15,90,-180,-180,90,1
55,0,1330.701,0,0,1,0.15,2,9,0.0,1.0,6,40.0,30.0,9,0.861,1.0,1333.325,0.18,1,2018-03-06 08:36:36.000,201,2018-03-06 08:58:46.701,0.15,-90,0,0,-90,1
56,0,1360.455,0,0,1,0.15,2,3,0.0,1.0,12,40.0,30.0,3,0.861,0.0,1363.405,0.22,1,2018-03-06 08:36:36.000,201,2018-03-06 08:59:16.455,0.15,90,-180,-180,90,1
57,0,1389.4379999999999,0,0,1,0.15,2,9,0.0,1.0,6,40.0,30.0,9,0.601,0.0,1391.116,0.0,0,2018-03-06 08:36:36.000,201,2018-03-06 08:59:45.438,0.15,90,0,0,90,1
64,0,1494.9460000000001,0,0,1,0.15,2,9,0.0,1.0,6,40.0,30.0,9,1.121,0.0,1497.1979999999999,0.0,0,2018-03-06 08:36:36.000,201,2018-03-06 09:01:30.946,0.15,90,0,0,90,1
67,0,1520.694,0,0,1,0.15,2,3,0.0,1.0,12,40.0,30.0,3,0.861,1.0,1522.55,0.0,0,2018-03-06 08:36:36.000,201,2018-03-06 09:01:56.694,0.15,-90,-180,-180,-90,1
1,0,101.93799999999999,0,0,1,0.15,2,3,0.0,1.0,12,40.0,30.0,3,0.601,0.0,102.92299999999999,0.2,1,2018-03-06 14:06:45.000,163,2018-03-06 14:08:26.938,0.15,90,-180,-180,90,1
2,0,122.6,0,0,1,0.15,2,9,0.0,1.0,6,40.0,30.0,9,0.861,0.0,123.589,0.0,0,2018-03-06 14:06:45.000,163,2018-03-06 14:08:47.600,0.15,90,0,0,90,1
4,0,151.395,0,0,1,0.15,2,9,0.0,1.0,6,40.0,30.0,9,0.731,1.0,152.725,0.2,1,2018-03-06 14:06:45.000,163,2018-03-06 14:09:16.395,0.15,-90,0,0,-90,1
5,0,167.22400000000002,0,0,1,0.15,2,9,0.0,1.0,6,40.0,30.0,9,0.991,1.0,168.484,0.2,1,2018-03-06 14:06:45.000,163,2018-03-06 14:09:32.224,0.15,-90,0,0,-90,1
6,0,183.91,0,0,1,0.15,2,9,0.0,1.0,6,40.0,30.0,9,0.601,1.0,185.442,0.2,1,2018-03-06 14:06:45.000,163,2018-03-06 14:09:48.910,0.15,-90,0,0,-90,1
7,0,203.232,0,0,1,0.15,2,9,0.0,1.0,6,40.0,30.0,9,1.121,1.0,204.643,0.2,1,2018-03-06 14:06:45.000,163,2018-03-06 14:10:08.232,0.15,-90,0,0,-90,1
8,0,219.43400000000003,0,0,1,0.15,2,3,0.0,1.0,12,40.0,30.0,3,0.731,0.0,220.845,0.2,1,2018-03-06 14:06:45.000,163,2018-03-06 14:10:24.434,0.15,90,-180,-180,90,1
9,0,328.694,0,0,1,0.15,2,3,0.0,1.0,12,40.0,30.0,3,0.991,0.0,329.816,0.2,1,2018-03-06 14:06:45.000,163,2018-03-06 14:12:13.694,0.15,90,-180,-180,90,1
10,0,351.425,0,0,1,0.15,2,3,0.0,1.0,12,40.0,30.0,3,0.861,1.0,353.027,0.0,0,2018-03-06 14:06:45.000,163,2018-03-06 14:12:36.425,0.15,-90,-180,-180,-90,1
12,0,422.61400000000003,0,0,1,0.15,2,3,0.0,1.0,12,40.0,30.0,3,0.601,0.0,423.723,0.2,1,2018-03-06 14:06:45.000,163,2018-03-06 14:13:47.614,0.15,90,-180,-180,90,1
13,0,444.121,0,0,1,0.15,2,9,0.0,1.0,6,40.0,30.0,9,0.731,0.0,445.3,0.0,0,2018-03-06 14:06:45.000,163,2018-03-06 14:14:09.121,0.15,90,0,0,90,1
15,0,466.051,0,0,1,0.15,2,3,0.0,1.0,12,40.0,30.0,3,0.861,1.0,467.58099999999996,0.0,0,2018-03-06 14:06:45.000,163,2018-03-06 14:14:31.051,0.15,-90,-180,-180,-90,1
17,0,553.7909999999999,0,0,1,0.15,2,3,0.0,1.0,12,40.0,30.0,3,0.731,0.0,555.531,0.2,1,2018-03-06 14:06:45.000,163,2018-03-06 14:15:58.791,0.15,90,-180,-180,90,1
18,0,581.44,0,0,1,0.15,2,3,0.0,1.0,12,40.0,30.0,3,0.991,1.0,583.038,0.0,0,2018-03-06 14:06:45.000,163,2018-03-06 14:16:26.440,0.15,-90,-180,-180,-90,1
20,0,670.1510000000001,0,0,1,0.15,2,3,0.0,1.0,12,40.0,30.0,3,0.601,0.0,679.052,0.2,1,2018-03-06 14:06:45.000,163,2018-03-06 14:17:55.151,0.15,90,-180,-180,90,1
21,0,696.1010000000001,0,0,1,0.15,2,3,0.0,1.0,12,40.0,30.0,3,0.601,0.0,701.795,0.2,1,2018-03-06 14:06:45.000,163,2018-03-06 14:18:21.101,0.15,90,-180,-180,90,1
22,0,735.072,0,0,1,0.15,2,9,0.0,1.0,6,40.0,30.0,9,0.861,0.0,738.002,0.0,0,2018-03-06 14:06:45.000,163,2018-03-06 14:19:00.072,0.15,90,0,0,90,1
24,0,793.7510000000001,0,0,1,0.15,2,9,0.0,1.0,6,40.0,30.0,9,1.121,1.0,795.5369999999999,0.2,1,2018-03-06 14:06:45.000,163,2018-03-06 14:19:58.751,0.15,-90,0,0,-90,1
25,0,810.561,0,0,1,0.15,2,9,0.0,1.0,6,40.0,30.0,9,0.731,1.0,812.471,0.2,1,2018-03-06 14:06:45.000,163,2018-03-06 14:20:15.561,0.15,-90,0,0,-90,1
26,0,827.666,0,0,1,0.15,2,9,0.0,1.0,6,40.0,30.0,9,0.601,0.0,831.068,0.0,0,2018-03-06 14:06:45.000,163,2018-03-06 14:20:32.666,0.15,90,0,0,90,1
30,0,885.04,0,0,1,0.15,2,3,0.0,1.0,12,40.0,30.0,3,1.121,1.0,887.612,0.0,0,2018-03-06 14:06:45.000,163,2018-03-06 14:21:30.040,0.15,-90,-180,-180,-90,1
33,0,960.8539999999999,0,0,1,0.15,2,9,0.0,1.0,6,40.0,30.0,9,1.121,1.0,969.452,0.2,1,2018-03-06 14:06:45.000,163,2018-03-06 14:22:45.854,0.15,-90,0,0,-90,1
34,0,982.31,0,0,1,0.15,2,9,0.0,1.0,6,40.0,30.0,9,0.731,1.0,984.171,0.2,1,2018-03-06 14:06:45.000,163,2018-03-06 14:23:07.310,0.15,-90,0,0,-90,1
35,0,1001.868,0,0,1,0.15,2,3,0.0,1.0,12,40.0,30.0,3,0.601,1.0,1004.7860000000001,0.0,0,2018-03-06 14:06:45.000,163,2018-03-06 14:23:26.868,0.15,-90,-180,-180,-90,1
37,0,1039.9,0,0,1,0.15,2,9,0.0,1.0,6,40.0,30.0,9,0.601,0.0,1042.345,0.0,0,2018-03-06 14:06:45.000,163,2018-03-06 14:24:04.900,0.15,90,0,0,90,1
39,0,1072.471,0,0,1,0.15,2,9,0.0,1.0,6,40.0,30.0,9,1.121,1.0,1082.809,0.2,1,2018-03-06 14:06:45.000,163,2018-03-06 14:24:37.471,0.15,-90,0,0,-90,1
40,0,1095.117,0,0,1,0.15,2,3,0.0,1.0,12,40.0,30.0,3,0.991,1.0,1097.487,0.0,0,2018-03-06 14:06:45.000,163,2018-03-06 14:25:00.117,0.15,-90,-180,-180,-90,1
42,0,1125.356,0,0,1,0.15,2,9,0.0,1.0,6,40.0,30.0,9,0.861,0.0,1127.062,0.0,0,2018-03-06 14:06:45.000,163,2018-03-06 14:25:30.356,0.15,90,0,0,90,1
1,0,13.97,0,0,1,0.15,2,9,0.0,1.0,6,40.0,30.0,9,1.121,1.0,22.237,0.2,1,2018-03-07 08:42:51.000,126,2018-03-07 08:43:04.970,0.15,-90,0,0,-90,1
2,0,59.211000000000006,0,0,1,0.15,2,9,0.0,1.0,6,40.0,30.0,9,0.861,0.0,64.227,0.0,0,2018-03-07 08:42:51.000,126,2018-03-07 08:43:50.211,0.15,90,0,0,90,1
5,0,106.955,0,0,1,0.15,2,3,0.0,1.0,12,40.0,30.0,3,0.991,1.0,108.493,0.0,0,2018-03-07 08:42:51.000,126,2018-03-07 08:44:37.955,0.15,-90,-180,-180,-90,1
7,0,147.338,0,0,1,0.15,2,3,0.0,1.0,12,40.0,30.0,3,0.731,0.0,148.45,0.2,1,2018-03-07 08:42:51.000,126,2018-03-07 08:45:18.338,0.15,90,-180,-180,90,1
8,0,167.91299999999998,0,0,1,0.15,2,3,0.0,1.0,12,40.0,30.0,3,0.991,0.0,169.122,0.2,1,2018-03-07 08:42:51.000,126,2018-03-07 08:45:38.913,0.15,90,-180,-180,90,1
9,0,191.609,0,0,1,0.15,2,9,0.0,1.0,6,40.0,30.0,9,1.121,0.0,192.676,0.0,0,2018-03-07 08:42:51.000,126,2018-03-07 08:46:02.609,0.15,90,0,0,90,1
12,0,232.523,0,0,1,0.15,2,3,0.0,1.0,12,40.0,30.0,3,0.991,1.0,233.58700000000002,0.0,0,2018-03-07 08:42:51.000,126,2018-03-07 08:46:43.523,0.15,-90,-180,-180,-90,1
14,0,271.052,0,0,1,0.15,2,3,0.0,1.0,12,40.0,30.0,3,0.861,1.0,272.645,0.0,0,2018-03-07 08:42:51.000,126,2018-03-07 08:47:22.052,0.15,-90,-180,-180,-90,1
16,0,326.856,0,0,1,0.15,2,9,0.0,1.0,6,40.0,30.0,9,0.861,0.0,328.23199999999997,0.0,0,2018-03-07 08:42:51.000,126,2018-03-07 08:48:17.856,0.15,90,0,0,90,1
19,0,398.505,0,0,1,0.15,2,3,0.0,1.0,12,40.0,30.0,3,0.731,0.0,399.531,0.2,1,2018-03-07 08:42:51.000,126,2018-03-07 08:49:29.505,0.15,90,-180,-180,90,1
20,0,419.343,0,0,1,0.15,2,3,0.0,1.0,12,40.0,30.0,3,1.121,0.0,420.49699999999996,0.2,1,2018-03-07 08:42:51.000,126,2018-03-07 08:49:50.343,0.15,90,-180,-180,90,1
21,0,459.945,0,0,1,0.15,2,3,0.0,1.0,12,40.0,30.0,3,0.861,0.0,461.024,0.2,1,2018-03-07 08:42:51.000,126,2018-03-07 08:50:30.945,0.15,90,-180,-180,90,1
22,0,487.711,0,0,1,0.15,2,9,0.0,1.0,6,40.0,30.0,9,0.601,0.0,489.236,0.0,0,2018-03-07 08:42:51.000,126,2018-03-07 08:50:58.711,0.15,90,0,0,90,1
24,0,516.1,0,0,1,0.15,2,9,0.0,1.0,6,40.0,30.0,9,0.731,1.0,517.432,0.2,1,2018-03-07 08:42:51.000,126,2018-03-07 08:51:27.100,0.15,-90,0,0,-90,1
25,0,537.003,0,0,1,0.15,2,9,0.0,1.0,6,40.0,30.0,9,0.991,1.0,538.2719999999999,0.2,1,2018-03-07 08:42:51.000,126,2018-03-07 08:51:48.003,0.15,-90,0,0,-90,1
26,0,554.128,0,0,1,0.15,2,3,0.0,1.0,12,40.0,30.0,3,0.861,1.0,555.863,0.0,0,2018-03-07 08:42:51.000,126,2018-03-07 08:52:05.128,0.15,-90,-180,-180,-90,1
28,0,617.867,0,0,1,0.15,2,9,0.0,1.0,6,40.0,30.0,9,1.121,0.0,619.45,0.0,0,2018-03-07 08:42:51.000,126,2018-03-07 08:53:08.867,0.15,90,0,0,90,1
30,0,643.776,0,0,1,0.15,2,9,0.0,1.0,6,40.0,30.0,9,0.731,1.0,645.1080000000001,0.2,1,2018-03-07 08:42:51.000,126,2018-03-07 08:53:34.776,0.15,-90,0,0,-90,1
31,0,662.654,0,0,1,0.15,2,3,0.0,1.0,12,40.0,30.0,3,0.861,0.0,664.6239999999999,0.2,1,2018-03-07 08:42:51.000,126,2018-03-07 08:53:53.654,0.15,90,-180,-180,90,1
32,0,700.232,0,0,1,0.15,2,9,0.0,1.0,6,40.0,30.0,9,0.991,0.0,701.56,0.0,0,2018-03-07 08:42:51.000,126,2018-03-07 08:54:31.232,0.15,90,0,0,90,1
34,0,740.1460000000001,0,0,1,0.15,2,9,0.0,1.0,6,40.0,30.0,9,0.601,1.0,742.225,0.2,1,2018-03-07 08:42:51.000,126,2018-03-07 08:55:11.146,0.15,-90,0,0,-90,1
35,0,758.6310000000001,0,0,1,0.15,2,3,0.0,1.0,12,40.0,30.0,3,0.731,0.0,760.321,0.2,1,2018-03-07 08:42:51.000,126,2018-03-07 08:55:29.631,0.15,90,-180,-180,90,1
36,0,789.675,0,0,1,0.15,2,9,0.0,1.0,6,40.0,30.0,9,0.991,1.0,791.17,0.2,1,2018-03-07 08:42:51.000,126,2018-03-07 08:56:00.675,0.15,-90,0,0,-90,1
37,0,807.89,0,0,1,0.15,2,3,0.0,1.0,12,40.0,30.0,3,0.731,0.0,809.6460000000001,0.2,1,2018-03-07 08:42:51.000,126,2018-03-07 08:56:18.890,0.15,90,-180,-180,90,1
38,0,830.812,0,0,1,0.15,2,3,0.0,1.0,12,40.0,30.0,3,0.601,0.0,831.7189999999999,0.2,1,2018-03-07 08:42:51.000,126,2018-03-07 08:56:41.812,0.15,90,-180,-180,90,1
39,0,875.18,0,0,1,0.15,2,3,0.0,1.0,12,40.0,30.0,3,0.861,0.0,876.9069999999999,0.2,1,2018-03-07 08:42:51.000,126,2018-03-07 08:57:26.180,0.15,90,-180,-180,90,1
40,0,894.461,0,0,1,0.15,2,3,0.0,1.0,12,40.0,30.0,3,1.121,1.0,896.485,0.0,0,2018-03-07 08:42:51.000,126,2018-03-07 08:57:45.461,0.15,-90,-180,-180,-90,1
42,0,942.9910000000001,0,0,1,0.15,2,3,0.0,1.0,12,40.0,30.0,3,1.121,0.0,944.1060000000001,0.2,1,2018-03-07 08:42:51.000,126,2018-03-07 08:58:33.991,0.15,90,-180,-180,90,1
43,0,958.913,0,0,1,0.15,2,9,0.0,1.0,6,40.0,30.0,9,0.601,1.0,962.205,0.2,1,2018-03-07 08:42:51.000,126,2018-03-07 08:58:49.913,0.15,-90,0,0,-90,1
44,0,1028.974,0,0,1,0.15,2,3,0.0,1.0,12,40.0,30.0,3,0.861,0.0,1030.1480000000001,0.2,1,2018-03-07 08:42:51.000,126,2018-03-07 08:59:59.974,0.15,90,-180,-180,90,1
45,0,1056.4769999999999,0,0,1,0.15,2,3,0.0,1.0,12,40.0,30.0,3,0.991,1.0,1058.567,0.0,0,2018-03-07 08:42:51.000,126,2018-03-07 09:00:27.477,0.15,-90,-180,-180,-90,1
1,0,8.344,1,0,1,0.15,2,3,0.0,1.0,12,40.0,30.0,3,0.601,0.0,9.857000000000001,0.22,1,2018-03-09 08:04:02.000,197,2018-03-09 08:04:10.344,0.15,90,-180,-180,90,1
2,0,14.335,0,0,1,0.15,2,3,0.0,1.0,12,40.0,30.0,3,0.731,0.0,15.419,0.22,1,2018-03-09 08:04:02.000,197,2018-03-09 08:04:16.335,0.15,90,-180,-180,90,1
3,0,44.696999999999996,0,0,1,0.15,2,9,0.0,1.0,6,40.0,30.0,9,0.991,1.0,47.01,0.18,1,2018-03-09 08:04:02.000,197,2018-03-09 08:04:46.697,0.15,-90,0,0,-90,1
4,0,61.492,0,0,1,0.15,2,9,0.0,1.0,6,40.0,30.0,9,0.861,1.0,62.873999999999995,0.18,1,2018-03-09 08:04:02.000,197,2018-03-09 08:05:03.492,0.15,-90,0,0,-90,1
5,0,76.697,0,0,1,0.15,2,3,0.0,1.0,12,40.0,30.0,3,1.121,1.0,78.268,0.0,0,2018-03-09 08:04:02.000,197,2018-03-09 08:05:18.697,0.15,-90,-180,-180,-90,1
7,0,133.162,0,0,1,0.15,2,9,0.0,1.0,6,40.0,30.0,9,0.861,1.0,134.499,0.18,1,2018-03-09 08:04:02.000,197,2018-03-09 08:06:15.162,0.15,-90,0,0,-90,1
8,0,149.637,0,0,1,0.15,2,9,0.0,1.0,6,40.0,30.0,9,0.731,1.0,151.482,0.18,1,2018-03-09 08:04:02.000,197,2018-03-09 08:06:31.637,0.15,-90,0,0,-90,1
9,0,166.00400000000002,0,0,1,0.15,2,3,0.0,1.0,12,40.0,30.0,3,1.121,1.0,167.65400000000002,0.0,0,2018-03-09 08:04:02.000,197,2018-03-09 08:06:48.004,0.15,-90,-180,-180,-90,1
11,0,233.50099999999998,0,0,1,0.15,2,9,0.0,1.0,6,40.0,30.0,9,0.861,1.0,234.804,0.18,1,2018-03-09 08:04:02.000,197,2018-03-09 08:07:55.501,0.15,-90,0,0,-90,1
12,0,247.195,0,0,1,0.15,2,3,0.0,1.0,12,40.0,30.0,3,0.731,0.0,249.50099999999998,0.22,1,2018-03-09 08:04:02.000,197,2018-03-09 08:08:09.195,0.15,90,-180,-180,90,1
13,0,285.15,0,0,1,0.15,2,9,0.0,1.0,6,40.0,30.0,9,1.121,1.0,286.711,0.18,1,2018-03-09 08:04:02.000,197,2018-03-09 08:08:47.150,0.15,-90,0,0,-90,1
14,0,303.10900000000004,0,0,1,0.15,2,9,0.0,1.0,6,40.0,30.0,9,0.601,1.0,304.158,0.18,1,2018-03-09 08:04:02.000,197,2018-03-09 08:09:05.109,0.15,-90,0,0,-90,1
15,0,320.183,0,0,1,0.15,2,3,0.0,1.0,12,40.0,30.0,3,0.991,1.0,321.436,0.0,0,2018-03-09 08:04:02.000,197,2018-03-09 08:09:22.183,0.15,-90,-180,-180,-90,1
17,0,355.38199999999995,0,0,1,0.15,2,3,0.0,1.0,12,40.0,30.0,3,0.991,0.0,356.526,0.22,1,2018-03-09 08:04:02.000,197,2018-03-09 08:09:57.382,0.15,90,-180,-180,90,1
18,0,381.539,0,0,1,0.15,2,9,0.0,1.0,6,40.0,30.0,9,0.861,0.0,382.70099999999996,0.0,0,2018-03-09 08:04:02.000,197,2018-03-09 08:10:23.539,0.15,90,0,0,90,1
20,0,407.819,0,0,1,0.15,2,3,0.0,1.0,12,40.0,30.0,3,1.121,0.0,409.406,0.22,1,2018-03-09 08:04:02.000,197,2018-03-09 08:10:49.819,0.15,90,-180,-180,90,1
21,0,463.29,0,0,1,0.15,2,3,0.0,1.0,12,40.0,30.0,3,0.861,0.0,470.531,0.22,1,2018-03-09 08:04:02.000,197,2018-03-09 08:11:45.290,0.15,90,-180,-180,90,1
22,0,508.13199999999995,0,0,1,0.15,2,9,0.0,1.0,6,40.0,30.0,9,1.121,1.0,510.898,0.18,1,2018-03-09 08:04:02.000,197,2018-03-09 08:12:30.132,0.15,-90,0,0,-90,1
23,0,522.494,0,0,1,0.15,2,3,0.0,1.0,12,40.0,30.0,3,0.731,0.0,525.8009999999999,0.22,1,2018-03-09 08:04:02.000,197,2018-03-09 08:12:44.494,0.15,90,-180,-180,90,1
24,0,551.102,0,0,1,0.15,2,9,0.0,1.0,6,40.0,30.0,9,0.991,1.0,555.681,0.18,1,2018-03-09 08:04:02.000,197,2018-03-09 08:13:13.102,0.15,-90,0,0,-90,1
25,0,570.6,0,0,1,0.15,2,3,0.0,1.0,12,40.0,30.0,3,0.601,1.0,573.401,0.0,0,2018-03-09 08:04:02.000,197,2018-03-09 08:13:32.600,0.15,-90,-180,-180,-90,1
27,0,686.495,0,0,1,0.15,2,9,0.0,1.0,6,40.0,30.0,9,1.121,1.0,688.164,0.18,1,2018-03-09 08:04:02.000,197,2018-03-09 08:15:28.495,0.15,-90,0,0,-90,1
28,0,702.431,0,0,1,0.15,2,3,0.0,1.0,12,40.0,30.0,3,0.991,1.0,704.199,0.0,0,2018-03-09 08:04:02.000,197,2018-03-09 08:15:44.431,0.15,-90,-180,-180,-90,1
30,0,755.6489999999999,0,0,1,0.15,2,3,0.0,1.0,12,40.0,30.0,3,0.861,0.0,764.605,0.22,1,2018-03-09 08:04:02.000,197,2018-03-09 08:16:37.649,0.15,90,-180,-180,90,1
31,0,785.488,0,0,1,0.15,2,3,0.0,1.0,12,40.0,30.0,3,0.731,0.0,787.125,0.22,1,2018-03-09 08:04:02.000,197,2018-03-09 08:17:07.488,0.15,90,-180,-180,90,1
32,0,808.336,0,0,1,0.15,2,3,0.0,1.0,12,40.0,30.0,3,0.601,0.0,809.56,0.22,1,2018-03-09 08:04:02.000,197,2018-03-09 08:17:30.336,0.15,90,-180,-180,90,1
33,0,838.079,0,0,1,0.15,2,9,0.0,1.0,6,40.0,30.0,9,0.861,0.0,841.2860000000001,0.0,0,2018-03-09 08:04:02.000,197,2018-03-09 08:18:00.079,0.15,90,0,0,90,1
35,0,864.93,0,0,1,0.15,2,9,0.0,1.0,6,40.0,30.0,9,0.991,0.0,867.209,0.0,0,2018-03-09 08:04:02.000,197,2018-03-09 08:18:26.930,0.15,90,0,0,90,1
38,0,986.258,0,0,1,0.15,2,9,0.0,1.0,6,40.0,30.0,9,0.991,1.0,994.433,0.18,1,2018-03-09 08:04:02.000,197,2018-03-09 08:20:28.258,0.15,-90,0,0,-90,1
39,0,1043.787,0,0,1,0.15,2,3,0.0,1.0,12,40.0,30.0,3,0.601,0.0,1049.651,0.22,1,2018-03-09 08:04:02.000,197,2018-03-09 08:21:25.787,0.15,90,-180,-180,90,1
40,0,1068.048,0,0,1,0.15,2,9,0.0,1.0,6,40.0,30.0,9,1.121,0.0,1069.121,0.0,0,2018-03-09 08:04:02.000,197,2018-03-09 08:21:50.048,0.15,90,0,0,90,1
44,0,1128.431,0,0,1,0.15,2,3,0.0,1.0,12,40.0,30.0,3,1.121,1.0,1130.192,0.0,0,2018-03-09 08:04:02.000,197,2018-03-09 08:22:50.431,0.15,-90,-180,-180,-90,1
46,0,1155.774,0,0,1,0.15,2,9,0.0,1.0,6,40.0,30.0,9,0.991,1.0,1158.266,0.18,1,2018-03-09 08:04:02.000,197,2018-03-09 08:23:17.774,0.15,-90,0,0,-90,1
47,0,1171.042,0,0,1,0.15,2,9,0.0,1.0,6,40.0,30.0,9,0.731,1.0,1172.553,0.18,1,2018-03-09 08:04:02.000,197,2018-03-09 08:23:33.042,0.15,-90,0,0,-90,1
48,0,1187.52,0,0,1,0.15,2,9,0.0,1.0,6,40.0,30.0,9,0.861,1.0,1189.126,0.18,1,2018-03-09 08:04:02.000,197,2018-03-09 08:23:49.520,0.15,-90,0,0,-90,1
49,0,1201.683,0,0,1,0.15,2,9,0.0,1.0,6,40.0,30.0,9,0.601,0.0,1203.619,0.0,0,2018-03-09 08:04:02.000,197,2018-03-09 08:24:03.683,0.15,90,0,0,90,1
52,0,1244.788,0,0,1,0.15,2,3,0.0,1.0,12,40.0,30.0,3,0.601,0.0,1245.9360000000001,0.22,1,2018-03-09 08:04:02.000,197,2018-03-09 08:24:46.788,0.15,90,-180,-180,90,1
53,0,1260.3010000000002,0,0,1,0.15,2,3,0.0,1.0,12,40.0,30.0,3,1.121,0.0,1261.27,0.22,1,2018-03-09 08:04:02.000,197,2018-03-09 08:25:02.301,0.15,90,-180,-180,90,1
54,0,1325.529,0,0,1,0.15,2,3,0.0,1.0,12,40.0,30.0,3,0.991,0.0,1331.5710000000001,0.22,1,2018-03-09 08:04:02.000,197,2018-03-09 08:26:07.529,0.15,90,-180,-180,90,1
55,0,1337.98,0,0,1,0.15,2,9,0.0,1.0,6,40.0,30.0,9,0.731,0.0,1338.97,0.0,0,2018-03-09 08:04:02.000,197,2018-03-09 08:26:19.980,0.15,90,0,0,90,1
59,0,1386.942,0,0,1,0.15,2,9,0.0,1.0,6,40.0,30.0,9,0.861,1.0,1389.004,0.18,1,2018-03-09 08:04:02.000,197,2018-03-09 08:27:08.942,0.15,-90,0,0,-90,1
1,0,63.11,0,30,1,0.15,2,9,0.0,1.0,6,40.0,30.0,9,1.121,1.0,67.89699999999999,0.18,1,2018-03-09 15:12:13.000,196,2018-03-09 15:13:16.110,0.15,-90,0,-30,-120,1
2,0,84.045,0,30,1,0.15,2,9,0.0,1.0,6,40.0,30.0,9,0.601,0.0,85.695,0.0,0,2018-03-09 15:12:13.000,196,2018-03-09 15:13:37.045,0.15,90,0,-30,60,1
5,0,121.913,0,30,1,0.15,2,3,0.0,1.0,12,40.0,30.0,3,0.991,1.0,123.309,0.0,0,2018-03-09 15:12:13.000,196,2018-03-09 15:14:14.913,0.15,-90,-180,150,-120,1
8,0,229.774,0,30,1,0.15,2,9,0.0,1.0,6,40.0,30.0,9,1.121,1.0,231.858,0.18,1,2018-03-09 15:12:13.000,196,2018-03-09 15:16:02.774,0.15,-90,0,-30,-120,1
9,0,248.80900000000003,0,30,1,0.15,2,3,0.0,1.0,12,40.0,30.0,3,0.601,0.0,250.787,0.22,1,2018-03-09 15:12:13.000,196,2018-03-09 15:16:21.809,0.15,90,-180,150,60,1
10,0,279.433,0,30,1,0.15,2,3,0.0,1.0,12,40.0,30.0,3,0.861,0.0,280.56,0.22,1,2018-03-09 15:12:13.000,196,2018-03-09 15:16:52.433,0.15,90,-180,150,60,1
11,0,314.39799999999997,0,30,1,0.15,2,3,0.0,1.0,12,40.0,30.0,3,0.861,0.0,315.465,0.22,1,2018-03-09 15:12:13.000,196,2018-03-09 15:17:27.398,0.15,90,-180,150,60,1
12,0,359.902,0,30,1,0.15,2,9,0.0,1.0,6,40.0,30.0,9,0.731,0.0,361.256,0.0,0,2018-03-09 15:12:13.000,196,2018-03-09 15:18:12.902,0.15,90,0,-30,60,1
15,0,409.249,0,30,1,0.15,2,9,0.0,1.0,6,40.0,30.0,9,0.991,1.0,410.695,0.18,1,2018-03-09 15:12:13.000,196,2018-03-09 15:19:02.249,0.15,-90,0,-30,-120,1
16,0,431.358,0,30,1,0.15,2,9,0.0,1.0,6,40.0,30.0,9,0.731,1.0,433.80400000000003,0.18,1,2018-03-09 15:12:13.000,196,2018-03-09 15:19:24.358,0.15,-90,0,-30,-120,1
17,0,449.61699999999996,0,30,1,0.15,2,3,0.0,1.0,12,40.0,30.0,3,0.991,0.0,452.233,0.22,1,2018-03-09 15:12:13.000,196,2018-03-09 15:19:42.617,0.15,90,-180,150,60,1
18,0,472.017,0,30,1,0.15,2,3,0.0,1.0,12,40.0,30.0,3,0.601,0.0,473.10699999999997,0.22,1,2018-03-09 15:12:13.000,196,2018-03-09 15:20:05.017,0.15,90,-180,150,60,1
19,0,498.176,0,30,1,0.15,2,9,0.0,1.0,6,40.0,30.0,9,0.861,0.0,499.209,0.0,0,2018-03-09 15:12:13.000,196,2018-03-09 15:20:31.176,0.15,90,0,-30,60,1
21,0,529.4590000000001,0,30,1,0.15,2,3,0.0,1.0,12,40.0,30.0,3,0.731,1.0,530.749,0.0,0,2018-03-09 15:12:13.000,196,2018-03-09 15:21:02.459,0.15,-90,-180,150,-120,1
23,0,662.8839999999999,0,30,1,0.15,2,9,0.0,1.0,6,40.0,30.0,9,0.991,1.0,684.822,0.18,1,2018-03-09 15:12:13.000,196,2018-03-09 15:23:15.884,0.15,-90,0,-30,-120,1
24,0,700.4960000000001,0,30,1,0.15,2,9,0.0,1.0,6,40.0,30.0,9,1.121,1.0,702.2180000000001,0.18,1,2018-03-09 15:12:13.000,196,2018-03-09 15:23:53.496,0.15,-90,0,-30,-120,1
25,0,723.11,0,30,1,0.15,2,9,0.0,1.0,6,40.0,30.0,9,0.861,1.0,726.88,0.18,1,2018-03-09 15:12:13.000,196,2018-03-09 15:24:16.110,0.15,-90,0,-30,-120,1
26,0,743.7339999999999,0,30,1,0.15,2,3,0.0,1.0,12,40.0,30.0,3,0.601,1.0,746.922,0.0,0,2018-03-09 15:12:13.000,196,2018-03-09 15:24:36.734,0.15,-90,-180,150,-120,1
28,0,806.2260000000001,0,30,1,0.15,2,3,0.0,1.0,12,40.0,30.0,3,0.991,0.0,807.372,0.22,1,2018-03-09 15:12:13.000,196,2018-03-09 15:25:39.226,0.15,90,-180,150,60,1
29,0,830.398,0,30,1,0.15,2,3,0.0,1.0,12,40.0,30.0,3,0.861,0.0,831.4860000000001,0.22,1,2018-03-09 15:12:13.000,196,2018-03-09 15:26:03.398,0.15,90,-180,150,60,1
30,0,863.015,0,30,1,0.15,2,3,0.0,1.0,12,40.0,30.0,3,1.121,0.0,864.183,0.22,1,2018-03-09 15:12:13.000,196,2018-03-09 15:26:36.015,0.15,90,-180,150,60,1
31,0,908.4760000000001,0,30,1,0.15,2,9,0.0,1.0,6,40.0,30.0,9,1.121,0.0,910.2280000000001,0.0,0,2018-03-09 15:12:13.000,196,2018-03-09 15:27:21.476,0.15,90,0,-30,60,1
33,0,934.52,0,30,1,0.15,2,3,0.0,1.0,12,40.0,30.0,3,0.601,1.0,936.85,0.0,0,2018-03-09 15:12:13.000,196,2018-03-09 15:27:47.520,0.15,-90,-180,150,-120,1
36,0,993.804,0,30,1,0.15,2,9,0.0,1.0,6,40.0,30.0,9,0.991,0.0,996.298,0.0,0,2018-03-09 15:12:13.000,196,2018-03-09 15:28:46.804,0.15,90,0,-30,60,1
38,0,1020.253,0,30,1,0.15,2,9,0.0,1.0,6,40.0,30.0,9,0.861,1.0,1022.9069999999999,0.18,1,2018-03-09 15:12:13.000,196,2018-03-09 15:29:13.253,0.15,-90,0,-30,-120,1
39,0,1069.4089999999999,0,30,1,0.15,2,3,0.0,1.0,12,40.0,30.0,3,1.121,0.0,1070.627,0.22,1,2018-03-09 15:12:13.000,196,2018-03-09 15:30:02.409,0.15,90,-180,150,60,1
40,0,1095.191,0,30,1,0.15,2,9,0.0,1.0,6,40.0,30.0,9,0.731,0.0,1096.768,0.0,0,2018-03-09 15:12:13.000,196,2018-03-09 15:30:28.191,0.15,90,0,-30,60,1
42,0,1127.1019999999999,0,30,1,0.15,2,3,0.0,1.0,12,40.0,30.0,3,1.121,1.0,1128.726,0.0,0,2018-03-09 15:12:13.000,196,2018-03-09 15:31:00.102,0.15,-90,-180,150,-120,1
44,0,1195.5,0,30,1,0.15,2,9,0.0,1.0,6,40.0,30.0,9,0.861,1.0,1197.823,0.18,1,2018-03-09 15:12:13.000,196,2018-03-09 15:32:08.500,0.15,-90,0,-30,-120,1
45,0,1218.8110000000001,0,30,1,0.15,2,3,0.0,1.0,12,40.0,30.0,3,0.601,0.0,1221.031,0.22,1,2018-03-09 15:12:13.000,196,2018-03-09 15:32:31.811,0.15,90,-180,150,60,1
46,0,1241.354,0,30,1,0.15,2,9,0.0,1.0,6,40.0,30.0,9,0.861,1.0,1243.667,0.18,1,2018-03-09 15:12:13.000,196,2018-03-09 15:32:54.354,0.15,-90,0,-30,-120,1
47,0,1260.752,0,30,1,0.15,2,3,0.0,1.0,12,40.0,30.0,3,0.991,0.0,1262.532,0.22,1,2018-03-09 15:12:13.000,196,2018-03-09 15:33:13.752,0.15,90,-180,150,60,1
48,0,1292.031,0,30,1,0.15,2,9,0.0,1.0,6,40.0,30.0,9,1.121,1.0,1296.0510000000002,0.18,1,2018-03-09 15:12:13.000,196,2018-03-09 15:33:45.031,0.15,-90,0,-30,-120,1
49,0,1314.7420000000002,0,30,1,0.15,2,3,0.0,1.0,12,40.0,30.0,3,0.601,0.0,1317.158,0.22,1,2018-03-09 15:12:13.000,196,2018-03-09 15:34:07.742,0.15,90,-180,150,60,1
50,0,1347.2779999999998,0,30,1,0.15,2,3,0.0,1.0,12,40.0,30.0,3,0.731,0.0,1348.816,0.22,1,2018-03-09 15:12:13.000,196,2018-03-09 15:34:40.278,0.15,90,-180,150,60,1
51,0,1368.578,0,30,1,0.15,2,9,0.0,1.0,6,40.0,30.0,9,0.991,0.0,1369.9679999999998,0.0,0,2018-03-09 15:12:13.000,196,2018-03-09 15:35:01.578,0.15,90,0,-30,60,1
53,0,1397.6170000000002,0,30,1,0.15,2,3,0.0,1.0,12,40.0,30.0,3,0.601,0.0,1400.756,0.22,1,2018-03-09 15:12:13.000,196,2018-03-09 15:35:30.617,0.15,90,-180,150,60,1
54,0,1419.4160000000002,0,30,1,0.15,2,9,0.0,1.0,6,40.0,30.0,9,1.121,0.0,1420.578,0.0,0,2018-03-09 15:12:13.000,196,2018-03-09 15:35:52.416,0.15,90,0,-30,60,1
56,0,1448.4479999999999,0,30,1,0.15,2,3,0.0,1.0,12,40.0,30.0,3,0.861,1.0,1452.283,0.0,0,2018-03-09 15:12:13.000,196,2018-03-09 15:36:21.448,0.15,-90,-180,150,-120,1
58,0,1515.134,0,30,1,0.15,2,9,0.0,1.0,6,40.0,30.0,9,1.121,0.0,1517.156,0.0,0,2018-03-09 15:12:13.000,196,2018-03-09 15:37:28.134,0.15,90,0,-30,60,1
60,0,1543.4520000000002,0,30,1,0.15,2,3,0.0,1.0,12,40.0,30.0,3,0.731,0.0,1545.5910000000001,0.22,1,2018-03-09 15:12:13.000,196,2018-03-09 15:37:56.452,0.15,90,-180,150,60,1
61,0,1561.496,0,30,1,0.15,2,9,0.0,1.0,6,40.0,30.0,9,0.991,0.0,1563.576,0.0,0,2018-03-09 15:12:13.000,196,2018-03-09 15:38:14.496,0.15,90,0,-30,60,1
63,0,1588.0510000000002,0,30,1,0.15,2,9,0.0,1.0,6,40.0,30.0,9,0.861,1.0,1589.63,0.18,1,2018-03-09 15:12:13.000,196,2018-03-09 15:38:41.051,0.15,-90,0,-30,-120,1
64,0,1607.602,0,30,1,0.15,2,9,0.0,1.0,6,40.0,30.0,9,0.731,0.0,1610.2379999999998,0.0,0,2018-03-09 15:12:13.000,196,2018-03-09 15:39:00.602,0.15,90,0,-30,60,1
66,0,1639.6689999999999,0,30,1,0.15,2,3,0.0,1.0,12,40.0,30.0,3,0.601,0.0,1641.3329999999999,0.22,1,2018-03-09 15:12:13.000,196,2018-03-09 15:39:32.669,0.15,90,-180,150,60,1
67,0,1671.961,0,30,1,0.15,2,9,0.0,1.0,6,40.0,30.0,9,1.121,0.0,1673.683,0.0,0,2018-03-09 15:12:13.000,196,2018-03-09 15:40:04.961,0.15,90,0,-30,60,1
69,0,1695.819,0,30,1,0.15,2,9,0.0,1.0,6,40.0,30.0,9,0.731,1.0,1698.414,0.18,1,2018-03-09 15:12:13.000,196,2018-03-09 15:40:28.819,0.15,-90,0,-30,-120,1
70,0,1713.951,0,30,1,0.15,2,3,0.0,1.0,12,40.0,30.0,3,0.861,0.0,1715.375,0.22,1,2018-03-09 15:12:13.000,196,2018-03-09 15:40:46.951,0.15,90,-180,150,60,1
71,0,1735.494,0,30,1,0.15,2,3,0.0,1.0,12,40.0,30.0,3,0.861,0.0,1736.91,0.22,1,2018-03-09 15:12:13.000,196,2018-03-09 15:41:08.494,0.15,90,-180,150,60,1
72,0,1765.7479999999998,0,30,1,0.15,2,9,0.0,1.0,6,40.0,30.0,9,1.121,0.0,1767.267,0.0,0,2018-03-09 15:12:13.000,196,2018-03-09 15:41:38.748,0.15,90,0,-30,60,1
74,0,1788.1070000000002,0,30,1,0.15,2,9,0.0,1.0,6,40.0,30.0,9,0.991,0.0,1789.632,0.0,0,2018-03-09 15:12:13.000,196,2018-03-09 15:42:01.107,0.15,90,0,-30,60,1
76,0,1816.611,0,30,1,0.15,2,3,0.0,1.0,12,40.0,30.0,3,0.731,0.0,1818.1429999999998,0.22,1,2018-03-09 15:12:13.000,196,2018-03-09 15:42:29.611,0.15,90,-180,150,60,1
77,0,1869.124,0,30,1,0.15,2,3,0.0,1.0,12,40.0,30.0,3,0.861,0.0,1870.4479999999999,0.18,1,2018-03-09 15:12:13.000,196,2018-03-09 15:43:22.124,0.15,90,-180,150,60,1
78,0,1903.693,0,30,1,0.15,2,3,0.0,1.0,12,40.0,30.0,3,1.121,0.0,1904.921,0.18,1,2018-03-09 15:12:13.000,196,2018-03-09 15:43:56.693,0.15,90,-180,150,60,1
79,0,1985.886,0,30,1,0.15,2,9,0.0,1.0,6,40.0,30.0,9,0.991,1.0,2004.6689999999999,0.22,1,2018-03-09 15:12:13.000,196,2018-03-09 15:45:18.886,0.15,-90,0,-30,-120,1
80,0,2034.126,0,30,1,0.15,2,3,0.0,1.0,12,40.0,30.0,3,0.601,0.0,2040.42,0.18,1,2018-03-09 15:12:13.000,196,2018-03-09 15:46:07.126,0.15,90,-180,150,60,1
81,0,2063.712,0,30,1,0.15,2,3,0.0,1.0,12,40.0,30.0,3,0.991,1.0,2065.976,0.0,0,2018-03-09 15:12:13.000,196,2018-03-09 15:46:36.712,0.15,-90,-180,150,-120,1
83,0,2116.702,0,30,1,0.15,2,9,0.0,1.0,6,40.0,30.0,9,0.731,0.0,2119.105,0.0,0,2018-03-09 15:12:13.000,196,2018-03-09 15:47:29.702,0.15,90,0,-30,60,1
85,0,2164.74,0,30,1,0.15,2,9,0.0,1.0,6,40.0,30.0,9,1.121,1.0,2166.146,0.22,1,2018-03-09 15:12:13.000,196,2018-03-09 15:48:17.740,0.15,-90,0,-30,-120,1
86,0,2181.0229999999997,0,30,1,0.15,2,3,0.0,1.0,12,40.0,30.0,3,0.991,0.0,2182.775,0.18,1,2018-03-09 15:12:13.000,196,2018-03-09 15:48:34.023,0.15,90,-180,150,60,1
87,0,2197.125,0,30,1,0.15,2,9,0.0,1.0,6,40.0,30.0,9,0.601,0.0,2198.805,0.0,0,2018-03-09 15:12:13.000,196,2018-03-09 15:48:50.125,0.15,90,0,-30,60,1
89,0,2225.772,0,30,1,0.15,2,3,0.0,1.0,12,40.0,30.0,3,0.861,0.0,2227.298,0.18,1,2018-03-09 15:12:13.000,196,2018-03-09 15:49:18.772,0.15,90,-180,150,60,1
90,0,2285.97,0,30,1,0.15,2,9,0.0,1.0,6,40.0,30.0,9,1.121,0.0,2299.313,0.0,0,2018-03-09 15:12:13.000,196,2018-03-09 15:50:18.970,0.15,90,0,-30,60,1
92,0,2350.969,0,30,1,0.15,2,9,0.0,1.0,6,40.0,30.0,9,0.731,1.0,2352.364,0.22,1,2018-03-09 15:12:13.000,196,2018-03-09 15:51:23.969,0.15,-90,0,-30,-120,1
93,0,2379.278,0,30,1,0.15,2,9,0.0,1.0,6,40.0,30.0,9,0.861,0.0,2380.742,0.0,0,2018-03-09 15:12:13.000,196,2018-03-09 15:51:52.278,0.15,90,0,-30,60,1
95,0,2426.698,0,30,1,0.15,2,3,0.0,1.0,12,40.0,30.0,3,0.601,0.0,2428.078,0.18,1,2018-03-09 15:12:13.000,196,2018-03-09 15:52:39.698,0.15,90,-180,150,60,1
96,0,2434.768,0,30,1,0.15,2,9,0.0,1.0,6,40.0,30.0,9,0.601,1.0,2436.229,0.22,1,2018-03-09 15:12:13.000,196,2018-03-09 15:52:47.768,0.15,-90,0,-30,-120,1
97,0,2452.07,0,30,1,0.15,2,9,0.0,1.0,6,40.0,30.0,9,1.121,1.0,2453.2729999999997,0.22,1,2018-03-09 15:12:13.000,196,2018-03-09 15:53:05.070,0.15,-90,0,-30,-120,1
98,0,2484.455,0,30,1,0.15,2,3,0.0,1.0,12,40.0,30.0,3,0.991,0.0,2485.637,0.18,1,2018-03-09 15:12:13.000,196,2018-03-09 15:53:37.455,0.15,90,-180,150,60,1
99,0,2497.034,0,30,1,0.15,2,3,0.0,1.0,12,40.0,30.0,3,0.731,0.0,2498.105,0.18,1,2018-03-09 15:12:13.000,196,2018-03-09 15:53:50.034,0.15,90,-180,150,60,1
100,0,2515.277,0,30,1,0.15,2,3,0.0,1.0,12,40.0,30.0,3,0.861,1.0,2516.467,0.0,0,2018-03-09 15:12:13.000,196,2018-03-09 15:54:08.277,0.15,-90,-180,150,-120,1
1,0,25.85,0,0,1,0.15,2,3,0.0,1.0,12,40.0,30.0,3,0.861,0.0,27.436999999999998,0.2,1,2018-03-12 09:07:36.000,110,2018-03-12 09:08:01.850,0.15,90,-180,-180,90,1
2,0,60.456,0,0,1,0.15,2,9,0.0,1.0,6,40.0,30.0,9,0.991,1.0,62.088,0.2,1,2018-03-12 09:07:36.000,110,2018-03-12 09:08:36.456,0.15,-90,0,0,-90,1
3,0,76.62,1,0,1,0.15,2,9,0.0,1.0,6,40.0,30.0,9,0.601,1.0,78.514,0.2,1,2018-03-12 09:07:36.000,110,2018-03-12 09:08:52.620,0.15,-90,0,0,-90,1
4,0,92.13600000000001,0,0,1,0.15,2,3,0.0,1.0,12,40.0,30.0,3,0.731,0.0,94.23700000000001,0.2,1,2018-03-12 09:07:36.000,110,2018-03-12 09:09:08.136,0.15,90,-180,-180,90,1
5,0,378.015,0,0,1,0.15,2,9,0.0,1.0,6,40.0,30.0,9,1.121,0.0,379.148,0.0,0,2018-03-12 09:07:36.000,110,2018-03-12 09:13:54.015,0.15,90,0,0,90,1
7,0,439.35400000000004,0,0,1,0.15,2,3,0.0,1.0,12,40.0,30.0,3,1.121,0.0,442.764,0.2,1,2018-03-12 09:07:36.000,110,2018-03-12 09:14:55.354,0.15,90,-180,-180,90,1
8,0,460.2,0,0,1,0.15,2,9,0.0,1.0,6,40.0,30.0,9,0.731,1.0,462.925,0.2,1,2018-03-12 09:07:36.000,110,2018-03-12 09:15:16.200,0.15,-90,0,0,-90,1
9,0,505.39300000000003,0,0,1,0.15,2,9,0.0,1.0,6,40.0,30.0,9,0.991,0.0,506.903,0.0,0,2018-03-12 09:07:36.000,110,2018-03-12 09:16:01.393,0.15,90,0,0,90,1
11,0,535.572,0,0,1,0.15,2,3,0.0,1.0,12,40.0,30.0,3,0.861,1.0,537.6709999999999,0.0,0,2018-03-12 09:07:36.000,110,2018-03-12 09:16:31.572,0.15,-90,-180,-180,-90,1
13,0,571.153,0,0,1,0.15,2,9,0.0,1.0,6,40.0,30.0,9,0.731,1.0,574.066,0.2,1,2018-03-12 09:07:36.000,110,2018-03-12 09:17:07.153,0.15,-90,0,0,-90,1
14,0,588.703,0,0,1,0.15,2,9,0.0,1.0,6,40.0,30.0,9,0.601,1.0,590.748,0.2,1,2018-03-12 09:07:36.000,110,2018-03-12 09:17:24.703,0.15,-90,0,0,-90,1
15,0,605.373,0,0,1,0.15,2,3,0.0,1.0,12,40.0,30.0,3,1.121,1.0,607.266,0.0,0,2018-03-12 09:07:36.000,110,2018-03-12 09:17:41.373,0.15,-90,-180,-180,-90,1
17,0,651.686,1,0,1,0.15,2,3,0.0,1.0,12,40.0,30.0,3,0.731,0.0,653.73,0.2,1,2018-03-12 09:07:36.000,110,2018-03-12 09:18:27.686,0.15,90,-180,-180,90,1
18,0,679.293,0,0,1,0.15,2,9,0.0,1.0,6,40.0,30.0,9,1.121,1.0,682.4019999999999,0.2,1,2018-03-12 09:07:36.000,110,2018-03-12 09:18:55.293,0.15,-90,0,0,-90,1
19,0,698.041,0,0,1,0.15,2,3,0.0,1.0,12,40.0,30.0,3,0.991,0.0,700.1519999999999,0.2,1,2018-03-12 09:07:36.000,110,2018-03-12 09:19:14.041,0.15,90,-180,-180,90,1
20,0,724.174,0,0,1,0.15,2,9,0.0,1.0,6,40.0,30.0,9,0.861,1.0,726.875,0.2,1,2018-03-12 09:07:36.000,110,2018-03-12 09:19:40.174,0.15,-90,0,0,-90,1
21,0,769.5169999999999,1,0,1,0.15,2,3,0.0,1.0,12,40.0,30.0,3,0.731,1.0,775.413,0.0,0,2018-03-12 09:07:36.000,110,2018-03-12 09:20:25.517,0.15,-90,-180,-180,-90,1
23,0,868.544,1,0,1,0.15,2,3,0.0,1.0,12,40.0,30.0,3,0.601,0.0,877.5989999999999,0.2,1,2018-03-12 09:07:36.000,110,2018-03-12 09:22:04.544,0.15,90,-180,-180,90,1
24,0,899.5319999999999,0,0,1,0.15,2,9,0.0,1.0,6,40.0,30.0,9,0.861,1.0,904.571,0.2,1,2018-03-12 09:07:36.000,110,2018-03-12 09:22:35.532,0.15,-90,0,0,-90,1
25,0,917.19,1,0,1,0.15,2,3,0.0,1.0,12,40.0,30.0,3,0.991,0.0,919.512,0.2,1,2018-03-12 09:07:36.000,110,2018-03-12 09:22:53.190,0.15,90,-180,-180,90,1
26,0,941.3889999999999,0,0,1,0.15,2,3,0.0,1.0,12,40.0,30.0,3,0.861,0.0,942.675,0.2,1,2018-03-12 09:07:36.000,110,2018-03-12 09:23:17.389,0.15,90,-180,-180,90,1
27,0,966.638,0,0,1,0.15,2,9,0.0,1.0,6,40.0,30.0,9,0.601,1.0,969.6060000000001,0.2,1,2018-03-12 09:07:36.000,110,2018-03-12 09:23:42.638,0.15,-90,0,0,-90,1
28,0,1008.0139999999999,0,0,1,0.15,2,9,0.0,1.0,6,40.0,30.0,9,1.121,1.0,1009.692,0.2,1,2018-03-12 09:07:36.000,110,2018-03-12 09:24:24.014,0.15,-90,0,0,-90,1
29,0,1028.866,0,0,1,0.15,2,9,0.0,1.0,6,40.0,30.0,9,0.731,1.0,1030.531,0.2,1,2018-03-12 09:07:36.000,110,2018-03-12 09:24:44.866,0.15,-90,0,0,-90,1
30,0,1045.194,0,0,1,0.15,2,3,0.0,1.0,12,40.0,30.0,3,0.991,1.0,1048.536,0.0,0,2018-03-12 09:07:36.000,110,2018-03-12 09:25:01.194,0.15,-90,-180,-180,-90,1
32,0,1079.867,0,0,1,0.15,2,9,0.0,1.0,6,40.0,30.0,9,1.121,1.0,1081.934,0.2,1,2018-03-12 09:07:36.000,110,2018-03-12 09:25:35.867,0.15,-90,0,0,-90,1
33,0,1123.674,0,0,1,0.15,2,3,0.0,1.0,12,40.0,30.0,3,0.861,0.0,1125.095,0.2,1,2018-03-12 09:07:36.000,110,2018-03-12 09:26:19.674,0.15,90,-180,-180,90,1
1,0,71.725,0,-60,1,0.15,2,3,0.0,1.0,12,40.0,30.0,3,0.861,1.0,78.449,0.0,0,2018-03-12 14:16:26.000,199,2018-03-12 14:17:37.725,0.15,-90,-180,-120,-30,1
3,0,188.692,0,-60,1,0.15,2,9,0.0,1.0,6,40.0,30.0,9,1.121,0.0,190.127,0.0,0,2018-03-12 14:16:26.000,199,2018-03-12 14:19:34.692,0.15,90,0,60,150,1
5,0,226.226,0,-60,1,0.15,2,9,0.0,1.0,6,40.0,30.0,9,0.601,1.0,230.606,0.2,1,2018-03-12 14:16:26.000,199,2018-03-12 14:20:12.226,0.15,-90,0,60,-30,1
6,0,250.78900000000002,0,-60,1,0.15,2,3,0.0,1.0,12,40.0,30.0,3,0.861,0.0,253.428,0.2,1,2018-03-12 14:16:26.000,199,2018-03-12 14:20:36.789,0.15,90,-180,-120,150,1
7,0,265.96,0,-60,1,0.15,2,9,0.0,1.0,6,40.0,30.0,9,0.731,1.0,268.1,0.2,1,2018-03-12 14:16:26.000,199,2018-03-12 14:20:51.960,0.15,-90,0,60,-30,1
8,0,287.42900000000003,0,-60,1,0.15,2,3,0.0,1.0,12,40.0,30.0,3,0.601,0.0,289.874,0.2,1,2018-03-12 14:16:26.000,199,2018-03-12 14:21:13.429,0.15,90,-180,-120,150,1
9,0,334.606,0,-60,1,0.15,2,9,0.0,1.0,6,40.0,30.0,9,1.121,1.0,336.82,0.2,1,2018-03-12 14:16:26.000,199,2018-03-12 14:22:00.606,0.15,-90,0,60,-30,1
10,0,356.57,0,-60,1,0.15,2,9,0.0,1.0,6,40.0,30.0,9,0.991,0.0,358.214,0.0,0,2018-03-12 14:16:26.000,199,2018-03-12 14:22:22.570,0.15,90,0,60,150,1
12,0,408.015,0,-60,1,0.15,2,9,0.0,1.0,6,40.0,30.0,9,0.601,0.0,409.94599999999997,0.0,0,2018-03-12 14:16:26.000,199,2018-03-12 14:23:14.015,0.15,90,0,60,150,1
15,0,484.685,0,-60,1,0.15,2,9,0.0,1.0,6,40.0,30.0,9,0.731,1.0,487.398,0.22,1,2018-03-12 14:16:26.000,199,2018-03-12 14:24:30.685,0.15,-90,0,60,-30,1
16,0,508.08099999999996,0,-60,1,0.15,2,9,0.0,1.0,6,40.0,30.0,9,0.601,1.0,509.841,0.22,1,2018-03-12 14:16:26.000,199,2018-03-12 14:24:54.081,0.15,-90,0,60,-30,1
17,0,527.807,0,-60,1,0.15,2,3,0.0,1.0,12,40.0,30.0,3,0.861,1.0,529.309,0.0,0,2018-03-12 14:16:26.000,199,2018-03-12 14:25:13.807,0.15,-90,-180,-120,-30,1
21,0,639.831,0,-60,1,0.15,2,3,0.0,1.0,12,40.0,30.0,3,1.121,0.0,641.056,0.18,1,2018-03-12 14:16:26.000,199,2018-03-12 14:27:05.831,0.15,90,-180,-120,150,1
22,0,667.9810000000001,0,-60,1,0.15,2,9,0.0,1.0,6,40.0,30.0,9,0.861,1.0,674.318,0.22,1,2018-03-12 14:16:26.000,199,2018-03-12 14:27:33.981,0.15,-90,0,60,-30,1
23,0,729.0189999999999,0,-60,1,0.15,2,3,0.0,1.0,12,40.0,30.0,3,0.731,1.0,733.4169999999999,0.0,0,2018-03-12 14:16:26.000,199,2018-03-12 14:28:35.019,0.15,-90,-180,-120,-30,1
26,0,816.932,0,-60,1,0.15,2,9,0.0,1.0,6,40.0,30.0,9,0.861,0.0,818.1360000000001,0.0,0,2018-03-12 14:16:26.000,199,2018-03-12 14:30:02.932,0.15,90,0,60,150,1
28,0,863.9760000000001,0,-60,1,0.15,2,3,0.0,1.0,12,40.0,30.0,3,1.121,1.0,866.685,0.0,0,2018-03-12 14:16:26.000,199,2018-03-12 14:30:49.976,0.15,-90,-180,-120,-30,1
30,0,901.039,0,-60,1,0.15,2,3,0.0,1.0,12,40.0,30.0,3,0.731,1.0,906.0039999999999,0.0,0,2018-03-12 14:16:26.000,199,2018-03-12 14:31:27.039,0.15,-90,-180,-120,-30,1
32,0,937.961,0,-60,1,0.15,2,3,0.0,1.0,12,40.0,30.0,3,0.861,1.0,943.15,0.0,0,2018-03-12 14:16:26.000,199,2018-03-12 14:32:03.961,0.15,-90,-180,-120,-30,1
34,0,991.655,0,-60,1,0.15,2,3,0.0,1.0,12,40.0,30.0,3,0.601,0.0,1002.6210000000001,0.22,1,2018-03-12 14:16:26.000,199,2018-03-12 14:32:57.655,0.15,90,-180,-120,150,1
35,0,1040.8980000000001,0,-60,1,0.15,2,3,0.0,1.0,12,40.0,30.0,3,1.121,0.0,1042.099,0.22,1,2018-03-12 14:16:26.000,199,2018-03-12 14:33:46.898,0.15,90,-180,-120,150,1
36,0,1067.495,0,-60,1,0.15,2,3,0.0,1.0,12,40.0,30.0,3,0.861,0.0,1068.671,0.22,1,2018-03-12 14:16:26.000,199,2018-03-12 14:34:13.495,0.15,90,-180,-120,150,1
37,0,1101.0,0,-60,1,0.15,2,3,0.0,1.0,12,40.0,30.0,3,1.121,0.0,1102.854,0.22,1,2018-03-12 14:16:26.000,199,2018-03-12 14:34:47.000,0.15,90,-180,-120,150,1
38,0,1143.137,0,-60,1,0.15,2,3,0.0,1.0,12,40.0,30.0,3,0.601,0.0,1144.89,0.22,1,2018-03-12 14:16:26.000,199,2018-03-12 14:35:29.137,0.15,90,-180,-120,150,1
39,0,1166.391,0,-60,1,0.15,2,9,0.0,1.0,6,40.0,30.0,9,0.991,0.0,1167.56,0.0,0,2018-03-12 14:16:26.000,199,2018-03-12 14:35:52.391,0.15,90,0,60,150,1
41,0,1225.365,0,-60,1,0.15,2,3,0.0,1.0,12,40.0,30.0,3,0.991,0.0,1233.422,0.22,1,2018-03-12 14:16:26.000,199,2018-03-12 14:36:51.365,0.15,90,-180,-120,150,1
42,0,1264.62,0,-60,1,0.15,2,9,0.0,1.0,6,40.0,30.0,9,0.601,1.0,1268.123,0.18,1,2018-03-12 14:16:26.000,199,2018-03-12 14:37:30.620,0.15,-90,0,60,-30,1
43,0,1291.338,0,-60,1,0.15,2,9,0.0,1.0,6,40.0,30.0,9,0.731,1.0,1295.019,0.18,1,2018-03-12 14:16:26.000,199,2018-03-12 14:37:57.338,0.15,-90,0,60,-30,1
44,0,1309.362,0,-60,1,0.15,2,9,0.0,1.0,6,40.0,30.0,9,1.121,0.0,1311.606,0.0,0,2018-03-12 14:16:26.000,199,2018-03-12 14:38:15.362,0.15,90,0,60,150,1
47,0,1356.19,0,-60,1,0.15,2,3,0.0,1.0,12,40.0,30.0,3,0.861,0.0,1360.856,0.22,1,2018-03-12 14:16:26.000,199,2018-03-12 14:39:02.190,0.15,90,-180,-120,150,1
48,0,1369.872,0,-60,1,0.15,2,9,0.0,1.0,6,40.0,30.0,9,0.991,1.0,1374.3120000000001,0.18,1,2018-03-12 14:16:26.000,199,2018-03-12 14:39:15.872,0.15,-90,0,60,-30,1
49,0,1391.19,0,-60,1,0.15,2,9,0.0,1.0,6,40.0,30.0,9,1.121,0.0,1392.754,0.0,0,2018-03-12 14:16:26.000,199,2018-03-12 14:39:37.190,0.15,90,0,60,150,1
53,0,1515.339,0,-60,1,0.15,2,9,0.0,1.0,6,40.0,30.0,9,0.601,1.0,1518.405,0.18,1,2018-03-12 14:16:26.000,199,2018-03-12 14:41:41.339,0.15,-90,0,60,-30,1
54,0,1548.382,0,-60,1,0.15,2,9,0.0,1.0,6,40.0,30.0,9,0.861,0.0,1550.61,0.0,0,2018-03-12 14:16:26.000,199,2018-03-12 14:42:14.382,0.15,90,0,60,150,1
56,0,1573.16,0,-60,1,0.15,2,3,0.0,1.0,12,40.0,30.0,3,0.601,0.0,1574.691,0.22,1,2018-03-12 14:16:26.000,199,2018-03-12 14:42:39.160,0.15,90,-180,-120,150,1
57,0,1581.835,0,-60,1,0.15,2,9,0.0,1.0,6,40.0,30.0,9,1.121,1.0,1586.079,0.18,1,2018-03-12 14:16:26.000,199,2018-03-12 14:42:47.835,0.15,-90,0,60,-30,1
58,0,1600.068,0,-60,1,0.15,2,3,0.0,1.0,12,40.0,30.0,3,0.991,0.0,1601.94,0.22,1,2018-03-12 14:16:26.000,199,2018-03-12 14:43:06.068,0.15,90,-180,-120,150,1
59,0,1635.402,0,-60,1,0.15,2,3,0.0,1.0,12,40.0,30.0,3,0.861,1.0,1638.996,0.0,0,2018-03-12 14:16:26.000,199,2018-03-12 14:43:41.402,0.15,-90,-180,-120,-30,1
61,0,1688.9029999999998,0,-60,1,0.15,2,3,0.0,1.0,12,40.0,30.0,3,0.861,0.0,1690.399,0.22,1,2018-03-12 14:16:26.000,199,2018-03-12 14:44:34.903,0.15,90,-180,-120,150,1
62,0,1724.5529999999999,0,-60,1,0.15,2,9,0.0,1.0,6,40.0,30.0,9,0.731,1.0,1726.39,0.18,1,2018-03-12 14:16:26.000,199,2018-03-12 14:45:10.553,0.15,-90,0,60,-30,1
63,0,1744.138,0,-60,1,0.15,2,9,0.0,1.0,6,40.0,30.0,9,0.601,0.0,1745.6,0.0,0,2018-03-12 14:16:26.000,199,2018-03-12 14:45:30.138,0.15,90,0,60,150,1
66,0,1836.441,0,-60,1,0.15,2,3,0.0,1.0,12,40.0,30.0,3,0.991,0.0,1843.116,0.22,1,2018-03-12 14:16:26.000,199,2018-03-12 14:47:02.441,0.15,90,-180,-120,150,1
67,0,1853.999,0,-60,1,0.15,2,3,0.0,1.0,12,40.0,30.0,3,0.731,0.0,1855.517,0.22,1,2018-03-12 14:16:26.000,199,2018-03-12 14:47:19.999,0.15,90,-180,-120,150,1
68,0,1884.983,0,-60,1,0.15,2,3,0.0,1.0,12,40.0,30.0,3,0.601,0.0,1887.11,0.22,1,2018-03-12 14:16:26.000,199,2018-03-12 14:47:50.983,0.15,90,-180,-120,150,1
69,0,1897.4160000000002,0,-60,1,0.15,2,3,0.0,1.0,12,40.0,30.0,3,0.861,1.0,1901.111,0.0,0,2018-03-12 14:16:26.000,199,2018-03-12 14:48:03.416,0.15,-90,-180,-120,-30,1
71,0,1932.993,0,-60,1,0.15,2,3,0.0,1.0,12,40.0,30.0,3,1.121,0.0,1938.017,0.22,1,2018-03-12 14:16:26.000,199,2018-03-12 14:48:38.993,0.15,90,-180,-120,150,1
72,0,1955.4260000000002,0,-60,1,0.15,2,9,0.0,1.0,6,40.0,30.0,9,0.991,1.0,1956.975,0.18,1,2018-03-12 14:16:26.000,199,2018-03-12 14:49:01.426,0.15,-90,0,60,-30,1
73,0,1967.207,0,-60,1,0.15,2,9,0.0,1.0,6,40.0,30.0,9,0.601,0.0,1975.602,0.0,0,2018-03-12 14:16:26.000,199,2018-03-12 14:49:13.207,0.15,90,0,60,150,1
1,0,54.177,0,0,1,0.15,2,9,0.0,1.0,6,40.0,30.0,9,0.991,1.0,56.608999999999995,0.2,1,2018-03-13 09:26:07.000,172,2018-03-13 09:27:01.177,0.15,-90,0,0,-90,1
2,0,72.627,0,0,1,0.15,2,3,0.0,1.0,12,40.0,30.0,3,1.121,0.0,73.94,0.2,1,2018-03-13 09:26:07.000,172,2018-03-13 09:27:19.627,0.15,90,-180,-180,90,1
3,0,96.98200000000001,0,0,1,0.15,2,3,0.0,1.0,12,40.0,30.0,3,0.861,1.0,98.48700000000001,0.0,0,2018-03-13 09:26:07.000,172,2018-03-13 09:27:43.982,0.15,-90,-180,-180,-90,1
6,0,136.595,0,0,1,0.15,2,3,0.0,1.0,12,40.0,30.0,3,0.601,0.0,138.161,0.2,1,2018-03-13 09:26:07.000,172,2018-03-13 09:28:23.595,0.15,90,-180,-180,90,1
7,0,159.77200000000002,0,0,1,0.15,2,3,0.0,1.0,12,40.0,30.0,3,0.991,1.0,161.84799999999998,0.0,0,2018-03-13 09:26:07.000,172,2018-03-13 09:28:46.772,0.15,-90,-180,-180,-90,1
9,0,246.79,0,0,1,0.15,2,9,0.0,1.0,6,40.0,30.0,9,1.121,0.0,248.34599999999998,0.0,0,2018-03-13 09:26:07.000,172,2018-03-13 09:30:13.790,0.15,90,0,0,90,1
11,0,288.362,0,0,1,0.15,2,3,0.0,1.0,12,40.0,30.0,3,0.731,0.0,290.68,0.2,1,2018-03-13 09:26:07.000,172,2018-03-13 09:30:55.362,0.15,90,-180,-180,90,1
12,0,308.151,0,0,1,0.15,2,9,0.0,1.0,6,40.0,30.0,9,1.121,0.0,309.848,0.0,0,2018-03-13 09:26:07.000,172,2018-03-13 09:31:15.151,0.15,90,0,0,90,1
14,0,333.051,0,0,1,0.15,2,9,0.0,1.0,6,40.0,30.0,9,0.861,1.0,334.717,0.2,1,2018-03-13 09:26:07.000,172,2018-03-13 09:31:40.051,0.15,-90,0,0,-90,1
15,0,352.504,0,0,1,0.15,2,3,0.0,1.0,12,40.0,30.0,3,0.991,1.0,354.055,0.0,0,2018-03-13 09:26:07.000,172,2018-03-13 09:31:59.504,0.15,-90,-180,-180,-90,1
17,0,389.043,0,0,1,0.15,2,3,0.0,1.0,12,40.0,30.0,3,0.861,0.0,390.30699999999996,0.2,1,2018-03-13 09:26:07.000,172,2018-03-13 09:32:36.043,0.15,90,-180,-180,90,1
18,0,420.616,0,0,1,0.15,2,9,0.0,1.0,6,40.0,30.0,9,1.121,1.0,422.49199999999996,0.2,1,2018-03-13 09:26:07.000,172,2018-03-13 09:33:07.616,0.15,-90,0,0,-90,1
19,0,440.81,0,0,1,0.15,2,9,0.0,1.0,6,40.0,30.0,9,0.601,1.0,442.385,0.2,1,2018-03-13 09:26:07.000,172,2018-03-13 09:33:27.810,0.15,-90,0,0,-90,1
20,0,458.673,0,0,1,0.15,2,9,0.0,1.0,6,40.0,30.0,9,0.991,1.0,460.66,0.2,1,2018-03-13 09:26:07.000,172,2018-03-13 09:33:45.673,0.15,-90,0,0,-90,1
21,0,478.056,0,0,1,0.15,2,9,0.0,1.0,6,40.0,30.0,9,0.731,1.0,479.85699999999997,0.2,1,2018-03-13 09:26:07.000,172,2018-03-13 09:34:05.056,0.15,-90,0,0,-90,1
22,0,499.074,0,0,1,0.15,2,3,0.0,1.0,12,40.0,30.0,3,0.601,0.0,501.347,0.2,1,2018-03-13 09:26:07.000,172,2018-03-13 09:34:26.074,0.15,90,-180,-180,90,1
23,0,530.5169999999999,0,0,1,0.15,2,9,0.0,1.0,6,40.0,30.0,9,0.991,0.0,531.778,0.0,0,2018-03-13 09:26:07.000,172,2018-03-13 09:34:57.517,0.15,90,0,0,90,1
25,0,564.891,0,0,1,0.15,2,3,0.0,1.0,12,40.0,30.0,3,0.861,1.0,566.387,0.0,0,2018-03-13 09:26:07.000,172,2018-03-13 09:35:31.891,0.15,-90,-180,-180,-90,1
29,0,625.785,0,0,1,0.15,2,3,0.0,1.0,12,40.0,30.0,3,0.861,0.0,627.173,0.2,1,2018-03-13 09:26:07.000,172,2018-03-13 09:36:32.785,0.15,90,-180,-180,90,1
30,0,659.155,0,0,1,0.15,2,9,0.0,1.0,6,40.0,30.0,9,0.601,0.0,660.495,0.0,0,2018-03-13 09:26:07.000,172,2018-03-13 09:37:06.155,0.15,90,0,0,90,1
32,0,700.1189999999999,0,0,1,0.15,2,3,0.0,1.0,12,40.0,30.0,3,1.121,0.0,701.674,0.2,1,2018-03-13 09:26:07.000,172,2018-03-13 09:37:47.119,0.15,90,-180,-180,90,1
33,0,716.3689999999999,0,0,1,0.15,2,9,0.0,1.0,6,40.0,30.0,9,0.861,1.0,718.502,0.2,1,2018-03-13 09:26:07.000,172,2018-03-13 09:38:03.369,0.15,-90,0,0,-90,1
34,0,733.378,0,0,1,0.15,2,3,0.0,1.0,12,40.0,30.0,3,0.731,1.0,735.659,0.0,0,2018-03-13 09:26:07.000,172,2018-03-13 09:38:20.378,0.15,-90,-180,-180,-90,1
38,0,824.943,0,0,1,0.15,2,9,0.0,1.0,6,40.0,30.0,9,0.861,0.0,826.732,0.0,0,2018-03-13 09:26:07.000,172,2018-03-13 09:39:51.943,0.15,90,0,0,90,1
40,0,980.2639999999999,0,0,1,0.15,2,9,0.0,1.0,6,40.0,30.0,9,0.601,1.0,982.8610000000001,0.2,1,2018-03-13 09:26:07.000,172,2018-03-13 09:42:27.264,0.15,-90,0,0,-90,1
41,0,1001.4989999999999,0,0,1,0.15,2,3,0.0,1.0,12,40.0,30.0,3,0.601,1.0,1003.8380000000001,0.0,0,2018-03-13 09:26:07.000,172,2018-03-13 09:42:48.499,0.15,-90,-180,-180,-90,1
43,0,1040.3039999999999,0,0,1,0.15,2,3,0.0,1.0,12,40.0,30.0,3,1.121,1.0,1044.1889999999999,0.0,0,2018-03-13 09:26:07.000,172,2018-03-13 09:43:27.304,0.15,-90,-180,-180,-90,1
45,0,1077.078,0,0,1,0.15,2,3,0.0,1.0,12,40.0,30.0,3,0.731,1.0,1080.134,0.0,0,2018-03-13 09:26:07.000,172,2018-03-13 09:44:04.078,0.15,-90,-180,-180,-90,1
47,0,1123.258,0,0,1,0.15,2,9,0.0,1.0,6,40.0,30.0,9,0.731,1.0,1125.83,0.2,1,2018-03-13 09:26:07.000,172,2018-03-13 09:44:50.258,0.15,-90,0,0,-90,1
48,0,1164.526,0,0,1,0.15,2,3,0.0,1.0,12,40.0,30.0,3,0.601,1.0,1166.3519999999999,0.0,0,2018-03-13 09:26:07.000,172,2018-03-13 09:45:31.526,0.15,-90,-180,-180,-90,1
51,0,1206.8319999999999,0,0,1,0.15,2,9,0.0,1.0,6,40.0,30.0,9,0.731,0.0,1208.417,0.0,0,2018-03-13 09:26:07.000,172,2018-03-13 09:46:13.832,0.15,90,0,0,90,1
53,0,1230.733,0,0,1,0.15,2,3,0.0,1.0,12,40.0,30.0,3,0.861,0.0,1232.553,0.2,1,2018-03-13 09:26:07.000,172,2018-03-13 09:46:37.733,0.15,90,-180,-180,90,1
54,0,1251.889,0,0,1,0.15,2,9,0.0,1.0,6,40.0,30.0,9,0.601,1.0,1253.622,0.2,1,2018-03-13 09:26:07.000,172,2018-03-13 09:46:58.889,0.15,-90,0,0,-90,1
55,0,1270.055,0,0,1,0.15,2,3,0.0,1.0,12,40.0,30.0,3,1.121,0.0,1271.532,0.2,1,2018-03-13 09:26:07.000,172,2018-03-13 09:47:17.055,0.15,90,-180,-180,90,1
56,0,1298.178,0,0,1,0.15,2,3,0.0,1.0,12,40.0,30.0,3,0.991,1.0,1299.945,0.0,0,2018-03-13 09:26:07.000,172,2018-03-13 09:47:45.178,0.15,-90,-180,-180,-90,1
58,0,1369.414,0,0,1,0.15,2,9,0.0,1.0,6,40.0,30.0,9,1.121,1.0,1370.849,0.2,1,2018-03-13 09:26:07.000,172,2018-03-13 09:48:56.414,0.15,-90,0,0,-90,1
1,0,132.252,0,0,1,0.15,2,3,0.0,1.0,12,40.0,30.0,3,0.826,0.0,133.651,0.2,1,2018-03-16 11:13:16.000,6,2018-03-16 11:15:28.252,0.15,90,-180,-180,90,1
2,0,153.178,0,0,1,0.15,2,3,0.0,1.0,12,40.0,30.0,3,0.6759999999999999,0.0,154.685,0.2,1,2018-03-16 11:13:16.000,6,2018-03-16 11:15:49.178,0.15,90,-180,-180,90,1
3,0,188.17700000000002,0,0,1,0.15,2,9,0.0,1.0,6,40.0,30.0,9,0.7509999999999999,0.0,189.29,0.0,0,2018-03-16 11:13:16.000,6,2018-03-16 11:16:24.177,0.15,90,0,0,90,1
5,0,215.30900000000003,0,0,1,0.15,2,9,0.0,1.0,6,40.0,30.0,9,0.9009999999999999,0.0,217.505,0.0,0,2018-03-16 11:13:16.000,6,2018-03-16 11:16:51.309,0.15,90,0,0,90,1
13,0,375.764,0,0,1,0.15,2,9,0.0,1.0,6,40.0,30.0,9,0.9009999999999999,0.0,377.108,0.0,0,2018-03-16 11:13:16.000,6,2018-03-16 11:19:31.764,0.15,90,0,0,90,1
18,0,441.405,0,0,1,0.15,2,9,0.0,1.0,6,40.0,30.0,9,0.6759999999999999,0.0,444.475,0.0,0,2018-03-16 11:13:16.000,6,2018-03-16 11:20:37.405,0.15,90,0,0,90,1
21,0,498.223,0,0,1,0.15,2,3,0.0,1.0,12,40.0,30.0,3,0.9009999999999999,0.0,499.76099999999997,0.2,1,2018-03-16 11:13:16.000,6,2018-03-16 11:21:34.223,0.15,90,-180,-180,90,1
22,0,519.9540000000001,0,0,1,0.15,2,3,0.0,1.0,12,40.0,30.0,3,0.826,0.0,521.154,0.2,1,2018-03-16 11:13:16.000,6,2018-03-16 11:21:55.954,0.15,90,-180,-180,90,1
23,0,556.758,0,0,1,0.15,2,3,0.0,1.0,12,40.0,30.0,3,0.601,0.0,558.055,0.2,1,2018-03-16 11:13:16.000,6,2018-03-16 11:22:32.758,0.15,90,-180,-180,90,1
24,0,586.677,0,0,1,0.15,2,9,0.0,1.0,6,40.0,30.0,9,0.7509999999999999,0.0,587.884,0.0,0,2018-03-16 11:13:16.000,6,2018-03-16 11:23:02.677,0.15,90,0,0,90,1
28,0,646.614,0,0,1,0.15,2,9,0.0,1.0,6,40.0,30.0,9,0.7509999999999999,1.0,648.755,0.2,1,2018-03-16 11:13:16.000,6,2018-03-16 11:24:02.614,0.15,-90,0,0,-90,1
29,0,669.155,0,0,1,0.15,2,9,0.0,1.0,6,40.0,30.0,9,0.6759999999999999,1.0,670.8910000000001,0.2,1,2018-03-16 11:13:16.000,6,2018-03-16 11:24:25.155,0.15,-90,0,0,-90,1
30,0,688.684,0,0,1,0.15,2,3,0.0,1.0,12,40.0,30.0,3,0.9009999999999999,0.0,690.3639999999999,0.2,1,2018-03-16 11:13:16.000,6,2018-03-16 11:24:44.684,0.15,90,-180,-180,90,1
31,0,738.318,0,0,1,0.15,2,3,0.0,1.0,12,40.0,30.0,3,0.7509999999999999,0.0,740.492,0.2,1,2018-03-16 11:13:16.000,6,2018-03-16 11:25:34.318,0.15,90,-180,-180,90,1
32,0,814.4580000000001,0,0,1,0.15,2,3,0.0,1.0,12,40.0,30.0,3,0.6759999999999999,0.0,815.701,0.2,1,2018-03-16 11:13:16.000,6,2018-03-16 11:26:50.458,0.15,90,-180,-180,90,1
33,0,844.02,0,0,1,0.15,2,3,0.0,1.0,12,40.0,30.0,3,0.9009999999999999,1.0,846.293,0.0,0,2018-03-16 11:13:16.000,6,2018-03-16 11:27:20.020,0.15,-90,-180,-180,-90,1
35,0,891.702,0,0,1,0.15,2,9,0.0,1.0,6,40.0,30.0,9,0.826,1.0,893.8919999999999,0.2,1,2018-03-16 11:13:16.000,6,2018-03-16 11:28:07.702,0.15,-90,0,0,-90,1
36,0,912.415,0,0,1,0.15,2,9,0.0,1.0,6,40.0,30.0,9,0.826,0.0,914.171,0.0,0,2018-03-16 11:13:16.000,6,2018-03-16 11:28:28.415,0.15,90,0,0,90,1
38,0,953.52,0,0,1,0.15,2,9,0.0,1.0,6,40.0,30.0,9,0.6759999999999999,1.0,955.077,0.2,1,2018-03-16 11:13:16.000,6,2018-03-16 11:29:09.520,0.15,-90,0,0,-90,1
39,0,978.98,0,0,1,0.15,2,3,0.0,1.0,12,40.0,30.0,3,0.9009999999999999,1.0,980.813,0.0,0,2018-03-16 11:13:16.000,6,2018-03-16 11:29:34.980,0.15,-90,-180,-180,-90,1
41,0,1024.6989999999998,0,0,1,0.15,2,9,0.0,1.0,6,40.0,30.0,9,0.601,1.0,1026.6019999999999,0.2,1,2018-03-16 11:13:16.000,6,2018-03-16 11:30:20.699,0.15,-90,0,0,-90,1
42,0,1046.981,0,0,1,0.15,2,3,0.0,1.0,12,40.0,30.0,3,0.6759999999999999,1.0,1048.891,0.0,0,2018-03-16 11:13:16.000,6,2018-03-16 11:30:42.981,0.15,-90,-180,-180,-90,1
44,0,1113.88,0,0,1,0.15,2,9,0.0,1.0,6,40.0,30.0,9,0.9009999999999999,0.0,1115.241,0.0,0,2018-03-16 11:13:16.000,6,2018-03-16 11:31:49.880,0.15,90,0,0,90,1
46,0,1145.442,0,0,1,0.15,2,3,0.0,1.0,12,40.0,30.0,3,0.7509999999999999,1.0,1147.265,0.0,0,2018-03-16 11:13:16.000,6,2018-03-16 11:32:21.442,0.15,-90,-180,-180,-90,1
48,0,1208.31,0,0,1,0.15,2,9,0.0,1.0,6,40.0,30.0,9,0.6759999999999999,0.0,1209.985,0.0,0,2018-03-16 11:13:16.000,6,2018-03-16 11:33:24.310,0.15,90,0,0,90,1
50,0,1240.713,0,0,1,0.15,2,9,0.0,1.0,6,40.0,30.0,9,0.601,1.0,1242.5610000000001,0.2,1,2018-03-16 11:13:16.000,6,2018-03-16 11:33:56.713,0.15,-90,0,0,-90,1
51,0,1264.6589999999999,0,0,1,0.15,2,3,0.0,1.0,12,40.0,30.0,3,0.7509999999999999,1.0,1266.77,0.0,0,2018-03-16 11:13:16.000,6,2018-03-16 11:34:20.659,0.15,-90,-180,-180,-90,1
53,0,1298.97,0,0,1,0.15,2,3,0.0,1.0,12,40.0,30.0,3,0.9009999999999999,1.0,1300.1689999999999,0.0,0,2018-03-16 11:13:16.000,6,2018-03-16 11:34:54.970,0.15,-90,-180,-180,-90,1
55,0,1414.354,0,0,1,0.15,2,3,0.0,1.0,12,40.0,30.0,3,0.6759999999999999,0.0,1415.491,0.2,1,2018-03-16 11:13:16.000,6,2018-03-16 11:36:50.354,0.15,90,-180,-180,90,1
56,0,1446.58,0,0,1,0.15,2,9,0.0,1.0,6,40.0,30.0,9,0.601,0.0,1447.845,0.0,0,2018-03-16 11:13:16.000,6,2018-03-16 11:37:22.580,0.15,90,0,0,90,1
59,0,1528.1760000000002,0,0,1,0.15,2,3,0.0,1.0,12,40.0,30.0,3,0.9009999999999999,0.0,1530.6170000000002,0.2,1,2018-03-16 11:13:16.000,6,2018-03-16 11:38:44.176,0.15,90,-180,-180,90,1
60,0,1548.858,0,0,1,0.15,2,9,0.0,1.0,6,40.0,30.0,9,0.826,0.0,1550.3210000000001,0.0,0,2018-03-16 11:13:16.000,6,2018-03-16 11:39:04.858,0.15,90,0,0,90,1
62,0,1591.2479999999998,0,0,1,0.15,2,3,0.0,1.0,12,40.0,30.0,3,0.6759999999999999,1.0,1593.106,0.0,0,2018-03-16 11:13:16.000,6,2018-03-16 11:39:47.248,0.15,-90,-180,-180,-90,1
64,0,1651.386,0,0,1,0.15,2,9,0.0,1.0,6,40.0,30.0,9,0.9009999999999999,1.0,1653.31,0.2,1,2018-03-16 11:13:16.000,6,2018-03-16 11:40:47.386,0.15,-90,0,0,-90,1
65,0,1670.5810000000001,0,0,1,0.15,2,3,0.0,1.0,12,40.0,30.0,3,0.7509999999999999,1.0,1672.61,0.0,0,2018-03-16 11:13:16.000,6,2018-03-16 11:41:06.581,0.15,-90,-180,-180,-90,1
67,0,1710.908,0,0,1,0.15,2,3,0.0,1.0,12,40.0,30.0,3,0.601,0.0,1712.132,0.2,1,2018-03-16 11:13:16.000,6,2018-03-16 11:41:46.908,0.15,90,-180,-180,90,1
68,0,1744.9660000000001,0,0,1,0.15,2,9,0.0,1.0,6,40.0,30.0,9,0.7509999999999999,0.0,1746.2160000000001,0.0,0,2018-03-16 11:13:16.000,6,2018-03-16 11:42:20.966,0.15,90,0,0,90,1
70,0,1814.97,0,0,1,0.15,2,9,0.0,1.0,6,40.0,30.0,9,0.6759999999999999,1.0,1816.626,0.2,1,2018-03-16 11:13:16.000,6,2018-03-16 11:43:30.970,0.15,-90,0,0,-90,1
71,0,1835.845,0,0,1,0.15,2,9,0.0,1.0,6,40.0,30.0,9,0.9009999999999999,1.0,1837.374,0.2,1,2018-03-16 11:13:16.000,6,2018-03-16 11:43:51.845,0.15,-90,0,0,-90,1
72,0,1858.217,0,0,1,0.15,2,3,0.0,1.0,12,40.0,30.0,3,0.826,1.0,1859.9479999999999,0.0,0,2018-03-16 11:13:16.000,6,2018-03-16 11:44:14.217,0.15,-90,-180,-180,-90,1
74,0,1895.5220000000002,0,0,1,0.15,2,9,0.0,1.0,6,40.0,30.0,9,0.6759999999999999,0.0,1896.826,0.0,0,2018-03-16 11:13:16.000,6,2018-03-16 11:44:51.522,0.15,90,0,0,90,1
77,0,1948.175,0,0,1,0.15,2,3,0.0,1.0,12,40.0,30.0,3,0.6759999999999999,0.0,1950.3129999999999,0.2,1,2018-03-16 11:13:16.000,6,2018-03-16 11:45:44.175,0.15,90,-180,-180,90,1
78,0,2005.085,0,0,1,0.15,2,9,0.0,1.0,6,40.0,30.0,9,0.826,0.0,2006.19,0.0,0,2018-03-16 11:13:16.000,6,2018-03-16 11:46:41.085,0.15,90,0,0,90,1
81,0,2069.754,0,0,1,0.15,2,3,0.0,1.0,12,40.0,30.0,3,0.7509999999999999,0.0,2070.76,0.2,1,2018-03-16 11:13:16.000,6,2018-03-16 11:47:45.754,0.15,90,-180,-180,90,1
82,0,2109.936,0,0,1,0.15,2,3,0.0,1.0,12,40.0,30.0,3,0.826,0.0,2111.618,0.2,1,2018-03-16 11:13:16.000,6,2018-03-16 11:48:25.936,0.15,90,-180,-180,90,1
83,0,2154.728,0,0,1,0.15,2,3,0.0,1.0,12,40.0,30.0,3,0.6759999999999999,1.0,2157.2,0.0,0,2018-03-16 11:13:16.000,6,2018-03-16 11:49:10.728,0.15,-90,-180,-180,-90,1
85,0,2207.174,0,0,1,0.15,2,9,0.0,1.0,6,40.0,30.0,9,0.9009999999999999,1.0,2209.052,0.2,1,2018-03-16 11:13:16.000,6,2018-03-16 11:50:03.174,0.15,-90,0,0,-90,1
86,0,2228.6929999999998,0,0,1,0.15,2,3,0.0,1.0,12,40.0,30.0,3,0.9009999999999999,0.0,2230.531,0.2,1,2018-03-16 11:13:16.000,6,2018-03-16 11:50:24.693,0.15,90,-180,-180,90,1
87,0,2309.692,0,0,1,0.15,2,9,0.0,1.0,6,40.0,30.0,9,0.7509999999999999,1.0,2311.221,0.2,1,2018-03-16 11:13:16.000,6,2018-03-16 11:51:45.692,0.15,-90,0,0,-90,1
88,0,2327.994,0,0,1,0.15,2,3,0.0,1.0,12,40.0,30.0,3,0.601,0.0,2329.5860000000002,0.2,1,2018-03-16 11:13:16.000,6,2018-03-16 11:52:03.994,0.15,90,-180,-180,90,1
