Trial,CorrectionTrial,StartTime,CenterReward,CenterSpoutRotation,nStimReps,Duration,Modality,LED Location,LED_trial_V,LED_bgnd_V,Speaker Location,Speaker_trial_V,Speaker_bgnd_V,TargetSpout,HoldTime,Response,RespTime,ValveTime,Correct,SessionDate,SessionID,StartDateTime,StimulusTotalDuration,response_angle_world,speaker_angle_world,speaker_angle_platform,response_angle_platform,not_probe
1,0,43.638999999999996,0,0,1,0.25,2,9,0.0,1.0,6,45.0,30.0,9,0.401,0.0,47.854,0.0,0,2018-03-14 10:19:07.000,117,2018-03-14 10:19:50.639,0.25,90,0,0,90,1
3,0,91.5,0,0,1,0.25,2,9,0.0,1.0,6,45.0,30.0,9,0.8959999999999999,1.0,96.105,0.2,1,2018-03-14 10:19:07.000,117,2018-03-14 10:20:38.500,0.25,-90,0,0,-90,1
4,0,133.694,0,0,1,0.25,2,3,0.0,1.0,12,45.0,30.0,3,0.5660000000000001,0.0,138.21,0.2,1,2018-03-14 10:19:07.000,117,2018-03-14 10:21:20.694,0.25,90,-180,-180,90,1
5,0,161.232,0,0,1,0.25,2,9,0.0,1.0,6,45.0,30.0,9,1.061,1.0,162.57,0.2,1,2018-03-14 10:19:07.000,117,2018-03-14 10:21:48.232,0.25,-90,0,0,-90,1
6,0,199.2,0,0,1,0.25,2,9,0.0,1.0,6,45.0,30.0,9,1.061,1.0,204.234,0.2,1,2018-03-14 10:19:07.000,117,2018-03-14 10:22:26.200,0.25,-90,0,0,-90,1
7,0,236.593,0,0,1,0.25,2,9,0.0,1.0,6,45.0,30.0,9,0.731,1.0,241.265,0.2,1,2018-03-14 10:19:07.000,117,2018-03-14 10:23:03.593,0.25,-90,0,0,-90,1
8,0,273.562,0,0,1,0.25,2,9,0.0,1.0,6,45.0,30.0,9,0.8959999999999999,1.0,283.466,0.2,1,2018-03-14 10:19:07.000,117,2018-03-14 10:23:40.562,0.25,-90,0,0,-90,1
9,0,308.243,0,0,1,0.25,2,3,0.0,1.0,12,45.0,30.0,3,0.5660000000000001,0.0,316.257,0.2,1,2018-03-14 10:19:07.000,117,2018-03-14 10:24:15.243,0.25,90,-180,-180,90,1
10,0,352.714,0,0,1,0.25,2,3,0.0,1.0,12,45.0,30.0,3,0.401,0.0,354.455,0.2,1,2018-03-14 10:19:07.000,117,2018-03-14 10:24:59.714,0.25,90,-180,-180,90,1
11,0,380.815,0,0,1,0.25,2,9,0.0,1.0,6,45.0,30.0,9,0.401,0.0,386.162,0.0,0,2018-03-14 10:19:07.000,117,2018-03-14 10:25:27.815,0.25,90,0,0,90,1
13,0,429.251,0,0,1,0.25,2,3,0.0,1.0,12,45.0,30.0,3,0.5660000000000001,0.0,431.18300000000005,0.2,1,2018-03-14 10:19:07.000,117,2018-03-14 10:26:16.251,0.25,90,-180,-180,90,1
14,0,458.835,0,0,1,0.25,2,3,0.0,1.0,12,45.0,30.0,3,1.061,0.0,459.98800000000006,0.2,1,2018-03-14 10:19:07.000,117,2018-03-14 10:26:45.835,0.25,90,-180,-180,90,1
15,0,491.93199999999996,0,0,1,0.25,2,9,0.0,1.0,6,45.0,30.0,9,0.8959999999999999,0.0,497.241,0.0,0,2018-03-14 10:19:07.000,117,2018-03-14 10:27:18.932,0.25,90,0,0,90,1
17,0,538.2919999999999,0,0,1,0.25,2,3,0.0,1.0,12,45.0,30.0,3,0.731,0.0,550.203,0.2,1,2018-03-14 10:19:07.000,117,2018-03-14 10:28:05.292,0.25,90,-180,-180,90,1
18,0,572.651,0,0,1,0.25,2,3,0.0,1.0,12,45.0,30.0,3,1.061,0.0,575.054,0.2,1,2018-03-14 10:19:07.000,117,2018-03-14 10:28:39.651,0.25,90,-180,-180,90,1
19,0,607.773,0,0,1,0.25,2,3,0.0,1.0,12,45.0,30.0,3,0.401,0.0,609.386,0.2,1,2018-03-14 10:19:07.000,117,2018-03-14 10:29:14.773,0.25,90,-180,-180,90,1
20,0,632.538,0,0,1,0.25,2,3,0.0,1.0,12,45.0,30.0,3,0.8959999999999999,0.0,633.961,0.2,1,2018-03-14 10:19:07.000,117,2018-03-14 10:29:39.538,0.25,90,-180,-180,90,1
21,0,660.206,0,0,1,0.25,2,9,0.0,1.0,6,45.0,30.0,9,0.401,1.0,662.7760000000001,0.2,1,2018-03-14 10:19:07.000,117,2018-03-14 10:30:07.206,0.25,-90,0,0,-90,1
22,0,691.716,0,0,1,0.25,2,9,0.0,1.0,6,45.0,30.0,9,0.731,1.0,710.0369999999999,0.2,1,2018-03-14 10:19:07.000,117,2018-03-14 10:30:38.716,0.25,-90,0,0,-90,1
23,0,735.328,0,0,1,0.25,2,3,0.0,1.0,12,45.0,30.0,3,1.061,1.0,743.956,0.0,0,2018-03-14 10:19:07.000,117,2018-03-14 10:31:22.328,0.25,-90,-180,-180,-90,1
25,0,786.7260000000001,0,0,1,0.25,2,3,0.0,1.0,12,45.0,30.0,3,0.5660000000000001,0.0,789.6310000000001,0.2,1,2018-03-14 10:19:07.000,117,2018-03-14 10:32:13.726,0.25,90,-180,-180,90,1
26,0,817.327,0,0,1,0.25,2,3,0.0,1.0,12,45.0,30.0,3,0.5660000000000001,0.0,819.5010000000001,0.2,1,2018-03-14 10:19:07.000,117,2018-03-14 10:32:44.327,0.25,90,-180,-180,90,1
27,0,843.796,0,0,1,0.25,2,3,0.0,1.0,12,45.0,30.0,3,0.8959999999999999,0.0,845.1560000000001,0.2,1,2018-03-14 10:19:07.000,117,2018-03-14 10:33:10.796,0.25,90,-180,-180,90,1
28,0,872.4169999999999,0,0,1,0.25,2,9,0.0,1.0,6,45.0,30.0,9,0.401,1.0,876.342,0.2,1,2018-03-14 10:19:07.000,117,2018-03-14 10:33:39.417,0.25,-90,0,0,-90,1
29,0,911.632,0,0,1,0.25,2,9,0.0,1.0,6,45.0,30.0,9,0.731,1.0,923.582,0.2,1,2018-03-14 10:19:07.000,117,2018-03-14 10:34:18.632,0.25,-90,0,0,-90,1
30,0,954.648,0,0,1,0.25,2,9,0.0,1.0,6,45.0,30.0,9,1.061,1.0,960.676,0.2,1,2018-03-14 10:19:07.000,117,2018-03-14 10:35:01.648,0.25,-90,0,0,-90,1
31,0,1000.143,0,0,1,0.25,2,9,0.0,1.0,6,45.0,30.0,9,0.401,0.0,1002.2919999999999,0.0,0,2018-03-14 10:19:07.000,117,2018-03-14 10:35:47.143,0.25,90,0,0,90,1
33,0,1034.153,0,0,1,0.25,2,3,0.0,1.0,12,45.0,30.0,3,0.731,1.0,1045.549,0.0,0,2018-03-14 10:19:07.000,117,2018-03-14 10:36:21.153,0.25,-90,-180,-180,-90,1
35,0,1084.079,0,0,1,0.25,2,9,0.0,1.0,6,45.0,30.0,9,1.061,1.0,1085.5439999999999,0.2,1,2018-03-14 10:19:07.000,117,2018-03-14 10:37:11.079,0.25,-90,0,0,-90,1
36,0,1110.9460000000001,0,0,1,0.25,2,3,0.0,1.0,12,45.0,30.0,3,0.5660000000000001,1.0,1118.573,0.0,0,2018-03-14 10:19:07.000,117,2018-03-14 10:37:37.946,0.25,-90,-180,-180,-90,1
38,0,1151.522,0,0,1,0.25,2,9,0.0,1.0,6,45.0,30.0,9,1.061,0.0,1153.187,0.0,0,2018-03-14 10:19:07.000,117,2018-03-14 10:38:18.522,0.25,90,0,0,90,1
40,0,1187.361,0,0,1,0.25,2,9,0.0,1.0,6,45.0,30.0,9,0.401,0.0,1198.469,0.0,0,2018-03-14 10:19:07.000,117,2018-03-14 10:38:54.361,0.25,90,0,0,90,1
42,0,1249.202,0,0,1,0.25,2,9,0.0,1.0,6,45.0,30.0,9,0.8959999999999999,0.0,1258.817,0.0,0,2018-03-14 10:19:07.000,117,2018-03-14 10:39:56.202,0.25,90,0,0,90,1
44,0,1300.015,0,0,1,0.25,2,3,0.0,1.0,12,45.0,30.0,3,0.731,0.0,1301.755,0.2,1,2018-03-14 10:19:07.000,117,2018-03-14 10:40:47.015,0.25,90,-180,-180,90,1
45,0,1319.7939999999999,0,0,1,0.25,2,3,0.0,1.0,12,45.0,30.0,3,0.401,0.0,1321.2820000000002,0.2,1,2018-03-14 10:19:07.000,117,2018-03-14 10:41:06.794,0.25,90,-180,-180,90,1
46,0,1345.227,0,0,1,0.25,2,3,0.0,1.0,12,45.0,30.0,3,1.061,0.0,1346.354,0.2,1,2018-03-14 10:19:07.000,117,2018-03-14 10:41:32.227,0.25,90,-180,-180,90,1
47,0,1371.0320000000002,0,0,1,0.25,2,3,0.0,1.0,12,45.0,30.0,3,0.8959999999999999,0.0,1372.192,0.2,1,2018-03-14 10:19:07.000,117,2018-03-14 10:41:58.032,0.25,90,-180,-180,90,1
48,0,1396.8429999999998,0,0,1,0.25,2,9,0.0,1.0,6,45.0,30.0,9,0.5660000000000001,0.0,1398.1879999999999,0.0,0,2018-03-14 10:19:07.000,117,2018-03-14 10:42:23.843,0.25,90,0,0,90,1
50,0,1431.368,0,0,1,0.25,2,3,0.0,1.0,12,45.0,30.0,3,0.731,0.0,1432.57,0.2,1,2018-03-14 10:19:07.000,117,2018-03-14 10:42:58.368,0.25,90,-180,-180,90,1
51,0,1453.27,0,0,1,0.25,2,9,0.0,1.0,6,45.0,30.0,9,0.8959999999999999,0.0,1454.68,0.0,0,2018-03-14 10:19:07.000,117,2018-03-14 10:43:20.270,0.25,90,0,0,90,1
54,0,1507.385,0,0,1,0.25,2,9,0.0,1.0,6,45.0,30.0,9,0.401,0.0,1509.21,0.0,0,2018-03-14 10:19:07.000,117,2018-03-14 10:44:14.385,0.25,90,0,0,90,1
56,0,1554.884,0,0,1,0.25,2,3,0.0,1.0,12,45.0,30.0,3,0.8959999999999999,0.0,1556.398,0.2,1,2018-03-14 10:19:07.000,117,2018-03-14 10:45:01.884,0.25,90,-180,-180,90,1
57,0,1576.351,0,0,1,0.25,2,3,0.0,1.0,12,45.0,30.0,3,0.401,0.0,1577.7220000000002,0.2,1,2018-03-14 10:19:07.000,117,2018-03-14 10:45:23.351,0.25,90,-180,-180,90,1
58,0,1609.987,0,0,1,0.25,2,3,0.0,1.0,12,45.0,30.0,3,0.5660000000000001,0.0,1611.476,0.2,1,2018-03-14 10:19:07.000,117,2018-03-14 10:45:56.987,0.25,90,-180,-180,90,1
59,0,1629.975,0,0,1,0.25,2,3,0.0,1.0,12,45.0,30.0,3,0.731,0.0,1631.628,0.2,1,2018-03-14 10:19:07.000,117,2018-03-14 10:46:16.975,0.25,90,-180,-180,90,1
60,0,1661.0,0,0,1,0.25,2,3,0.0,1.0,12,45.0,30.0,3,1.061,0.0,1662.296,0.2,1,2018-03-14 10:19:07.000,117,2018-03-14 10:46:48.000,0.25,90,-180,-180,90,1
61,0,1671.1960000000001,0,0,1,0.25,2,9,0.0,1.0,6,45.0,30.0,9,0.8959999999999999,1.0,1672.654,0.2,1,2018-03-14 10:19:07.000,117,2018-03-14 10:46:58.196,0.25,-90,0,0,-90,1
62,0,1767.0829999999999,0,0,1,0.25,2,3,0.0,1.0,12,45.0,30.0,3,0.5660000000000001,0.0,1768.7,0.2,1,2018-03-14 10:19:07.000,117,2018-03-14 10:48:34.083,0.25,90,-180,-180,90,1
63,0,1786.8020000000001,0,0,1,0.25,2,9,0.0,1.0,6,45.0,30.0,9,1.061,1.0,1788.332,0.2,1,2018-03-14 10:19:07.000,117,2018-03-14 10:48:53.802,0.25,-90,0,0,-90,1
64,0,1807.0610000000001,0,0,1,0.25,2,3,0.0,1.0,12,45.0,30.0,3,0.731,0.0,1808.514,0.2,1,2018-03-14 10:19:07.000,117,2018-03-14 10:49:14.061,0.25,90,-180,-180,90,1
65,0,1827.9070000000002,0,0,1,0.25,2,3,0.0,1.0,12,45.0,30.0,3,0.401,0.0,1831.87,0.2,1,2018-03-14 10:19:07.000,117,2018-03-14 10:49:34.907,0.25,90,-180,-180,90,1
66,0,1854.0910000000001,0,0,1,0.25,2,9,0.0,1.0,6,45.0,30.0,9,1.061,1.0,1855.4679999999998,0.2,1,2018-03-14 10:19:07.000,117,2018-03-14 10:50:01.091,0.25,-90,0,0,-90,1
67,0,1886.645,0,0,1,0.25,2,9,0.0,1.0,6,45.0,30.0,9,0.8959999999999999,1.0,1897.7120000000002,0.2,1,2018-03-14 10:19:07.000,117,2018-03-14 10:50:33.645,0.25,-90,0,0,-90,1
68,0,1916.745,0,0,1,0.25,2,9,0.0,1.0,6,45.0,30.0,9,0.731,0.0,1918.1960000000001,0.0,0,2018-03-14 10:19:07.000,117,2018-03-14 10:51:03.745,0.25,90,0,0,90,1
1,0,13.732999999999999,0,0,1,0.25,2,9,0.0,1.0,6,45.0,30.0,9,1.061,0.0,16.099,0.0,0,2018-03-14 15:54:48.000,116,2018-03-14 15:55:01.733,0.25,90,0,0,90,1
4,0,71.51899999999999,0,0,1,0.25,2,3,0.0,1.0,12,45.0,30.0,3,0.5660000000000001,1.0,81.596,0.0,0,2018-03-14 15:54:48.000,116,2018-03-14 15:55:59.519,0.25,-90,-180,-180,-90,1
6,0,116.006,0,0,1,0.25,2,9,0.0,1.0,6,45.0,30.0,9,0.731,0.0,117.015,0.0,0,2018-03-14 15:54:48.000,116,2018-03-14 15:56:44.006,0.25,90,0,0,90,1
8,0,154.136,0,0,1,0.25,2,9,0.0,1.0,6,45.0,30.0,9,1.061,1.0,166.71900000000002,0.2,1,2018-03-14 15:54:48.000,116,2018-03-14 15:57:22.136,0.25,-90,0,0,-90,1
9,0,194.09900000000002,0,0,1,0.25,2,9,0.0,1.0,6,45.0,30.0,9,0.5660000000000001,1.0,202.396,0.2,1,2018-03-14 15:54:48.000,116,2018-03-14 15:58:02.099,0.25,-90,0,0,-90,1
10,0,226.225,0,0,1,0.25,2,9,0.0,1.0,6,45.0,30.0,9,0.8959999999999999,1.0,233.533,0.2,1,2018-03-14 15:54:48.000,116,2018-03-14 15:58:34.225,0.25,-90,0,0,-90,1
11,0,262.83099999999996,0,0,1,0.25,2,3,0.0,1.0,12,45.0,30.0,3,1.061,0.0,265.33799999999997,0.2,1,2018-03-14 15:54:48.000,116,2018-03-14 15:59:10.831,0.25,90,-180,-180,90,1
12,0,288.802,0,0,1,0.25,2,3,0.0,1.0,12,45.0,30.0,3,0.8959999999999999,0.0,289.937,0.2,1,2018-03-14 15:54:48.000,116,2018-03-14 15:59:36.802,0.25,90,-180,-180,90,1
13,0,328.48400000000004,0,0,1,0.25,2,3,0.0,1.0,12,45.0,30.0,3,0.5660000000000001,0.0,329.68199999999996,0.2,1,2018-03-14 15:54:48.000,116,2018-03-14 16:00:16.484,0.25,90,-180,-180,90,1
14,0,351.977,0,0,1,0.25,2,9,0.0,1.0,6,45.0,30.0,9,0.401,0.0,356.055,0.0,0,2018-03-14 15:54:48.000,116,2018-03-14 16:00:39.977,0.25,90,0,0,90,1
16,0,390.575,0,0,1,0.25,2,3,0.0,1.0,12,45.0,30.0,3,0.401,0.0,401.717,0.2,1,2018-03-14 15:54:48.000,116,2018-03-14 16:01:18.575,0.25,90,-180,-180,90,1
17,0,424.70300000000003,0,0,1,0.25,2,9,0.0,1.0,6,45.0,30.0,9,0.8959999999999999,0.0,426.001,0.0,0,2018-03-14 15:54:48.000,116,2018-03-14 16:01:52.703,0.25,90,0,0,90,1
19,0,464.86,0,0,1,0.25,2,3,0.0,1.0,12,45.0,30.0,3,0.731,0.0,469.126,0.2,1,2018-03-14 15:54:48.000,116,2018-03-14 16:02:32.860,0.25,90,-180,-180,90,1
20,0,497.525,0,0,1,0.25,2,3,0.0,1.0,12,45.0,30.0,3,0.5660000000000001,0.0,500.94,0.2,1,2018-03-14 15:54:48.000,116,2018-03-14 16:03:05.525,0.25,90,-180,-180,90,1
21,0,532.545,0,0,1,0.25,2,3,0.0,1.0,12,45.0,30.0,3,0.401,0.0,533.893,0.2,1,2018-03-14 15:54:48.000,116,2018-03-14 16:03:40.545,0.25,90,-180,-180,90,1
22,0,560.842,0,0,1,0.25,2,3,0.0,1.0,12,45.0,30.0,3,0.8959999999999999,0.0,562.21,0.2,1,2018-03-14 15:54:48.000,116,2018-03-14 16:04:08.842,0.25,90,-180,-180,90,1
23,0,586.63,0,0,1,0.25,2,9,0.0,1.0,6,45.0,30.0,9,0.731,0.0,589.815,0.0,0,2018-03-14 15:54:48.000,116,2018-03-14 16:04:34.630,0.25,90,0,0,90,1
25,0,626.015,0,0,1,0.25,2,9,0.0,1.0,6,45.0,30.0,9,1.061,0.0,637.873,0.0,0,2018-03-14 15:54:48.000,116,2018-03-14 16:05:14.015,0.25,90,0,0,90,1
27,0,684.007,0,0,1,0.25,2,9,0.0,1.0,6,45.0,30.0,9,0.8959999999999999,1.0,687.788,0.2,1,2018-03-14 15:54:48.000,116,2018-03-14 16:06:12.007,0.25,-90,0,0,-90,1
28,0,714.1339999999999,0,0,1,0.25,2,3,0.0,1.0,12,45.0,30.0,3,0.401,0.0,715.3430000000001,0.2,1,2018-03-14 15:54:48.000,116,2018-03-14 16:06:42.134,0.25,90,-180,-180,90,1
29,0,736.041,0,0,1,0.25,2,3,0.0,1.0,12,45.0,30.0,3,0.5660000000000001,0.0,737.3889999999999,0.2,1,2018-03-14 15:54:48.000,116,2018-03-14 16:07:04.041,0.25,90,-180,-180,90,1
30,0,768.523,0,0,1,0.25,2,9,0.0,1.0,6,45.0,30.0,9,0.731,1.0,770.291,0.2,1,2018-03-14 15:54:48.000,116,2018-03-14 16:07:36.523,0.25,-90,0,0,-90,1
31,0,795.695,0,0,1,0.25,2,9,0.0,1.0,6,45.0,30.0,9,0.8959999999999999,0.0,798.877,0.0,0,2018-03-14 15:54:48.000,116,2018-03-14 16:08:03.695,0.25,90,0,0,90,1
33,0,830.2589999999999,0,0,1,0.25,2,9,0.0,1.0,6,45.0,30.0,9,0.401,1.0,840.883,0.2,1,2018-03-14 15:54:48.000,116,2018-03-14 16:08:38.259,0.25,-90,0,0,-90,1
34,0,867.85,0,0,1,0.25,2,3,0.0,1.0,12,45.0,30.0,3,1.061,1.0,875.865,0.0,0,2018-03-14 15:54:48.000,116,2018-03-14 16:09:15.850,0.25,-90,-180,-180,-90,1
36,0,912.079,0,0,1,0.25,2,9,0.0,1.0,6,45.0,30.0,9,0.8959999999999999,1.0,913.71,0.2,1,2018-03-14 15:54:48.000,116,2018-03-14 16:10:00.079,0.25,-90,0,0,-90,1
37,0,932.61,0,0,1,0.25,2,9,0.0,1.0,6,45.0,30.0,9,0.401,1.0,943.159,0.2,1,2018-03-14 15:54:48.000,116,2018-03-14 16:10:20.610,0.25,-90,0,0,-90,1
38,0,970.327,0,0,1,0.25,2,3,0.0,1.0,12,45.0,30.0,3,0.5660000000000001,0.0,971.565,0.2,1,2018-03-14 15:54:48.000,116,2018-03-14 16:10:58.327,0.25,90,-180,-180,90,1
39,0,996.679,0,0,1,0.25,2,9,0.0,1.0,6,45.0,30.0,9,0.731,0.0,998.4630000000001,0.0,0,2018-03-14 15:54:48.000,116,2018-03-14 16:11:24.679,0.25,90,0,0,90,1
42,0,1068.221,0,0,1,0.25,2,9,0.0,1.0,6,45.0,30.0,9,0.401,0.0,1072.022,0.0,0,2018-03-14 15:54:48.000,116,2018-03-14 16:12:36.221,0.25,90,0,0,90,1
44,0,1115.377,0,0,1,0.25,2,9,0.0,1.0,6,45.0,30.0,9,0.8959999999999999,0.0,1117.749,0.0,0,2018-03-14 15:54:48.000,116,2018-03-14 16:13:23.377,0.25,90,0,0,90,1
46,0,1147.468,0,0,1,0.25,2,3,0.0,1.0,12,45.0,30.0,3,0.731,0.0,1155.232,0.2,1,2018-03-14 15:54:48.000,116,2018-03-14 16:13:55.468,0.25,90,-180,-180,90,1
1,0,13.092,0,0,1,0.25,2,3,0.0,1.0,12,45.0,30.0,3,1.061,0.0,14.835999999999999,0.18,1,2018-03-15 09:55:54.000,6,2018-03-15 09:56:07.092,0.25,90,-180,-180,90,1
2,0,45.328,0,0,1,0.25,2,3,0.0,1.0,12,45.0,30.0,3,0.5660000000000001,0.0,49.758,0.18,1,2018-03-15 09:55:54.000,6,2018-03-15 09:56:39.328,0.25,90,-180,-180,90,1
3,0,99.37100000000001,0,0,1,0.25,2,3,0.0,1.0,12,45.0,30.0,3,0.8959999999999999,0.0,101.105,0.18,1,2018-03-15 09:55:54.000,6,2018-03-15 09:57:33.371,0.25,90,-180,-180,90,1
4,0,132.181,0,0,1,0.25,2,3,0.0,1.0,12,45.0,30.0,3,0.731,0.0,133.585,0.18,1,2018-03-15 09:55:54.000,6,2018-03-15 09:58:06.181,0.25,90,-180,-180,90,1
5,0,177.34400000000002,0,0,1,0.25,2,3,0.0,1.0,12,45.0,30.0,3,0.401,0.0,180.168,0.18,1,2018-03-15 09:55:54.000,6,2018-03-15 09:58:51.344,0.25,90,-180,-180,90,1
6,0,218.771,0,0,1,0.25,2,3,0.0,1.0,12,45.0,30.0,3,1.061,0.0,219.92700000000002,0.18,1,2018-03-15 09:55:54.000,6,2018-03-15 09:59:32.771,0.25,90,-180,-180,90,1
7,0,264.536,0,0,1,0.25,2,3,0.0,1.0,12,45.0,30.0,3,0.8959999999999999,0.0,266.395,0.18,1,2018-03-15 09:55:54.000,6,2018-03-15 10:00:18.536,0.25,90,-180,-180,90,1
8,0,305.863,0,0,1,0.25,2,3,0.0,1.0,12,45.0,30.0,3,0.731,0.0,309.515,0.18,1,2018-03-15 09:55:54.000,6,2018-03-15 10:00:59.863,0.25,90,-180,-180,90,1
9,0,340.3,0,0,1,0.25,2,3,0.0,1.0,12,45.0,30.0,3,0.401,0.0,344.39099999999996,0.18,1,2018-03-15 09:55:54.000,6,2018-03-15 10:01:34.300,0.25,90,-180,-180,90,1
10,0,376.68199999999996,0,0,1,0.25,2,3,0.0,1.0,12,45.0,30.0,3,0.5660000000000001,1.0,380.847,0.0,0,2018-03-15 09:55:54.000,6,2018-03-15 10:02:10.682,0.25,-90,-180,-180,-90,1
12,0,420.23199999999997,0,0,1,0.25,2,9,0.0,1.0,6,45.0,30.0,9,0.5660000000000001,1.0,425.031,0.22,1,2018-03-15 09:55:54.000,6,2018-03-15 10:02:54.232,0.25,-90,0,0,-90,1
13,0,456.287,0,0,1,0.25,2,9,0.0,1.0,6,45.0,30.0,9,0.401,1.0,468.496,0.22,1,2018-03-15 09:55:54.000,6,2018-03-15 10:03:30.287,0.25,-90,0,0,-90,1
14,0,501.092,0,0,1,0.25,2,9,0.0,1.0,6,45.0,30.0,9,0.731,1.0,511.974,0.22,1,2018-03-15 09:55:54.000,6,2018-03-15 10:04:15.092,0.25,-90,0,0,-90,1
15,0,537.587,0,0,1,0.25,2,9,0.0,1.0,6,45.0,30.0,9,1.061,1.0,553.659,0.22,1,2018-03-15 09:55:54.000,6,2018-03-15 10:04:51.587,0.25,-90,0,0,-90,1
16,0,586.139,0,0,1,0.25,2,9,0.0,1.0,6,45.0,30.0,9,0.731,1.0,596.175,0.22,1,2018-03-15 09:55:54.000,6,2018-03-15 10:05:40.139,0.25,-90,0,0,-90,1
17,0,626.651,0,0,1,0.25,2,9,0.0,1.0,6,45.0,30.0,9,0.5660000000000001,1.0,633.499,0.22,1,2018-03-15 09:55:54.000,6,2018-03-15 10:06:20.651,0.25,-90,0,0,-90,1
18,0,661.602,0,0,1,0.25,2,9,0.0,1.0,6,45.0,30.0,9,0.401,1.0,678.3330000000001,0.22,1,2018-03-15 09:55:54.000,6,2018-03-15 10:06:55.602,0.25,-90,0,0,-90,1
19,0,706.2819999999999,0,0,1,0.25,2,9,0.0,1.0,6,45.0,30.0,9,1.061,0.0,717.5089999999999,0.0,0,2018-03-15 09:55:54.000,6,2018-03-15 10:07:40.282,0.25,90,0,0,90,1
21,0,756.4680000000001,0,0,1,0.25,2,9,0.0,1.0,6,45.0,30.0,9,1.061,1.0,765.794,0.22,1,2018-03-15 09:55:54.000,6,2018-03-15 10:08:30.468,0.25,-90,0,0,-90,1
22,0,796.443,0,0,1,0.25,2,9,0.0,1.0,6,45.0,30.0,9,0.731,1.0,803.957,0.22,1,2018-03-15 09:55:54.000,6,2018-03-15 10:09:10.443,0.25,-90,0,0,-90,1
23,0,828.311,0,0,1,0.25,2,3,0.0,1.0,12,45.0,30.0,3,0.8959999999999999,0.0,835.5269999999999,0.18,1,2018-03-15 09:55:54.000,6,2018-03-15 10:09:42.311,0.25,90,-180,-180,90,1
24,0,846.1089999999999,0,0,1,0.25,2,3,0.0,1.0,12,45.0,30.0,3,0.401,0.0,847.893,0.18,1,2018-03-15 09:55:54.000,6,2018-03-15 10:10:00.109,0.25,90,-180,-180,90,1
25,0,879.201,0,0,1,0.25,2,3,0.0,1.0,12,45.0,30.0,3,0.5660000000000001,0.0,881.041,0.18,1,2018-03-15 09:55:54.000,6,2018-03-15 10:10:33.201,0.25,90,-180,-180,90,1
26,0,898.215,0,0,1,0.25,2,3,0.0,1.0,12,45.0,30.0,3,0.731,0.0,901.1030000000001,0.18,1,2018-03-15 09:55:54.000,6,2018-03-15 10:10:52.215,0.25,90,-180,-180,90,1
27,0,925.243,0,0,1,0.25,2,9,0.0,1.0,6,45.0,30.0,9,1.061,1.0,928.414,0.22,1,2018-03-15 09:55:54.000,6,2018-03-15 10:11:19.243,0.25,-90,0,0,-90,1
28,0,954.062,0,0,1,0.25,2,9,0.0,1.0,6,45.0,30.0,9,0.401,0.0,956.052,0.0,0,2018-03-15 09:55:54.000,6,2018-03-15 10:11:48.062,0.25,90,0,0,90,1
30,0,995.596,0,0,1,0.25,2,9,0.0,1.0,6,45.0,30.0,9,0.5660000000000001,1.0,1004.087,0.22,1,2018-03-15 09:55:54.000,6,2018-03-15 10:12:29.596,0.25,-90,0,0,-90,1
31,0,1032.366,0,0,1,0.25,2,9,0.0,1.0,6,45.0,30.0,9,0.731,1.0,1039.5910000000001,0.22,1,2018-03-15 09:55:54.000,6,2018-03-15 10:13:06.366,0.25,-90,0,0,-90,1
32,0,1063.562,0,0,1,0.25,2,3,0.0,1.0,12,45.0,30.0,3,1.061,0.0,1065.36,0.18,1,2018-03-15 09:55:54.000,6,2018-03-15 10:13:37.562,0.25,90,-180,-180,90,1
33,0,1086.825,0,0,1,0.25,2,9,0.0,1.0,6,45.0,30.0,9,0.8959999999999999,0.0,1088.178,0.0,0,2018-03-15 09:55:54.000,6,2018-03-15 10:14:00.825,0.25,90,0,0,90,1
35,0,1114.185,0,0,1,0.25,2,9,0.0,1.0,6,45.0,30.0,9,0.401,0.0,1125.013,0.0,0,2018-03-15 09:55:54.000,6,2018-03-15 10:14:28.185,0.25,90,0,0,90,1
38,0,1186.51,0,0,1,0.25,2,9,0.0,1.0,6,45.0,30.0,9,0.731,1.0,1193.458,0.22,1,2018-03-15 09:55:54.000,6,2018-03-15 10:15:40.510,0.25,-90,0,0,-90,1
39,0,1224.873,0,0,1,0.25,2,9,0.0,1.0,6,45.0,30.0,9,0.8959999999999999,1.0,1233.4360000000001,0.22,1,2018-03-15 09:55:54.000,6,2018-03-15 10:16:18.873,0.25,-90,0,0,-90,1
40,0,1255.827,0,0,1,0.25,2,9,0.0,1.0,6,45.0,30.0,9,0.5660000000000001,0.0,1257.928,0.0,0,2018-03-15 09:55:54.000,6,2018-03-15 10:16:49.827,0.25,90,0,0,90,1
42,0,1288.848,0,0,1,0.25,2,3,0.0,1.0,12,45.0,30.0,3,0.731,0.0,1290.738,0.18,1,2018-03-15 09:55:54.000,6,2018-03-15 10:17:22.848,0.25,90,-180,-180,90,1
43,0,1307.003,0,0,1,0.25,2,3,0.0,1.0,12,45.0,30.0,3,0.401,0.0,1308.444,0.18,1,2018-03-15 09:55:54.000,6,2018-03-15 10:17:41.003,0.25,90,-180,-180,90,1
44,0,1335.1870000000001,0,0,1,0.25,2,3,0.0,1.0,12,45.0,30.0,3,1.061,0.0,1336.648,0.18,1,2018-03-15 09:55:54.000,6,2018-03-15 10:18:09.187,0.25,90,-180,-180,90,1
45,0,1356.18,0,0,1,0.25,2,3,0.0,1.0,12,45.0,30.0,3,0.8959999999999999,0.0,1357.629,0.18,1,2018-03-15 09:55:54.000,6,2018-03-15 10:18:30.180,0.25,90,-180,-180,90,1
46,0,1377.2379999999998,0,0,1,0.25,2,9,0.0,1.0,6,45.0,30.0,9,0.8959999999999999,1.0,1382.568,0.22,1,2018-03-15 09:55:54.000,6,2018-03-15 10:18:51.238,0.25,-90,0,0,-90,1
47,0,1593.119,0,0,1,0.25,2,3,0.0,1.0,12,45.0,30.0,3,1.061,0.0,1594.675,0.18,1,2018-03-15 09:55:54.000,6,2018-03-15 10:22:27.119,0.25,90,-180,-180,90,1
1,0,34.717,0,60,1,0.25,2,3,0.0,1.0,12,45.0,30.0,3,1.061,0.0,36.091,0.18,1,2018-03-15 15:55:38.000,64,2018-03-15 15:56:12.717,0.25,90,-180,120,30,1
2,0,60.302,0,60,1,0.25,2,3,0.0,1.0,12,45.0,30.0,3,0.5660000000000001,0.0,61.721000000000004,0.18,1,2018-03-15 15:55:38.000,64,2018-03-15 15:56:38.302,0.25,90,-180,120,30,1
3,0,120.715,0,60,1,0.25,2,3,0.0,1.0,12,45.0,30.0,3,0.401,0.0,122.698,0.18,1,2018-03-15 15:55:38.000,64,2018-03-15 15:57:38.715,0.25,90,-180,120,30,1
4,0,160.79399999999998,0,60,1,0.25,2,9,0.0,1.0,6,45.0,30.0,9,0.8959999999999999,0.0,163.026,0.0,0,2018-03-15 15:55:38.000,64,2018-03-15 15:58:18.794,0.25,90,0,-60,30,1
6,0,214.081,0,60,1,0.25,2,9,0.0,1.0,6,45.0,30.0,9,1.061,1.0,216.985,0.22,1,2018-03-15 15:55:38.000,64,2018-03-15 15:59:12.081,0.25,-90,0,-60,-150,1
7,0,248.554,0,60,1,0.25,2,9,0.0,1.0,6,45.0,30.0,9,0.401,0.0,253.08,0.0,0,2018-03-15 15:55:38.000,64,2018-03-15 15:59:46.554,0.25,90,0,-60,30,1
9,0,317.983,0,60,1,0.25,2,9,0.0,1.0,6,45.0,30.0,9,0.5660000000000001,1.0,319.819,0.22,1,2018-03-15 15:55:38.000,64,2018-03-15 16:00:55.983,0.25,-90,0,-60,-150,1
10,0,352.015,0,60,1,0.25,2,9,0.0,1.0,6,45.0,30.0,9,0.8959999999999999,1.0,354.505,0.22,1,2018-03-15 15:55:38.000,64,2018-03-15 16:01:30.015,0.25,-90,0,-60,-150,1
11,0,420.411,0,60,1,0.25,2,9,0.0,1.0,6,45.0,30.0,9,0.401,1.0,424.776,0.22,1,2018-03-15 15:55:38.000,64,2018-03-15 16:02:38.411,0.25,-90,0,-60,-150,1
12,0,453.644,0,60,1,0.25,2,3,0.0,1.0,12,45.0,30.0,3,0.8959999999999999,0.0,455.591,0.18,1,2018-03-15 15:55:38.000,64,2018-03-15 16:03:11.644,0.25,90,-180,120,30,1
13,0,477.545,0,60,1,0.25,2,9,0.0,1.0,6,45.0,30.0,9,0.731,1.0,479.32599999999996,0.22,1,2018-03-15 15:55:38.000,64,2018-03-15 16:03:35.545,0.25,-90,0,-60,-150,1
14,0,506.75199999999995,0,60,1,0.25,2,9,0.0,1.0,6,45.0,30.0,9,1.061,1.0,508.94800000000004,0.22,1,2018-03-15 15:55:38.000,64,2018-03-15 16:04:04.752,0.25,-90,0,-60,-150,1
15,0,536.693,0,60,1,0.25,2,9,0.0,1.0,6,45.0,30.0,9,0.5660000000000001,1.0,540.925,0.22,1,2018-03-15 15:55:38.000,64,2018-03-15 16:04:34.693,0.25,-90,0,-60,-150,1
16,0,580.461,0,60,1,0.25,2,3,0.0,1.0,12,45.0,30.0,3,0.731,0.0,581.915,0.18,1,2018-03-15 15:55:38.000,64,2018-03-15 16:05:18.461,0.25,90,-180,120,30,1
17,0,606.432,0,60,1,0.25,2,3,0.0,1.0,12,45.0,30.0,3,0.5660000000000001,0.0,607.672,0.18,1,2018-03-15 15:55:38.000,64,2018-03-15 16:05:44.432,0.25,90,-180,120,30,1
18,0,632.2869999999999,0,60,1,0.25,2,3,0.0,1.0,12,45.0,30.0,3,0.8959999999999999,0.0,633.4730000000001,0.18,1,2018-03-15 15:55:38.000,64,2018-03-15 16:06:10.287,0.25,90,-180,120,30,1
19,0,656.237,0,60,1,0.25,2,3,0.0,1.0,12,45.0,30.0,3,1.061,0.0,661.86,0.18,1,2018-03-15 15:55:38.000,64,2018-03-15 16:06:34.237,0.25,90,-180,120,30,1
20,0,689.194,0,60,1,0.25,2,3,0.0,1.0,12,45.0,30.0,3,0.401,0.0,691.0260000000001,0.18,1,2018-03-15 15:55:38.000,64,2018-03-15 16:07:07.194,0.25,90,-180,120,30,1
21,0,711.586,0,60,1,0.25,2,3,0.0,1.0,12,45.0,30.0,3,0.401,1.0,714.056,0.0,0,2018-03-15 15:55:38.000,64,2018-03-15 16:07:29.586,0.25,-90,-180,120,-150,1
23,0,748.2560000000001,0,60,1,0.25,2,9,0.0,1.0,6,45.0,30.0,9,0.8959999999999999,1.0,750.035,0.22,1,2018-03-15 15:55:38.000,64,2018-03-15 16:08:06.256,0.25,-90,0,-60,-150,1
24,0,775.7239999999999,0,60,1,0.25,2,9,0.0,1.0,6,45.0,30.0,9,0.5660000000000001,1.0,779.908,0.22,1,2018-03-15 15:55:38.000,64,2018-03-15 16:08:33.724,0.25,-90,0,-60,-150,1
25,0,806.177,0,60,1,0.25,2,9,0.0,1.0,6,45.0,30.0,9,0.731,1.0,811.047,0.22,1,2018-03-15 15:55:38.000,64,2018-03-15 16:09:04.177,0.25,-90,0,-60,-150,1
26,0,839.587,0,60,1,0.25,2,9,0.0,1.0,6,45.0,30.0,9,0.731,1.0,842.232,0.22,1,2018-03-15 15:55:38.000,64,2018-03-15 16:09:37.587,0.25,-90,0,-60,-150,1
27,0,868.942,0,60,1,0.25,2,3,0.0,1.0,12,45.0,30.0,3,0.8959999999999999,0.0,870.472,0.18,1,2018-03-15 15:55:38.000,64,2018-03-15 16:10:06.942,0.25,90,-180,120,30,1
28,0,890.0269999999999,0,60,1,0.25,2,3,0.0,1.0,12,45.0,30.0,3,0.401,0.0,891.648,0.18,1,2018-03-15 15:55:38.000,64,2018-03-15 16:10:28.027,0.25,90,-180,120,30,1
29,0,913.7460000000001,0,60,1,0.25,2,3,0.0,1.0,12,45.0,30.0,3,0.5660000000000001,0.0,915.541,0.18,1,2018-03-15 15:55:38.000,64,2018-03-15 16:10:51.746,0.25,90,-180,120,30,1
30,0,939.575,0,60,1,0.25,2,3,0.0,1.0,12,45.0,30.0,3,1.061,0.0,940.7,0.18,1,2018-03-15 15:55:38.000,64,2018-03-15 16:11:17.575,0.25,90,-180,120,30,1
31,0,965.799,0,60,1,0.25,2,9,0.0,1.0,6,45.0,30.0,9,0.401,1.0,967.637,0.22,1,2018-03-15 15:55:38.000,64,2018-03-15 16:11:43.799,0.25,-90,0,-60,-150,1
32,0,991.4680000000001,0,60,1,0.25,2,9,0.0,1.0,6,45.0,30.0,9,0.731,1.0,1004.688,0.22,1,2018-03-15 15:55:38.000,64,2018-03-15 16:12:09.468,0.25,-90,0,-60,-150,1
33,0,1033.3310000000001,0,60,1,0.25,2,3,0.0,1.0,12,45.0,30.0,3,1.061,0.0,1035.5919999999999,0.18,1,2018-03-15 15:55:38.000,64,2018-03-15 16:12:51.331,0.25,90,-180,120,30,1
34,0,1053.563,0,60,1,0.25,2,3,0.0,1.0,12,45.0,30.0,3,0.8959999999999999,0.0,1055.105,0.18,1,2018-03-15 15:55:38.000,64,2018-03-15 16:13:11.563,0.25,90,-180,120,30,1
35,0,1075.5739999999998,0,60,1,0.25,2,3,0.0,1.0,12,45.0,30.0,3,0.5660000000000001,0.0,1077.325,0.18,1,2018-03-15 15:55:38.000,64,2018-03-15 16:13:33.574,0.25,90,-180,120,30,1
36,0,1101.285,0,60,1,0.25,2,3,0.0,1.0,12,45.0,30.0,3,1.061,0.0,1102.488,0.18,1,2018-03-15 15:55:38.000,64,2018-03-15 16:13:59.285,0.25,90,-180,120,30,1
37,0,1106.9669999999999,0,60,1,0.25,2,9,0.0,1.0,6,45.0,30.0,9,0.731,1.0,1108.807,0.22,1,2018-03-15 15:55:38.000,64,2018-03-15 16:14:04.967,0.25,-90,0,-60,-150,1
38,0,1143.146,0,60,1,0.25,2,9,0.0,1.0,6,45.0,30.0,9,0.8959999999999999,1.0,1145.077,0.22,1,2018-03-15 15:55:38.000,64,2018-03-15 16:14:41.146,0.25,-90,0,-60,-150,1
39,0,1171.24,0,60,1,0.25,2,9,0.0,1.0,6,45.0,30.0,9,0.401,1.0,1174.639,0.22,1,2018-03-15 15:55:38.000,64,2018-03-15 16:15:09.240,0.25,-90,0,-60,-150,1
40,0,1198.204,0,60,1,0.25,2,9,0.0,1.0,6,45.0,30.0,9,0.5660000000000001,1.0,1200.049,0.22,1,2018-03-15 15:55:38.000,64,2018-03-15 16:15:36.204,0.25,-90,0,-60,-150,1
41,0,1226.126,0,60,1,0.25,2,3,0.0,1.0,12,45.0,30.0,3,1.061,0.0,1227.491,0.18,1,2018-03-15 15:55:38.000,64,2018-03-15 16:16:04.126,0.25,90,-180,120,30,1
42,0,1255.089,0,60,1,0.25,2,3,0.0,1.0,12,45.0,30.0,3,0.5660000000000001,0.0,1256.43,0.18,1,2018-03-15 15:55:38.000,64,2018-03-15 16:16:33.089,0.25,90,-180,120,30,1
43,0,1276.881,0,60,1,0.25,2,9,0.0,1.0,6,45.0,30.0,9,0.8959999999999999,1.0,1279.078,0.22,1,2018-03-15 15:55:38.000,64,2018-03-15 16:16:54.881,0.25,-90,0,-60,-150,1
44,0,1303.965,0,60,1,0.25,2,3,0.0,1.0,12,45.0,30.0,3,0.401,1.0,1320.3410000000001,0.0,0,2018-03-15 15:55:38.000,64,2018-03-15 16:17:21.965,0.25,-90,-180,120,-150,1
46,0,1347.912,0,60,1,0.25,2,3,0.0,1.0,12,45.0,30.0,3,0.8959999999999999,0.0,1350.42,0.18,1,2018-03-15 15:55:38.000,64,2018-03-15 16:18:05.912,0.25,90,-180,120,30,1
47,0,1383.219,0,60,1,0.25,2,3,0.0,1.0,12,45.0,30.0,3,0.5660000000000001,1.0,1385.233,0.0,0,2018-03-15 15:55:38.000,64,2018-03-15 16:18:41.219,0.25,-90,-180,120,-150,1
49,0,1410.739,0,60,1,0.25,2,9,0.0,1.0,6,45.0,30.0,9,0.401,1.0,1412.995,0.22,1,2018-03-15 15:55:38.000,64,2018-03-15 16:19:08.739,0.25,-90,0,-60,-150,1
50,0,1435.559,0,60,1,0.25,2,3,0.0,1.0,12,45.0,30.0,3,1.061,1.0,1446.7579999999998,0.0,0,2018-03-15 15:55:38.000,64,2018-03-15 16:19:33.559,0.25,-90,-180,120,-150,1
52,0,1506.44,0,60,1,0.25,2,3,0.0,1.0,12,45.0,30.0,3,0.5660000000000001,0.0,1508.375,0.18,1,2018-03-15 15:55:38.000,64,2018-03-15 16:20:44.440,0.25,90,-180,120,30,1
53,0,1518.911,0,60,1,0.25,2,3,0.0,1.0,12,45.0,30.0,3,0.401,1.0,1521.5120000000002,0.0,0,2018-03-15 15:55:38.000,64,2018-03-15 16:20:56.911,0.25,-90,-180,120,-150,1
57,0,1894.2160000000001,0,60,1,0.25,2,9,0.0,1.0,6,45.0,30.0,9,0.731,0.0,1896.5639999999999,0.0,0,2018-03-15 15:55:38.000,64,2018-03-15 16:27:12.216,0.25,90,0,-60,30,1
59,0,1928.364,0,60,1,0.25,2,9,0.0,1.0,6,45.0,30.0,9,0.8959999999999999,1.0,1929.941,0.22,1,2018-03-15 15:55:38.000,64,2018-03-15 16:27:46.364,0.25,-90,0,-60,-150,1
60,0,1953.352,0,60,1,0.25,2,3,0.0,1.0,12,45.0,30.0,3,0.5660000000000001,1.0,1961.296,0.0,0,2018-03-15 15:55:38.000,64,2018-03-15 16:28:11.352,0.25,-90,-180,120,-150,1
62,0,1989.685,0,60,1,0.25,2,9,0.0,1.0,6,45.0,30.0,9,0.8959999999999999,1.0,1991.249,0.22,1,2018-03-15 15:55:38.000,64,2018-03-15 16:28:47.685,0.25,-90,0,-60,-150,1
63,0,2010.6470000000002,0,60,1,0.25,2,9,0.0,1.0,6,45.0,30.0,9,0.5660000000000001,1.0,2013.622,0.22,1,2018-03-15 15:55:38.000,64,2018-03-15 16:29:08.647,0.25,-90,0,-60,-150,1
64,0,2034.9560000000001,0,60,1,0.25,2,9,0.0,1.0,6,45.0,30.0,9,0.731,1.0,2036.576,0.22,1,2018-03-15 15:55:38.000,64,2018-03-15 16:29:32.956,0.25,-90,0,-60,-150,1
65,0,2063.92,0,60,1,0.25,2,3,0.0,1.0,12,45.0,30.0,3,1.061,0.0,2065.235,0.18,1,2018-03-15 15:55:38.000,64,2018-03-15 16:30:01.920,0.25,90,-180,120,30,1
66,0,2077.397,0,60,1,0.25,2,9,0.0,1.0,6,45.0,30.0,9,0.8959999999999999,1.0,2079.1820000000002,0.22,1,2018-03-15 15:55:38.000,64,2018-03-15 16:30:15.397,0.25,-90,0,-60,-150,1
67,0,2099.716,0,60,1,0.25,2,9,0.0,1.0,6,45.0,30.0,9,1.061,1.0,2107.1820000000002,0.22,1,2018-03-15 15:55:38.000,64,2018-03-15 16:30:37.716,0.25,-90,0,-60,-150,1
68,0,2130.169,0,60,1,0.25,2,9,0.0,1.0,6,45.0,30.0,9,0.731,1.0,2132.413,0.22,1,2018-03-15 15:55:38.000,64,2018-03-15 16:31:08.169,0.25,-90,0,-60,-150,1
69,0,2154.0879999999997,0,60,1,0.25,2,3,0.0,1.0,12,45.0,30.0,3,0.5660000000000001,0.0,2155.459,0.18,1,2018-03-15 15:55:38.000,64,2018-03-15 16:31:32.088,0.25,90,-180,120,30,1
70,0,2174.697,0,60,1,0.25,2,3,0.0,1.0,12,45.0,30.0,3,0.401,0.0,2177.175,0.18,1,2018-03-15 15:55:38.000,64,2018-03-15 16:31:52.697,0.25,90,-180,120,30,1
71,0,2195.38,0,60,1,0.25,2,9,0.0,1.0,6,45.0,30.0,9,0.5660000000000001,1.0,2197.77,0.22,1,2018-03-15 15:55:38.000,64,2018-03-15 16:32:13.380,0.25,-90,0,-60,-150,1
72,0,2213.837,0,60,1,0.25,2,3,0.0,1.0,12,45.0,30.0,3,1.061,0.0,2215.127,0.18,1,2018-03-15 15:55:38.000,64,2018-03-15 16:32:31.837,0.25,90,-180,120,30,1
73,0,2223.032,0,60,1,0.25,2,9,0.0,1.0,6,45.0,30.0,9,0.401,1.0,2229.17,0.22,1,2018-03-15 15:55:38.000,64,2018-03-15 16:32:41.032,0.25,-90,0,-60,-150,1
74,0,2254.6079999999997,0,60,1,0.25,2,3,0.0,1.0,12,45.0,30.0,3,0.8959999999999999,0.0,2256.092,0.18,1,2018-03-15 15:55:38.000,64,2018-03-15 16:33:12.608,0.25,90,-180,120,30,1
75,0,2267.837,0,60,1,0.25,2,3,0.0,1.0,12,45.0,30.0,3,0.731,0.0,2270.416,0.18,1,2018-03-15 15:55:38.000,64,2018-03-15 16:33:25.837,0.25,90,-180,120,30,1
76,0,2284.62,0,60,1,0.25,2,3,0.0,1.0,12,45.0,30.0,3,1.061,0.0,2285.911,0.18,1,2018-03-15 15:55:38.000,64,2018-03-15 16:33:42.620,0.25,90,-180,120,30,1
77,0,2296.784,0,60,1,0.25,2,3,0.0,1.0,12,45.0,30.0,3,0.8959999999999999,0.0,2298.411,0.18,1,2018-03-15 15:55:38.000,64,2018-03-15 16:33:54.784,0.25,90,-180,120,30,1
78,0,2310.203,0,60,1,0.25,2,9,0.0,1.0,6,45.0,30.0,9,0.731,0.0,2313.53,0.0,0,2018-03-15 15:55:38.000,64,2018-03-15 16:34:08.203,0.25,90,0,-60,30,1
80,0,2331.97,0,60,1,0.25,2,3,0.0,1.0,12,45.0,30.0,3,0.5660000000000001,0.0,2333.208,0.18,1,2018-03-15 15:55:38.000,64,2018-03-15 16:34:29.970,0.25,90,-180,120,30,1
81,0,2342.638,0,60,1,0.25,2,9,0.0,1.0,6,45.0,30.0,9,0.5660000000000001,0.0,2344.024,0.0,0,2018-03-15 15:55:38.000,64,2018-03-15 16:34:40.638,0.25,90,0,-60,30,1
1,0,28.36,0,0,1,0.25,2,3,0.0,1.0,12,45.0,30.0,3,0.8009999999999999,0.0,29.482,0.2,1,2018-03-16 10:35:14.000,173,2018-03-16 10:35:42.360,0.25,90,-180,-180,90,1
2,0,54.608000000000004,0,0,1,0.25,2,9,0.0,1.0,6,45.0,30.0,9,0.501,1.0,56.488,0.2,1,2018-03-16 10:35:14.000,173,2018-03-16 10:36:08.608,0.25,-90,0,0,-90,1
3,0,91.569,0,0,1,0.25,2,9,0.0,1.0,6,45.0,30.0,9,0.731,1.0,93.15799999999999,0.2,1,2018-03-16 10:35:14.000,173,2018-03-16 10:36:45.569,0.25,-90,0,0,-90,1
4,0,122.59700000000001,0,0,1,0.25,2,3,0.0,1.0,12,45.0,30.0,3,0.5660000000000001,1.0,126.016,0.0,0,2018-03-16 10:35:14.000,173,2018-03-16 10:37:16.597,0.25,-90,-180,-180,-90,1
6,0,153.528,0,0,1,0.25,2,3,0.0,1.0,12,45.0,30.0,3,1.061,0.0,154.866,0.2,1,2018-03-16 10:35:14.000,173,2018-03-16 10:37:47.528,0.25,90,-180,-180,90,1
7,0,185.88400000000001,0,0,1,0.25,2,9,0.0,1.0,6,45.0,30.0,9,0.401,1.0,188.329,0.2,1,2018-03-16 10:35:14.000,173,2018-03-16 10:38:19.884,0.25,-90,0,0,-90,1
8,0,216.96,0,0,1,0.25,2,3,0.0,1.0,12,45.0,30.0,3,0.8959999999999999,0.0,218.851,0.2,1,2018-03-16 10:35:14.000,173,2018-03-16 10:38:50.960,0.25,90,-180,-180,90,1
9,0,244.71099999999998,0,0,1,0.25,2,3,0.0,1.0,12,45.0,30.0,3,1.061,0.0,245.88099999999997,0.2,1,2018-03-16 10:35:14.000,173,2018-03-16 10:39:18.711,0.25,90,-180,-180,90,1
10,0,278.497,0,0,1,0.25,2,9,0.0,1.0,6,45.0,30.0,9,0.5660000000000001,0.0,281.85200000000003,0.0,0,2018-03-16 10:35:14.000,173,2018-03-16 10:39:52.497,0.25,90,0,0,90,1
12,0,314.08,0,0,1,0.25,2,3,0.0,1.0,12,45.0,30.0,3,0.731,1.0,322.152,0.0,0,2018-03-16 10:35:14.000,173,2018-03-16 10:40:28.080,0.25,-90,-180,-180,-90,1
15,0,384.65,0,0,1,0.25,2,9,0.0,1.0,6,45.0,30.0,9,0.401,1.0,389.24800000000005,0.2,1,2018-03-16 10:35:14.000,173,2018-03-16 10:41:38.650,0.25,-90,0,0,-90,1
16,0,418.80400000000003,0,0,1,0.25,2,3,0.0,1.0,12,45.0,30.0,3,0.5660000000000001,1.0,428.126,0.0,0,2018-03-16 10:35:14.000,173,2018-03-16 10:42:12.804,0.25,-90,-180,-180,-90,1
20,0,497.675,0,0,1,0.25,2,3,0.0,1.0,12,45.0,30.0,3,0.401,1.0,499.531,0.0,0,2018-03-16 10:35:14.000,173,2018-03-16 10:43:31.675,0.25,-90,-180,-180,-90,1
22,0,530.91,0,0,1,0.25,2,9,0.0,1.0,6,45.0,30.0,9,0.731,1.0,535.4019999999999,0.2,1,2018-03-16 10:35:14.000,173,2018-03-16 10:44:04.910,0.25,-90,0,0,-90,1
23,0,569.312,0,0,1,0.25,2,9,0.0,1.0,6,45.0,30.0,9,0.8959999999999999,1.0,579.184,0.2,1,2018-03-16 10:35:14.000,173,2018-03-16 10:44:43.312,0.25,-90,0,0,-90,1
24,0,607.894,0,0,1,0.25,2,3,0.0,1.0,12,45.0,30.0,3,0.5660000000000001,1.0,618.705,0.0,0,2018-03-16 10:35:14.000,173,2018-03-16 10:45:21.894,0.25,-90,-180,-180,-90,1
26,0,661.674,0,0,1,0.25,2,9,0.0,1.0,6,45.0,30.0,9,1.061,1.0,666.1460000000001,0.2,1,2018-03-16 10:35:14.000,173,2018-03-16 10:46:15.674,0.25,-90,0,0,-90,1
27,0,694.3330000000001,0,0,1,0.25,2,9,0.0,1.0,6,45.0,30.0,9,0.401,1.0,706.2139999999999,0.2,1,2018-03-16 10:35:14.000,173,2018-03-16 10:46:48.333,0.25,-90,0,0,-90,1
28,0,734.04,0,0,1,0.25,2,3,0.0,1.0,12,45.0,30.0,3,1.061,1.0,741.586,0.0,0,2018-03-16 10:35:14.000,173,2018-03-16 10:47:28.040,0.25,-90,-180,-180,-90,1
30,0,784.903,0,0,1,0.25,2,3,0.0,1.0,12,45.0,30.0,3,0.731,0.0,786.237,0.2,1,2018-03-16 10:35:14.000,173,2018-03-16 10:48:18.903,0.25,90,-180,-180,90,1
31,0,810.367,0,0,1,0.25,2,3,0.0,1.0,12,45.0,30.0,3,0.8959999999999999,0.0,811.747,0.2,1,2018-03-16 10:35:14.000,173,2018-03-16 10:48:44.367,0.25,90,-180,-180,90,1
32,0,836.628,0,0,1,0.25,2,3,0.0,1.0,12,45.0,30.0,3,0.401,0.0,838.31,0.2,1,2018-03-16 10:35:14.000,173,2018-03-16 10:49:10.628,0.25,90,-180,-180,90,1
33,0,858.92,0,0,1,0.25,2,3,0.0,1.0,12,45.0,30.0,3,0.8959999999999999,0.0,860.95,0.2,1,2018-03-16 10:35:14.000,173,2018-03-16 10:49:32.920,0.25,90,-180,-180,90,1
34,0,881.669,0,0,1,0.25,2,9,0.0,1.0,6,45.0,30.0,9,0.731,1.0,889.015,0.2,1,2018-03-16 10:35:14.000,173,2018-03-16 10:49:55.669,0.25,-90,0,0,-90,1
35,0,913.005,0,0,1,0.25,2,3,0.0,1.0,12,45.0,30.0,3,0.5660000000000001,0.0,915.327,0.2,1,2018-03-16 10:35:14.000,173,2018-03-16 10:50:27.005,0.25,90,-180,-180,90,1
36,0,934.023,0,0,1,0.25,2,9,0.0,1.0,6,45.0,30.0,9,0.401,0.0,935.8489999999999,0.0,0,2018-03-16 10:35:14.000,173,2018-03-16 10:50:48.023,0.25,90,0,0,90,1
38,0,970.6160000000001,0,0,1,0.25,2,9,0.0,1.0,6,45.0,30.0,9,1.061,1.0,979.166,0.2,1,2018-03-16 10:35:14.000,173,2018-03-16 10:51:24.616,0.25,-90,0,0,-90,1
39,0,1002.482,0,0,1,0.25,2,3,0.0,1.0,12,45.0,30.0,3,0.8959999999999999,1.0,1010.324,0.0,0,2018-03-16 10:35:14.000,173,2018-03-16 10:51:56.482,0.25,-90,-180,-180,-90,1
41,0,1047.237,0,0,1,0.25,2,9,0.0,1.0,6,45.0,30.0,9,0.731,1.0,1053.219,0.2,1,2018-03-16 10:35:14.000,173,2018-03-16 10:52:41.237,0.25,-90,0,0,-90,1
42,0,1075.323,0,0,1,0.25,2,9,0.0,1.0,6,45.0,30.0,9,0.5660000000000001,0.0,1085.262,0.0,0,2018-03-16 10:35:14.000,173,2018-03-16 10:53:09.323,0.25,90,0,0,90,1
45,0,1138.524,0,0,1,0.25,2,9,0.0,1.0,6,45.0,30.0,9,0.731,1.0,1149.629,0.2,1,2018-03-16 10:35:14.000,173,2018-03-16 10:54:12.524,0.25,-90,0,0,-90,1
46,0,1171.32,0,0,1,0.25,2,9,0.0,1.0,6,45.0,30.0,9,0.8959999999999999,0.0,1181.563,0.0,0,2018-03-16 10:35:14.000,173,2018-03-16 10:54:45.320,0.25,90,0,0,90,1
48,0,1218.213,0,0,1,0.25,2,9,0.0,1.0,6,45.0,30.0,9,0.401,0.0,1224.504,0.0,0,2018-03-16 10:35:14.000,173,2018-03-16 10:55:32.213,0.25,90,0,0,90,1
50,0,1265.137,0,0,1,0.25,2,3,0.0,1.0,12,45.0,30.0,3,0.731,1.0,1270.849,0.0,0,2018-03-16 10:35:14.000,173,2018-03-16 10:56:19.137,0.25,-90,-180,-180,-90,1
52,0,1294.55,0,0,1,0.25,2,9,0.0,1.0,6,45.0,30.0,9,1.061,0.0,1299.003,0.0,0,2018-03-16 10:35:14.000,173,2018-03-16 10:56:48.550,0.25,90,0,0,90,1
54,0,1337.2079999999999,0,0,1,0.25,2,3,0.0,1.0,12,45.0,30.0,3,0.5660000000000001,0.0,1338.953,0.2,1,2018-03-16 10:35:14.000,173,2018-03-16 10:57:31.208,0.25,90,-180,-180,90,1
55,0,1362.4520000000002,0,0,1,0.25,2,3,0.0,1.0,12,45.0,30.0,3,0.8959999999999999,0.0,1363.477,0.2,1,2018-03-16 10:35:14.000,173,2018-03-16 10:57:56.452,0.25,90,-180,-180,90,1
56,0,1384.664,0,0,1,0.25,2,3,0.0,1.0,12,45.0,30.0,3,0.731,0.0,1386.045,0.2,1,2018-03-16 10:35:14.000,173,2018-03-16 10:58:18.664,0.25,90,-180,-180,90,1
57,0,1407.4560000000001,0,0,1,0.25,2,9,0.0,1.0,6,45.0,30.0,9,0.401,0.0,1409.727,0.0,0,2018-03-16 10:35:14.000,173,2018-03-16 10:58:41.456,0.25,90,0,0,90,1
59,0,1453.364,0,0,1,0.25,2,3,0.0,1.0,12,45.0,30.0,3,0.401,0.0,1454.94,0.2,1,2018-03-16 10:35:14.000,173,2018-03-16 10:59:27.364,0.25,90,-180,-180,90,1
60,0,1466.4879999999998,0,0,1,0.25,2,3,0.0,1.0,12,45.0,30.0,3,0.731,0.0,1467.809,0.2,1,2018-03-16 10:35:14.000,173,2018-03-16 10:59:40.488,0.25,90,-180,-180,90,1
61,0,1485.464,0,0,1,0.25,2,9,0.0,1.0,6,45.0,30.0,9,0.5660000000000001,0.0,1487.335,0.0,0,2018-03-16 10:35:14.000,173,2018-03-16 10:59:59.464,0.25,90,0,0,90,1
64,0,1526.684,0,0,1,0.25,2,9,0.0,1.0,6,45.0,30.0,9,1.061,0.0,1527.787,0.0,0,2018-03-16 10:35:14.000,173,2018-03-16 11:00:40.684,0.25,90,0,0,90,1
66,0,1552.878,0,0,1,0.25,2,9,0.0,1.0,6,45.0,30.0,9,0.5660000000000001,1.0,1561.3,0.2,1,2018-03-16 10:35:14.000,173,2018-03-16 11:01:06.878,0.25,-90,0,0,-90,1
67,0,1579.1870000000001,0,0,1,0.25,2,9,0.0,1.0,6,45.0,30.0,9,0.401,0.0,1580.5529999999999,0.0,0,2018-03-16 10:35:14.000,173,2018-03-16 11:01:33.187,0.25,90,0,0,90,1
70,0,1790.4620000000002,0,0,1,0.25,2,3,0.0,1.0,12,45.0,30.0,3,0.731,0.0,1792.112,0.2,1,2018-03-16 10:35:14.000,173,2018-03-16 11:05:04.462,0.25,90,-180,-180,90,1
71,0,1809.8570000000002,0,0,1,0.25,2,3,0.0,1.0,12,45.0,30.0,3,0.5660000000000001,0.0,1811.005,0.2,1,2018-03-16 10:35:14.000,173,2018-03-16 11:05:23.857,0.25,90,-180,-180,90,1
72,0,1839.783,0,0,1,0.25,2,9,0.0,1.0,6,45.0,30.0,9,0.401,0.0,1842.0510000000002,0.0,0,2018-03-16 10:35:14.000,173,2018-03-16 11:05:53.783,0.25,90,0,0,90,1
74,0,1867.9720000000002,0,0,1,0.25,2,3,0.0,1.0,12,45.0,30.0,3,0.8959999999999999,0.0,1876.7620000000002,0.2,1,2018-03-16 10:35:14.000,173,2018-03-16 11:06:21.972,0.25,90,-180,-180,90,1
75,0,1891.836,0,0,1,0.25,2,9,0.0,1.0,6,45.0,30.0,9,0.731,0.0,1893.5729999999999,0.0,0,2018-03-16 10:35:14.000,173,2018-03-16 11:06:45.836,0.25,90,0,0,90,1
1,0,29.515,0,0,1,0.25,2,9,0.0,1.0,6,45.0,30.0,9,1.061,0.0,31.62,0.0,0,2018-03-16 15:46:28.000,48,2018-03-16 15:46:57.515,0.25,90,0,0,90,1
3,0,86.17,0,0,1,0.25,2,9,0.0,1.0,6,45.0,30.0,9,0.5660000000000001,1.0,92.46700000000001,0.2,1,2018-03-16 15:46:28.000,48,2018-03-16 15:47:54.170,0.25,-90,0,0,-90,1
4,0,118.95200000000001,0,0,1,0.25,2,9,0.0,1.0,6,45.0,30.0,9,0.8959999999999999,1.0,124.25200000000001,0.2,1,2018-03-16 15:46:28.000,48,2018-03-16 15:48:26.952,0.25,-90,0,0,-90,1
5,0,154.381,0,0,1,0.25,2,9,0.0,1.0,6,45.0,30.0,9,0.731,0.0,160.225,0.0,0,2018-03-16 15:46:28.000,48,2018-03-16 15:49:02.381,0.25,90,0,0,90,1
8,0,204.86900000000003,0,0,1,0.25,2,9,0.0,1.0,6,45.0,30.0,9,0.401,1.0,212.614,0.2,1,2018-03-16 15:46:28.000,48,2018-03-16 15:49:52.869,0.25,-90,0,0,-90,1
9,0,241.722,0,0,1,0.25,2,3,0.0,1.0,12,45.0,30.0,3,0.731,1.0,247.928,0.0,0,2018-03-16 15:46:28.000,48,2018-03-16 15:50:29.722,0.25,-90,-180,-180,-90,1
11,0,285.764,0,0,1,0.25,2,3,0.0,1.0,12,45.0,30.0,3,1.061,0.0,287.86,0.2,1,2018-03-16 15:46:28.000,48,2018-03-16 15:51:13.764,0.25,90,-180,-180,90,1
12,0,316.362,0,0,1,0.25,2,9,0.0,1.0,6,45.0,30.0,9,0.731,0.0,318.79400000000004,0.0,0,2018-03-16 15:46:28.000,48,2018-03-16 15:51:44.362,0.25,90,0,0,90,1
14,0,353.25199999999995,0,0,1,0.25,2,9,0.0,1.0,6,45.0,30.0,9,0.5660000000000001,1.0,360.341,0.2,1,2018-03-16 15:46:28.000,48,2018-03-16 15:52:21.252,0.25,-90,0,0,-90,1
15,0,385.125,0,0,1,0.25,2,9,0.0,1.0,6,45.0,30.0,9,0.401,1.0,391.99,0.2,1,2018-03-16 15:46:28.000,48,2018-03-16 15:52:53.125,0.25,-90,0,0,-90,1
16,0,419.58,0,0,1,0.25,2,3,0.0,1.0,12,45.0,30.0,3,0.5660000000000001,1.0,428.014,0.0,0,2018-03-16 15:46:28.000,48,2018-03-16 15:53:27.580,0.25,-90,-180,-180,-90,1
18,0,458.968,0,0,1,0.25,2,3,0.0,1.0,12,45.0,30.0,3,1.061,0.0,460.01800000000003,0.2,1,2018-03-16 15:46:28.000,48,2018-03-16 15:54:06.968,0.25,90,-180,-180,90,1
19,0,491.793,0,0,1,0.25,2,3,0.0,1.0,12,45.0,30.0,3,0.401,0.0,493.79400000000004,0.2,1,2018-03-16 15:46:28.000,48,2018-03-16 15:54:39.793,0.25,90,-180,-180,90,1
20,0,516.503,0,0,1,0.25,2,3,0.0,1.0,12,45.0,30.0,3,0.8959999999999999,0.0,517.955,0.2,1,2018-03-16 15:46:28.000,48,2018-03-16 15:55:04.503,0.25,90,-180,-180,90,1
21,0,542.172,0,0,1,0.25,2,3,0.0,1.0,12,45.0,30.0,3,0.731,0.0,544.122,0.2,1,2018-03-16 15:46:28.000,48,2018-03-16 15:55:30.172,0.25,90,-180,-180,90,1
22,0,566.498,0,0,1,0.25,2,9,0.0,1.0,6,45.0,30.0,9,1.061,0.0,567.628,0.0,0,2018-03-16 15:46:28.000,48,2018-03-16 15:55:54.498,0.25,90,0,0,90,1
24,0,596.806,0,0,1,0.25,2,9,0.0,1.0,6,45.0,30.0,9,0.401,1.0,603.823,0.2,1,2018-03-16 15:46:28.000,48,2018-03-16 15:56:24.806,0.25,-90,0,0,-90,1
25,0,635.636,0,0,1,0.25,2,3,0.0,1.0,12,45.0,30.0,3,0.8959999999999999,1.0,642.702,0.0,0,2018-03-16 15:46:28.000,48,2018-03-16 15:57:03.636,0.25,-90,-180,-180,-90,1
27,0,674.6360000000001,0,0,1,0.25,2,3,0.0,1.0,12,45.0,30.0,3,0.731,0.0,676.0169999999999,0.2,1,2018-03-16 15:46:28.000,48,2018-03-16 15:57:42.636,0.25,90,-180,-180,90,1
28,0,698.928,0,0,1,0.25,2,3,0.0,1.0,12,45.0,30.0,3,0.401,0.0,701.94,0.2,1,2018-03-16 15:46:28.000,48,2018-03-16 15:58:06.928,0.25,90,-180,-180,90,1
29,0,723.47,0,0,1,0.25,2,3,0.0,1.0,12,45.0,30.0,3,1.061,0.0,725.179,0.2,1,2018-03-16 15:46:28.000,48,2018-03-16 15:58:31.470,0.25,90,-180,-180,90,1
30,0,745.8910000000001,0,0,1,0.25,2,3,0.0,1.0,12,45.0,30.0,3,0.8959999999999999,0.0,747.5,0.2,1,2018-03-16 15:46:28.000,48,2018-03-16 15:58:53.891,0.25,90,-180,-180,90,1
31,0,768.5110000000001,0,0,1,0.25,2,9,0.0,1.0,6,45.0,30.0,9,0.5660000000000001,1.0,775.444,0.2,1,2018-03-16 15:46:28.000,48,2018-03-16 15:59:16.511,0.25,-90,0,0,-90,1
32,0,795.9019999999999,0,0,1,0.25,2,9,0.0,1.0,6,45.0,30.0,9,1.061,1.0,805.2360000000001,0.2,1,2018-03-16 15:46:28.000,48,2018-03-16 15:59:43.902,0.25,-90,0,0,-90,1
33,0,831.9730000000001,0,0,1,0.25,2,3,0.0,1.0,12,45.0,30.0,3,0.731,0.0,838.575,0.2,1,2018-03-16 15:46:28.000,48,2018-03-16 16:00:19.973,0.25,90,-180,-180,90,1
34,0,858.8919999999999,0,0,1,0.25,2,3,0.0,1.0,12,45.0,30.0,3,0.401,0.0,860.873,0.2,1,2018-03-16 15:46:28.000,48,2018-03-16 16:00:46.892,0.25,90,-180,-180,90,1
35,0,885.3860000000001,0,0,1,0.25,2,9,0.0,1.0,6,45.0,30.0,9,0.8959999999999999,0.0,887.2189999999999,0.0,0,2018-03-16 15:46:28.000,48,2018-03-16 16:01:13.386,0.25,90,0,0,90,1
37,0,915.1669999999999,0,0,1,0.25,2,3,0.0,1.0,12,45.0,30.0,3,1.061,1.0,922.385,0.0,0,2018-03-16 15:46:28.000,48,2018-03-16 16:01:43.167,0.25,-90,-180,-180,-90,1
39,0,952.3789999999999,0,0,1,0.25,2,3,0.0,1.0,12,45.0,30.0,3,0.8959999999999999,0.0,953.924,0.2,1,2018-03-16 15:46:28.000,48,2018-03-16 16:02:20.379,0.25,90,-180,-180,90,1
40,0,975.5269999999999,0,0,1,0.25,2,9,0.0,1.0,6,45.0,30.0,9,0.731,0.0,980.0089999999999,0.0,0,2018-03-16 15:46:28.000,48,2018-03-16 16:02:43.527,0.25,90,0,0,90,1
42,0,1010.6619999999999,0,0,1,0.25,2,9,0.0,1.0,6,45.0,30.0,9,1.061,1.0,1021.316,0.2,1,2018-03-16 15:46:28.000,48,2018-03-16 16:03:18.662,0.25,-90,0,0,-90,1
43,0,1044.077,0,0,1,0.25,2,9,0.0,1.0,6,45.0,30.0,9,0.731,0.0,1050.243,0.0,0,2018-03-16 15:46:28.000,48,2018-03-16 16:03:52.077,0.25,90,0,0,90,1
45,0,1081.022,0,0,1,0.25,2,3,0.0,1.0,12,45.0,30.0,3,0.5660000000000001,1.0,1093.694,0.0,0,2018-03-16 15:46:28.000,48,2018-03-16 16:04:29.022,0.25,-90,-180,-180,-90,1
47,0,1125.641,0,0,1,0.25,2,3,0.0,1.0,12,45.0,30.0,3,1.061,0.0,1126.746,0.2,1,2018-03-16 15:46:28.000,48,2018-03-16 16:05:13.641,0.25,90,-180,-180,90,1
48,0,1146.703,0,0,1,0.25,2,9,0.0,1.0,6,45.0,30.0,9,0.8959999999999999,0.0,1148.111,0.0,0,2018-03-16 15:46:28.000,48,2018-03-16 16:05:34.703,0.25,90,0,0,90,1
50,0,1176.395,0,0,1,0.25,2,9,0.0,1.0,6,45.0,30.0,9,0.5660000000000001,1.0,1183.042,0.2,1,2018-03-16 15:46:28.000,48,2018-03-16 16:06:04.395,0.25,-90,0,0,-90,1
51,0,1206.48,0,0,1,0.25,2,3,0.0,1.0,12,45.0,30.0,3,1.061,0.0,1213.096,0.2,1,2018-03-16 15:46:28.000,48,2018-03-16 16:06:34.480,0.25,90,-180,-180,90,1
52,0,1227.198,0,0,1,0.25,2,9,0.0,1.0,6,45.0,30.0,9,0.731,0.0,1228.747,0.0,0,2018-03-16 15:46:28.000,48,2018-03-16 16:06:55.198,0.25,90,0,0,90,1
54,0,1266.347,0,0,1,0.25,2,9,0.0,1.0,6,45.0,30.0,9,0.401,1.0,1273.607,0.2,1,2018-03-16 15:46:28.000,48,2018-03-16 16:07:34.347,0.25,-90,0,0,-90,1
55,0,1295.34,0,0,1,0.25,2,3,0.0,1.0,12,45.0,30.0,3,0.5660000000000001,0.0,1301.384,0.2,1,2018-03-16 15:46:28.000,48,2018-03-16 16:08:03.340,0.25,90,-180,-180,90,1
56,0,1339.0120000000002,0,0,1,0.25,2,9,0.0,1.0,6,45.0,30.0,9,1.061,1.0,1340.48,0.2,1,2018-03-16 15:46:28.000,48,2018-03-16 16:08:47.012,0.25,-90,0,0,-90,1
57,0,1362.12,0,0,1,0.25,2,9,0.0,1.0,6,45.0,30.0,9,0.8959999999999999,0.0,1363.161,0.0,0,2018-03-16 15:46:28.000,48,2018-03-16 16:09:10.120,0.25,90,0,0,90,1
59,0,1398.707,0,0,1,0.25,2,3,0.0,1.0,12,45.0,30.0,3,0.401,0.0,1405.2089999999998,0.2,1,2018-03-16 15:46:28.000,48,2018-03-16 16:09:46.707,0.25,90,-180,-180,90,1
60,0,1424.535,0,0,1,0.25,2,9,0.0,1.0,6,45.0,30.0,9,0.5660000000000001,0.0,1425.8829999999998,0.0,0,2018-03-16 15:46:28.000,48,2018-03-16 16:10:12.535,0.25,90,0,0,90,1
63,0,1524.6860000000001,0,0,1,0.25,2,3,0.0,1.0,12,45.0,30.0,3,0.401,0.0,1527.358,0.2,1,2018-03-16 15:46:28.000,48,2018-03-16 16:11:52.686,0.25,90,-180,-180,90,1
64,0,1632.765,0,0,1,0.25,2,3,0.0,1.0,12,45.0,30.0,3,1.061,0.0,1634.816,0.2,1,2018-03-16 15:46:28.000,48,2018-03-16 16:13:40.765,0.25,90,-180,-180,90,1
65,0,1653.15,0,0,1,0.25,2,3,0.0,1.0,12,45.0,30.0,3,0.731,0.0,1654.602,0.2,1,2018-03-16 15:46:28.000,48,2018-03-16 16:14:01.150,0.25,90,-180,-180,90,1
66,0,1673.214,0,0,1,0.25,2,3,0.0,1.0,12,45.0,30.0,3,1.061,0.0,1674.4620000000002,0.2,1,2018-03-16 15:46:28.000,48,2018-03-16 16:14:21.214,0.25,90,-180,-180,90,1
1,0,23.83,0,0,1,0.25,2,3,0.0,1.0,12,45.0,30.0,3,0.401,0.0,25.066999999999997,0.2,1,2018-03-26 09:28:05.000,126,2018-03-26 09:28:28.830,0.25,90,-180,-180,90,1
2,0,82.196,0,0,1,0.25,2,9,0.0,1.0,6,45.0,30.0,9,1.061,1.0,86.375,0.2,1,2018-03-26 09:28:05.000,126,2018-03-26 09:29:27.196,0.25,-90,0,0,-90,1
3,0,113.41799999999999,0,0,1,0.25,2,3,0.0,1.0,12,45.0,30.0,3,0.8959999999999999,1.0,117.064,0.0,0,2018-03-26 09:28:05.000,126,2018-03-26 09:29:58.418,0.25,-90,-180,-180,-90,1
5,0,151.796,0,0,1,0.25,2,9,0.0,1.0,6,45.0,30.0,9,0.5660000000000001,1.0,153.128,0.2,1,2018-03-26 09:28:05.000,126,2018-03-26 09:30:36.796,0.25,-90,0,0,-90,1
6,0,176.215,0,0,1,0.25,2,9,0.0,1.0,6,45.0,30.0,9,0.401,1.0,179.201,0.2,1,2018-03-26 09:28:05.000,126,2018-03-26 09:31:01.215,0.25,-90,0,0,-90,1
7,0,206.812,0,0,1,0.25,2,9,0.0,1.0,6,45.0,30.0,9,0.8959999999999999,0.0,208.97799999999998,0.0,0,2018-03-26 09:28:05.000,126,2018-03-26 09:31:31.812,0.25,90,0,0,90,1
9,0,243.702,0,0,1,0.25,2,3,0.0,1.0,12,45.0,30.0,3,0.731,0.0,245.14700000000002,0.2,1,2018-03-26 09:28:05.000,126,2018-03-26 09:32:08.702,0.25,90,-180,-180,90,1
10,0,256.755,0,0,1,0.25,2,9,0.0,1.0,6,45.0,30.0,9,1.061,1.0,260.543,0.2,1,2018-03-26 09:28:05.000,126,2018-03-26 09:32:21.755,0.25,-90,0,0,-90,1
11,0,287.129,0,0,1,0.25,2,3,0.0,1.0,12,45.0,30.0,3,0.5660000000000001,0.0,288.81,0.2,1,2018-03-26 09:28:05.000,126,2018-03-26 09:32:52.129,0.25,90,-180,-180,90,1
12,0,327.122,0,0,1,0.25,2,3,0.0,1.0,12,45.0,30.0,3,0.401,0.0,328.652,0.2,1,2018-03-26 09:28:05.000,126,2018-03-26 09:33:32.122,0.25,90,-180,-180,90,1
13,0,344.691,0,0,1,0.25,2,9,0.0,1.0,6,45.0,30.0,9,0.8959999999999999,1.0,346.24300000000005,0.2,1,2018-03-26 09:28:05.000,126,2018-03-26 09:33:49.691,0.25,-90,0,0,-90,1
14,0,400.51199999999994,0,0,1,0.25,2,3,0.0,1.0,12,45.0,30.0,3,1.061,1.0,403.245,0.0,0,2018-03-26 09:28:05.000,126,2018-03-26 09:34:45.512,0.25,-90,-180,-180,-90,1
16,0,420.473,0,0,1,0.25,2,9,0.0,1.0,6,45.0,30.0,9,0.731,1.0,423.856,0.2,1,2018-03-26 09:28:05.000,126,2018-03-26 09:35:05.473,0.25,-90,0,0,-90,1
17,0,445.724,0,0,1,0.25,2,3,0.0,1.0,12,45.0,30.0,3,0.401,0.0,449.129,0.2,1,2018-03-26 09:28:05.000,126,2018-03-26 09:35:30.724,0.25,90,-180,-180,90,1
18,0,522.105,0,0,1,0.25,2,3,0.0,1.0,12,45.0,30.0,3,1.061,0.0,523.374,0.2,1,2018-03-26 09:28:05.000,126,2018-03-26 09:36:47.105,0.25,90,-180,-180,90,1
19,0,534.991,0,0,1,0.25,2,3,0.0,1.0,12,45.0,30.0,3,0.8959999999999999,0.0,536.284,0.2,1,2018-03-26 09:28:05.000,126,2018-03-26 09:36:59.991,0.25,90,-180,-180,90,1
20,0,554.706,0,0,1,0.25,2,9,0.0,1.0,6,45.0,30.0,9,0.5660000000000001,1.0,556.516,0.2,1,2018-03-26 09:28:05.000,126,2018-03-26 09:37:19.706,0.25,-90,0,0,-90,1
21,0,608.087,0,0,1,0.25,2,3,0.0,1.0,12,45.0,30.0,3,1.061,0.0,609.759,0.2,1,2018-03-26 09:28:05.000,126,2018-03-26 09:38:13.087,0.25,90,-180,-180,90,1
22,0,618.965,0,0,1,0.25,2,9,0.0,1.0,6,45.0,30.0,9,0.401,1.0,622.604,0.2,1,2018-03-26 09:28:05.000,126,2018-03-26 09:38:23.965,0.25,-90,0,0,-90,1
23,0,778.257,0,0,1,0.25,2,9,0.0,1.0,6,45.0,30.0,9,0.5660000000000001,1.0,781.035,0.2,1,2018-03-26 09:28:05.000,126,2018-03-26 09:41:03.257,0.25,-90,0,0,-90,1
24,0,809.794,0,0,1,0.25,2,3,0.0,1.0,12,45.0,30.0,3,0.8959999999999999,0.0,813.182,0.2,1,2018-03-26 09:28:05.000,126,2018-03-26 09:41:34.794,0.25,90,-180,-180,90,1
25,0,823.8330000000001,0,0,1,0.25,2,3,0.0,1.0,12,45.0,30.0,3,0.731,0.0,824.982,0.2,1,2018-03-26 09:28:05.000,126,2018-03-26 09:41:48.833,0.25,90,-180,-180,90,1
26,0,833.2230000000001,0,0,1,0.25,2,3,0.0,1.0,12,45.0,30.0,3,0.401,0.0,834.445,0.2,1,2018-03-26 09:28:05.000,126,2018-03-26 09:41:58.223,0.25,90,-180,-180,90,1
27,0,854.67,0,0,1,0.25,2,9,0.0,1.0,6,45.0,30.0,9,0.8959999999999999,1.0,856.0,0.2,1,2018-03-26 09:28:05.000,126,2018-03-26 09:42:19.670,0.25,-90,0,0,-90,1
28,0,901.9689999999999,0,0,1,0.25,2,9,0.0,1.0,6,45.0,30.0,9,1.061,1.0,904.4889999999999,0.2,1,2018-03-26 09:28:05.000,126,2018-03-26 09:43:06.969,0.25,-90,0,0,-90,1
29,0,920.378,0,0,1,0.25,2,9,0.0,1.0,6,45.0,30.0,9,0.5660000000000001,1.0,923.592,0.2,1,2018-03-26 09:28:05.000,126,2018-03-26 09:43:25.378,0.25,-90,0,0,-90,1
30,0,944.954,0,0,1,0.25,2,3,0.0,1.0,12,45.0,30.0,3,0.731,0.0,949.023,0.2,1,2018-03-26 09:28:05.000,126,2018-03-26 09:43:49.954,0.25,90,-180,-180,90,1
31,0,1070.126,0,0,1,0.25,2,9,0.0,1.0,6,45.0,30.0,9,0.731,1.0,1071.643,0.2,1,2018-03-26 09:28:05.000,126,2018-03-26 09:45:55.126,0.25,-90,0,0,-90,1
32,0,1086.952,0,0,1,0.25,2,9,0.0,1.0,6,45.0,30.0,9,0.401,0.0,1090.083,0.0,0,2018-03-26 09:28:05.000,126,2018-03-26 09:46:11.952,0.25,90,0,0,90,1
34,0,1208.6,0,0,1,0.25,2,9,0.0,1.0,6,45.0,30.0,9,1.061,0.0,1209.729,0.0,0,2018-03-26 09:28:05.000,126,2018-03-26 09:48:13.600,0.25,90,0,0,90,1
1,0,68.237,0,150,1,0.25,2,9,0.0,1.0,6,45.0,30.0,9,0.401,1.0,71.346,0.2,1,2018-03-26 15:03:49.000,211,2018-03-26 15:04:57.237,0.25,-90,0,-150,120,1
2,0,113.52600000000001,0,150,1,0.25,2,3,0.0,1.0,12,45.0,30.0,3,1.061,1.0,119.37700000000001,0.0,0,2018-03-26 15:03:49.000,211,2018-03-26 15:05:42.526,0.25,-90,-180,30,120,1
4,0,156.175,0,150,1,0.25,2,9,0.0,1.0,6,45.0,30.0,9,0.731,0.0,160.139,0.0,0,2018-03-26 15:03:49.000,211,2018-03-26 15:06:25.175,0.25,90,0,-150,-60,1
9,0,243.12400000000002,0,150,1,0.25,2,9,0.0,1.0,6,45.0,30.0,9,0.731,1.0,248.13299999999998,0.2,1,2018-03-26 15:03:49.000,211,2018-03-26 15:07:52.124,0.25,-90,0,-150,120,1
10,0,288.4,0,150,1,0.25,2,3,0.0,1.0,12,45.0,30.0,3,0.8959999999999999,1.0,292.485,0.0,0,2018-03-26 15:03:49.000,211,2018-03-26 15:08:37.400,0.25,-90,-180,30,120,1
13,0,339.994,0,150,1,0.25,2,9,0.0,1.0,6,45.0,30.0,9,0.731,1.0,343.423,0.2,1,2018-03-26 15:03:49.000,211,2018-03-26 15:09:28.994,0.25,-90,0,-150,120,1
14,0,382.92400000000004,0,150,1,0.25,2,3,0.0,1.0,12,45.0,30.0,3,0.8959999999999999,1.0,384.59,0.0,0,2018-03-26 15:03:49.000,211,2018-03-26 15:10:11.924,0.25,-90,-180,30,120,1
16,0,414.569,0,150,1,0.25,2,9,0.0,1.0,6,45.0,30.0,9,0.731,1.0,416.635,0.2,1,2018-03-26 15:03:49.000,211,2018-03-26 15:10:43.569,0.25,-90,0,-150,120,1
17,0,457.36699999999996,0,150,1,0.25,2,3,0.0,1.0,12,45.0,30.0,3,0.401,0.0,460.62,0.2,1,2018-03-26 15:03:49.000,211,2018-03-26 15:11:26.367,0.25,90,-180,30,-60,1
18,0,478.16,0,150,1,0.25,2,9,0.0,1.0,6,45.0,30.0,9,0.8959999999999999,1.0,480.11199999999997,0.2,1,2018-03-26 15:03:49.000,211,2018-03-26 15:11:47.160,0.25,-90,0,-150,120,1
19,0,509.61199999999997,0,150,1,0.25,2,3,0.0,1.0,12,45.0,30.0,3,1.061,1.0,512.8240000000001,0.0,0,2018-03-26 15:03:49.000,211,2018-03-26 15:12:18.612,0.25,-90,-180,30,120,1
21,0,539.321,0,150,1,0.25,2,9,0.0,1.0,6,45.0,30.0,9,0.8959999999999999,1.0,542.931,0.15,1,2018-03-26 15:03:49.000,211,2018-03-26 15:12:48.321,0.25,-90,0,-150,120,1
22,0,564.056,0,150,1,0.25,2,3,0.0,1.0,12,45.0,30.0,3,0.5660000000000001,0.0,570.369,0.25,1,2018-03-26 15:03:49.000,211,2018-03-26 15:13:13.056,0.25,90,-180,30,-60,1
23,0,600.7180000000001,0,150,1,0.25,2,3,0.0,1.0,12,45.0,30.0,3,0.731,0.0,608.274,0.25,1,2018-03-26 15:03:49.000,211,2018-03-26 15:13:49.718,0.25,90,-180,30,-60,1
24,0,625.987,0,150,1,0.25,2,9,0.0,1.0,6,45.0,30.0,9,0.401,1.0,628.178,0.15,1,2018-03-26 15:03:49.000,211,2018-03-26 15:14:14.987,0.25,-90,0,-150,120,1
25,0,650.9159999999999,0,150,1,0.25,2,3,0.0,1.0,12,45.0,30.0,3,1.061,1.0,654.376,0.0,0,2018-03-26 15:03:49.000,211,2018-03-26 15:14:39.916,0.25,-90,-180,30,120,1
27,0,682.795,0,150,1,0.25,2,9,0.0,1.0,6,45.0,30.0,9,0.401,1.0,685.722,0.15,1,2018-03-26 15:03:49.000,211,2018-03-26 15:15:11.795,0.25,-90,0,-150,120,1
28,0,712.585,0,150,1,0.25,2,3,0.0,1.0,12,45.0,30.0,3,0.731,0.0,716.492,0.25,1,2018-03-26 15:03:49.000,211,2018-03-26 15:15:41.585,0.25,90,-180,30,-60,1
29,0,737.0880000000001,0,150,1,0.25,2,9,0.0,1.0,6,45.0,30.0,9,0.5660000000000001,0.0,741.94,0.0,0,2018-03-26 15:03:49.000,211,2018-03-26 15:16:06.088,0.25,90,0,-150,-60,1
33,0,821.291,0,150,1,0.25,2,3,0.0,1.0,12,45.0,30.0,3,0.401,0.0,828.422,0.25,1,2018-03-26 15:03:49.000,211,2018-03-26 15:17:30.291,0.25,90,-180,30,-60,1
34,0,838.201,0,150,1,0.25,2,3,0.0,1.0,12,45.0,30.0,3,0.5660000000000001,0.0,842.275,0.25,1,2018-03-26 15:03:49.000,211,2018-03-26 15:17:47.201,0.25,90,-180,30,-60,1
35,0,877.7239999999999,0,150,1,0.25,2,3,0.0,1.0,12,45.0,30.0,3,0.8959999999999999,1.0,881.936,0.0,0,2018-03-26 15:03:49.000,211,2018-03-26 15:18:26.724,0.25,-90,-180,30,120,1
37,0,908.558,0,150,1,0.25,2,9,0.0,1.0,6,45.0,30.0,9,0.401,0.0,914.327,0.0,0,2018-03-26 15:03:49.000,211,2018-03-26 15:18:57.558,0.25,90,0,-150,-60,1
39,0,943.409,0,150,1,0.25,2,3,0.0,1.0,12,45.0,30.0,3,0.731,0.0,948.914,0.25,1,2018-03-26 15:03:49.000,211,2018-03-26 15:19:32.409,0.25,90,-180,30,-60,1
40,0,967.075,0,150,1,0.25,2,9,0.0,1.0,6,45.0,30.0,9,1.061,0.0,977.737,0.0,0,2018-03-26 15:03:49.000,211,2018-03-26 15:19:56.075,0.25,90,0,-150,-60,1
42,0,1005.693,0,150,1,0.25,2,3,0.0,1.0,12,45.0,30.0,3,1.061,0.0,1010.67,0.25,1,2018-03-26 15:03:49.000,211,2018-03-26 15:20:34.693,0.25,90,-180,30,-60,1
43,0,1025.381,0,150,1,0.25,2,9,0.0,1.0,6,45.0,30.0,9,0.731,0.0,1042.4669999999999,0.0,0,2018-03-26 15:03:49.000,211,2018-03-26 15:20:54.381,0.25,90,0,-150,-60,1
46,0,1097.984,0,150,1,0.25,2,3,0.0,1.0,12,45.0,30.0,3,0.401,0.0,1106.327,0.2,1,2018-03-26 15:03:49.000,211,2018-03-26 15:22:06.984,0.25,90,-180,30,-60,1
47,0,1113.383,0,150,1,0.25,2,9,0.0,1.0,6,45.0,30.0,9,1.061,0.0,1120.8110000000001,0.0,0,2018-03-26 15:03:49.000,211,2018-03-26 15:22:22.383,0.25,90,0,-150,-60,1
49,0,1163.594,0,150,1,0.25,2,3,0.0,1.0,12,45.0,30.0,3,0.5660000000000001,0.0,1170.4560000000001,0.2,1,2018-03-26 15:03:49.000,211,2018-03-26 15:23:12.594,0.25,90,-180,30,-60,1
50,0,1185.014,0,150,1,0.25,2,9,0.0,1.0,6,45.0,30.0,9,0.731,0.0,1193.32,0.0,0,2018-03-26 15:03:49.000,211,2018-03-26 15:23:34.014,0.25,90,0,-150,-60,1
52,0,1234.011,0,150,1,0.25,2,9,0.0,1.0,6,45.0,30.0,9,0.731,0.0,1242.028,0.0,0,2018-03-26 15:03:49.000,211,2018-03-26 15:24:23.011,0.25,90,0,-150,-60,1
54,0,1276.4260000000002,0,150,1,0.25,2,3,0.0,1.0,12,45.0,30.0,3,1.061,1.0,1279.107,0.0,0,2018-03-26 15:03:49.000,211,2018-03-26 15:25:05.426,0.25,-90,-180,30,120,1
57,0,1335.339,0,150,1,0.25,2,9,0.0,1.0,6,45.0,30.0,9,0.8959999999999999,1.0,1337.2160000000001,0.2,1,2018-03-26 15:03:49.000,211,2018-03-26 15:26:04.339,0.25,-90,0,-150,120,1
58,0,1354.015,0,150,1,0.25,2,3,0.0,1.0,12,45.0,30.0,3,0.731,0.0,1358.8970000000002,0.2,1,2018-03-26 15:03:49.000,211,2018-03-26 15:26:23.015,0.25,90,-180,30,-60,1
59,0,1370.741,0,150,1,0.25,2,9,0.0,1.0,6,45.0,30.0,9,0.5660000000000001,0.0,1378.338,0.0,0,2018-03-26 15:03:49.000,211,2018-03-26 15:26:39.741,0.25,90,0,-150,-60,1
61,0,1422.944,0,150,1,0.25,2,3,0.0,1.0,12,45.0,30.0,3,0.8959999999999999,0.0,1426.402,0.2,1,2018-03-26 15:03:49.000,211,2018-03-26 15:27:31.944,0.25,90,-180,30,-60,1
62,0,1436.0839999999998,0,150,1,0.25,2,9,0.0,1.0,6,45.0,30.0,9,0.401,1.0,1437.692,0.2,1,2018-03-26 15:03:49.000,211,2018-03-26 15:27:45.084,0.25,-90,0,-150,120,1
63,0,1448.389,0,150,1,0.25,2,3,0.0,1.0,12,45.0,30.0,3,0.5660000000000001,0.0,1450.692,0.2,1,2018-03-26 15:03:49.000,211,2018-03-26 15:27:57.389,0.25,90,-180,30,-60,1
64,0,1462.529,0,150,1,0.25,2,9,0.0,1.0,6,45.0,30.0,9,1.061,1.0,1464.203,0.2,1,2018-03-26 15:03:49.000,211,2018-03-26 15:28:11.529,0.25,-90,0,-150,120,1
65,0,1492.0970000000002,0,150,1,0.25,2,9,0.0,1.0,6,45.0,30.0,9,0.731,0.0,1497.12,0.0,0,2018-03-26 15:03:49.000,211,2018-03-26 15:28:41.097,0.25,90,0,-150,-60,1
68,0,1556.1270000000002,0,150,1,0.25,2,9,0.0,1.0,6,45.0,30.0,9,0.5660000000000001,0.0,1560.1989999999998,0.0,0,2018-03-26 15:03:49.000,211,2018-03-26 15:29:45.127,0.25,90,0,-150,-60,1
1,0,13.616,0,0,1,0.25,2,3,0.0,1.0,12,45.0,30.0,3,1.061,0.0,16.91,0.2,1,2018-03-28 09:21:33.000,14,2018-03-28 09:21:46.616,0.25,90,-180,-180,90,1
2,0,46.566,0,0,1,0.25,2,3,0.0,1.0,12,45.0,30.0,3,0.731,0.0,47.945,0.2,1,2018-03-28 09:21:33.000,14,2018-03-28 09:22:19.566,0.25,90,-180,-180,90,1
3,0,75.863,0,0,1,0.25,2,9,0.0,1.0,6,45.0,30.0,9,0.8959999999999999,1.0,77.214,0.2,1,2018-03-28 09:21:33.000,14,2018-03-28 09:22:48.863,0.25,-90,0,0,-90,1
4,0,100.917,0,0,1,0.25,2,9,0.0,1.0,6,45.0,30.0,9,0.401,1.0,106.65799999999999,0.2,1,2018-03-28 09:21:33.000,14,2018-03-28 09:23:13.917,0.25,-90,0,0,-90,1
5,0,130.43,0,0,1,0.25,2,3,0.0,1.0,12,45.0,30.0,3,0.5660000000000001,1.0,133.909,0.0,0,2018-03-28 09:21:33.000,14,2018-03-28 09:23:43.430,0.25,-90,-180,-180,-90,1
7,0,177.328,0,0,1,0.25,2,9,0.0,1.0,6,45.0,30.0,9,0.731,1.0,179.013,0.2,1,2018-03-28 09:21:33.000,14,2018-03-28 09:24:30.328,0.25,-90,0,0,-90,1
8,0,205.03599999999997,0,0,1,0.25,2,9,0.0,1.0,6,45.0,30.0,9,1.061,1.0,214.62099999999998,0.2,1,2018-03-28 09:21:33.000,14,2018-03-28 09:24:58.036,0.25,-90,0,0,-90,1
9,0,241.68,0,0,1,0.25,2,3,0.0,1.0,12,45.0,30.0,3,0.5660000000000001,1.0,249.578,0.0,0,2018-03-28 09:21:33.000,14,2018-03-28 09:25:34.680,0.25,-90,-180,-180,-90,1
11,0,283.259,0,0,1,0.25,2,3,0.0,1.0,12,45.0,30.0,3,1.061,1.0,287.764,0.0,0,2018-03-28 09:21:33.000,14,2018-03-28 09:26:16.259,0.25,-90,-180,-180,-90,1
13,0,320.832,0,0,1,0.25,2,3,0.0,1.0,12,45.0,30.0,3,0.731,0.0,322.587,0.2,1,2018-03-28 09:21:33.000,14,2018-03-28 09:26:53.832,0.25,90,-180,-180,90,1
14,0,352.85900000000004,0,0,1,0.25,2,9,0.0,1.0,6,45.0,30.0,9,0.401,1.0,358.892,0.2,1,2018-03-28 09:21:33.000,14,2018-03-28 09:27:25.859,0.25,-90,0,0,-90,1
15,0,388.486,0,0,1,0.25,2,9,0.0,1.0,6,45.0,30.0,9,0.8959999999999999,1.0,395.541,0.2,1,2018-03-28 09:21:33.000,14,2018-03-28 09:28:01.486,0.25,-90,0,0,-90,1
16,0,418.94599999999997,0,0,1,0.25,2,3,0.0,1.0,12,45.0,30.0,3,0.5660000000000001,1.0,427.94599999999997,0.0,0,2018-03-28 09:21:33.000,14,2018-03-28 09:28:31.946,0.25,-90,-180,-180,-90,1
19,0,478.02,0,0,1,0.25,2,3,0.0,1.0,12,45.0,30.0,3,1.061,1.0,482.19,0.0,0,2018-03-28 09:21:33.000,14,2018-03-28 09:29:31.020,0.25,-90,-180,-180,-90,1
21,0,518.63,0,0,1,0.25,2,9,0.0,1.0,6,45.0,30.0,9,0.731,1.0,521.4209999999999,0.2,1,2018-03-28 09:21:33.000,14,2018-03-28 09:30:11.630,0.25,-90,0,0,-90,1
22,0,548.453,0,0,1,0.25,2,3,0.0,1.0,12,45.0,30.0,3,0.401,1.0,559.502,0.0,0,2018-03-28 09:21:33.000,14,2018-03-28 09:30:41.453,0.25,-90,-180,-180,-90,1
24,0,588.389,0,0,1,0.25,2,3,0.0,1.0,12,45.0,30.0,3,0.5660000000000001,0.0,589.81,0.2,1,2018-03-28 09:21:33.000,14,2018-03-28 09:31:21.389,0.25,90,-180,-180,90,1
25,0,614.04,0,0,1,0.25,2,9,0.0,1.0,6,45.0,30.0,9,1.061,1.0,619.052,0.2,1,2018-03-28 09:21:33.000,14,2018-03-28 09:31:47.040,0.25,-90,0,0,-90,1
26,0,641.059,0,0,1,0.25,2,9,0.0,1.0,6,45.0,30.0,9,0.8959999999999999,1.0,652.181,0.2,1,2018-03-28 09:21:33.000,14,2018-03-28 09:32:14.059,0.25,-90,0,0,-90,1
27,0,678.439,0,0,1,0.25,2,9,0.0,1.0,6,45.0,30.0,9,1.061,1.0,685.831,0.2,1,2018-03-28 09:21:33.000,14,2018-03-28 09:32:51.439,0.25,-90,0,0,-90,1
28,0,707.237,0,0,1,0.25,2,3,0.0,1.0,12,45.0,30.0,3,0.731,1.0,716.169,0.0,0,2018-03-28 09:21:33.000,14,2018-03-28 09:33:20.237,0.25,-90,-180,-180,-90,1
30,0,748.545,0,0,1,0.25,2,3,0.0,1.0,12,45.0,30.0,3,0.5660000000000001,0.0,750.015,0.2,1,2018-03-28 09:21:33.000,14,2018-03-28 09:34:01.545,0.25,90,-180,-180,90,1
31,0,774.0889999999999,0,0,1,0.25,2,3,0.0,1.0,12,45.0,30.0,3,1.061,0.0,777.372,0.2,1,2018-03-28 09:21:33.000,14,2018-03-28 09:34:27.089,0.25,90,-180,-180,90,1
32,0,800.793,0,0,1,0.25,2,9,0.0,1.0,6,45.0,30.0,9,0.8959999999999999,1.0,802.5980000000001,0.2,1,2018-03-28 09:21:33.000,14,2018-03-28 09:34:53.793,0.25,-90,0,0,-90,1
33,0,821.535,0,0,1,0.25,2,9,0.0,1.0,6,45.0,30.0,9,0.731,1.0,833.758,0.2,1,2018-03-28 09:21:33.000,14,2018-03-28 09:35:14.535,0.25,-90,0,0,-90,1
34,0,854.9169999999999,0,0,1,0.25,2,9,0.0,1.0,6,45.0,30.0,9,0.401,1.0,864.857,0.2,1,2018-03-28 09:21:33.000,14,2018-03-28 09:35:47.917,0.25,-90,0,0,-90,1
35,0,888.363,0,0,1,0.25,2,9,0.0,1.0,6,45.0,30.0,9,0.5660000000000001,1.0,909.2660000000001,0.2,1,2018-03-28 09:21:33.000,14,2018-03-28 09:36:21.363,0.25,-90,0,0,-90,1
36,0,927.072,0,0,1,0.25,2,3,0.0,1.0,12,45.0,30.0,3,0.8959999999999999,0.0,932.298,0.2,1,2018-03-28 09:21:33.000,14,2018-03-28 09:37:00.072,0.25,90,-180,-180,90,1
37,0,983.2689999999999,0,0,1,0.25,2,3,0.0,1.0,12,45.0,30.0,3,0.731,0.0,984.605,0.2,1,2018-03-28 09:21:33.000,14,2018-03-28 09:37:56.269,0.25,90,-180,-180,90,1
38,0,1003.3789999999999,0,0,1,0.25,2,3,0.0,1.0,12,45.0,30.0,3,0.5660000000000001,0.0,1005.179,0.2,1,2018-03-28 09:21:33.000,14,2018-03-28 09:38:16.379,0.25,90,-180,-180,90,1
39,0,1028.109,0,0,1,0.25,2,9,0.0,1.0,6,45.0,30.0,9,0.401,1.0,1033.026,0.2,1,2018-03-28 09:21:33.000,14,2018-03-28 09:38:41.109,0.25,-90,0,0,-90,1
40,0,1052.07,0,0,1,0.25,2,9,0.0,1.0,6,45.0,30.0,9,1.061,1.0,1060.374,0.2,1,2018-03-28 09:21:33.000,14,2018-03-28 09:39:05.070,0.25,-90,0,0,-90,1
41,0,1080.677,0,0,1,0.25,2,9,0.0,1.0,6,45.0,30.0,9,0.5660000000000001,1.0,1086.59,0.2,1,2018-03-28 09:21:33.000,14,2018-03-28 09:39:33.677,0.25,-90,0,0,-90,1
42,0,1102.816,0,0,1,0.25,2,3,0.0,1.0,12,45.0,30.0,3,0.731,1.0,1110.306,0.0,0,2018-03-28 09:21:33.000,14,2018-03-28 09:39:55.816,0.25,-90,-180,-180,-90,1
44,0,1142.835,0,0,1,0.25,2,3,0.0,1.0,12,45.0,30.0,3,0.401,1.0,1144.822,0.0,0,2018-03-28 09:21:33.000,14,2018-03-28 09:40:35.835,0.25,-90,-180,-180,-90,1
46,0,1199.861,0,0,1,0.25,2,3,0.0,1.0,12,45.0,30.0,3,0.401,0.0,1201.121,0.2,1,2018-03-28 09:21:33.000,14,2018-03-28 09:41:32.861,0.25,90,-180,-180,90,1
47,0,1216.732,0,0,1,0.25,2,3,0.0,1.0,12,45.0,30.0,3,0.5660000000000001,0.0,1218.2939999999999,0.2,1,2018-03-28 09:21:33.000,14,2018-03-28 09:41:49.732,0.25,90,-180,-180,90,1
48,0,1228.5839999999998,0,0,1,0.25,2,9,0.0,1.0,6,45.0,30.0,9,0.731,0.0,1229.664,0.0,0,2018-03-28 09:21:33.000,14,2018-03-28 09:42:01.584,0.25,90,0,0,90,1
1,0,50.177,0,0,1,0.25,2,9,0.0,1.0,6,45.0,30.0,9,0.731,0.0,53.858000000000004,0.0,0,2018-03-28 14:47:01.000,133,2018-03-28 14:47:51.177,0.25,90,0,0,90,1
3,0,111.835,0,0,1,0.25,2,3,0.0,1.0,12,45.0,30.0,3,0.401,0.0,113.866,0.2,1,2018-03-28 14:47:01.000,133,2018-03-28 14:48:52.835,0.25,90,-180,-180,90,1
4,0,133.418,0,0,1,0.25,2,3,0.0,1.0,12,45.0,30.0,3,0.8959999999999999,0.0,135.128,0.2,1,2018-03-28 14:47:01.000,133,2018-03-28 14:49:14.418,0.25,90,-180,-180,90,1
5,0,161.0,0,0,1,0.25,2,9,0.0,1.0,6,45.0,30.0,9,0.5660000000000001,1.0,163.10299999999998,0.2,1,2018-03-28 14:47:01.000,133,2018-03-28 14:49:42.000,0.25,-90,0,0,-90,1
6,0,187.255,0,0,1,0.25,2,3,0.0,1.0,12,45.0,30.0,3,0.731,1.0,191.734,0.0,0,2018-03-28 14:47:01.000,133,2018-03-28 14:50:08.255,0.25,-90,-180,-180,-90,1
9,0,224.43900000000002,0,0,1,0.25,2,3,0.0,1.0,12,45.0,30.0,3,1.061,0.0,225.542,0.2,1,2018-03-28 14:47:01.000,133,2018-03-28 14:50:45.439,0.25,90,-180,-180,90,1
10,0,248.19299999999998,0,0,1,0.25,2,9,0.0,1.0,6,45.0,30.0,9,0.401,1.0,251.65099999999998,0.2,1,2018-03-28 14:47:01.000,133,2018-03-28 14:51:09.193,0.25,-90,0,0,-90,1
11,0,272.30400000000003,0,0,1,0.25,2,9,0.0,1.0,6,45.0,30.0,9,0.731,1.0,280.014,0.2,1,2018-03-28 14:47:01.000,133,2018-03-28 14:51:33.304,0.25,-90,0,0,-90,1
12,0,308.95,0,0,1,0.25,2,9,0.0,1.0,6,45.0,30.0,9,0.5660000000000001,1.0,320.811,0.2,1,2018-03-28 14:47:01.000,133,2018-03-28 14:52:09.950,0.25,-90,0,0,-90,1
13,0,344.02,0,0,1,0.25,2,3,0.0,1.0,12,45.0,30.0,3,0.8959999999999999,1.0,355.24800000000005,0.0,0,2018-03-28 14:47:01.000,133,2018-03-28 14:52:45.020,0.25,-90,-180,-180,-90,1
15,0,393.531,0,0,1,0.25,2,3,0.0,1.0,12,45.0,30.0,3,0.401,0.0,396.167,0.2,1,2018-03-28 14:47:01.000,133,2018-03-28 14:53:34.531,0.25,90,-180,-180,90,1
16,0,419.11300000000006,0,0,1,0.25,2,9,0.0,1.0,6,45.0,30.0,9,0.5660000000000001,1.0,421.548,0.2,1,2018-03-28 14:47:01.000,133,2018-03-28 14:54:00.113,0.25,-90,0,0,-90,1
17,0,445.385,0,0,1,0.25,2,9,0.0,1.0,6,45.0,30.0,9,0.8959999999999999,1.0,453.298,0.2,1,2018-03-28 14:47:01.000,133,2018-03-28 14:54:26.385,0.25,-90,0,0,-90,1
18,0,477.48699999999997,0,0,1,0.25,2,3,0.0,1.0,12,45.0,30.0,3,1.061,1.0,486.32099999999997,0.0,0,2018-03-28 14:47:01.000,133,2018-03-28 14:54:58.487,0.25,-90,-180,-180,-90,1
21,0,530.883,0,0,1,0.25,2,9,0.0,1.0,6,45.0,30.0,9,0.5660000000000001,1.0,534.09,0.2,1,2018-03-28 14:47:01.000,133,2018-03-28 14:55:51.883,0.25,-90,0,0,-90,1
22,0,552.553,0,0,1,0.25,2,9,0.0,1.0,6,45.0,30.0,9,0.401,1.0,561.601,0.2,1,2018-03-28 14:47:01.000,133,2018-03-28 14:56:13.553,0.25,-90,0,0,-90,1
23,0,589.2869999999999,0,0,1,0.25,2,3,0.0,1.0,12,45.0,30.0,3,0.731,1.0,599.372,0.0,0,2018-03-28 14:47:01.000,133,2018-03-28 14:56:50.287,0.25,-90,-180,-180,-90,1
25,0,648.196,0,0,1,0.25,2,3,0.0,1.0,12,45.0,30.0,3,0.8959999999999999,1.0,655.8389999999999,0.0,0,2018-03-28 14:47:01.000,133,2018-03-28 14:57:49.196,0.25,-90,-180,-180,-90,1
27,0,681.679,0,0,1,0.25,2,3,0.0,1.0,12,45.0,30.0,3,1.061,1.0,685.362,0.0,0,2018-03-28 14:47:01.000,133,2018-03-28 14:58:22.679,0.25,-90,-180,-180,-90,1
29,0,728.967,0,0,1,0.25,2,9,0.0,1.0,6,45.0,30.0,9,0.8959999999999999,1.0,733.762,0.2,1,2018-03-28 14:47:01.000,133,2018-03-28 14:59:09.967,0.25,-90,0,0,-90,1
30,0,754.8430000000001,0,0,1,0.25,2,3,0.0,1.0,12,45.0,30.0,3,0.731,1.0,762.1489999999999,0.0,0,2018-03-28 14:47:01.000,133,2018-03-28 14:59:35.843,0.25,-90,-180,-180,-90,1
32,0,795.289,0,0,1,0.25,2,9,0.0,1.0,6,45.0,30.0,9,0.731,1.0,802.916,0.2,1,2018-03-28 14:47:01.000,133,2018-03-28 15:00:16.289,0.25,-90,0,0,-90,1
33,0,824.493,0,0,1,0.25,2,3,0.0,1.0,12,45.0,30.0,3,1.061,1.0,833.38,0.0,0,2018-03-28 14:47:01.000,133,2018-03-28 15:00:45.493,0.25,-90,-180,-180,-90,1
35,0,862.757,0,0,1,0.25,2,9,0.0,1.0,6,45.0,30.0,9,0.8959999999999999,1.0,866.921,0.2,1,2018-03-28 14:47:01.000,133,2018-03-28 15:01:23.757,0.25,-90,0,0,-90,1
36,0,958.452,0,0,1,0.25,2,9,0.0,1.0,6,45.0,30.0,9,0.401,1.0,961.3739999999999,0.2,1,2018-03-28 14:47:01.000,133,2018-03-28 15:02:59.452,0.25,-90,0,0,-90,1
37,0,1023.875,0,0,1,0.25,2,9,0.0,1.0,6,45.0,30.0,9,1.061,1.0,1025.374,0.2,1,2018-03-28 14:47:01.000,133,2018-03-28 15:04:04.875,0.25,-90,0,0,-90,1
38,0,1063.653,0,0,1,0.25,2,9,0.0,1.0,6,45.0,30.0,9,0.5660000000000001,1.0,1066.0230000000001,0.2,1,2018-03-28 14:47:01.000,133,2018-03-28 15:04:44.653,0.25,-90,0,0,-90,1
39,0,1084.0439999999999,0,0,1,0.25,2,9,0.0,1.0,6,45.0,30.0,9,0.731,0.0,1087.425,0.0,0,2018-03-28 14:47:01.000,133,2018-03-28 15:05:05.044,0.25,90,0,0,90,1
41,0,1186.069,0,0,1,0.25,2,3,0.0,1.0,12,45.0,30.0,3,0.8959999999999999,0.0,1194.0710000000001,0.2,1,2018-03-28 14:47:01.000,133,2018-03-28 15:06:47.069,0.25,90,-180,-180,90,1
42,0,1212.369,0,0,1,0.25,2,3,0.0,1.0,12,45.0,30.0,3,0.401,1.0,1216.474,0.0,0,2018-03-28 14:47:01.000,133,2018-03-28 15:07:13.369,0.25,-90,-180,-180,-90,1
1,0,21.115,0,0,1,0.25,2,9,0.0,1.0,6,45.0,30.0,9,0.8959999999999999,0.0,22.938000000000002,0.0,0,2018-03-29 14:29:17.000,63,2018-03-29 14:29:38.115,0.25,90,0,0,90,1
3,0,72.583,0,0,1,0.25,2,3,0.0,1.0,12,45.0,30.0,3,0.731,1.0,75.21600000000001,0.0,0,2018-03-29 14:29:17.000,63,2018-03-29 14:30:29.583,0.25,-90,-180,-180,-90,1
5,0,105.79700000000001,0,0,1,0.25,2,9,0.0,1.0,6,45.0,30.0,9,0.401,1.0,107.94,0.2,1,2018-03-29 14:29:17.000,63,2018-03-29 14:31:02.797,0.25,-90,0,0,-90,1
6,0,135.4,0,0,1,0.25,2,9,0.0,1.0,6,45.0,30.0,9,1.061,1.0,139.934,0.2,1,2018-03-29 14:29:17.000,63,2018-03-29 14:31:32.400,0.25,-90,0,0,-90,1
7,0,169.585,0,0,1,0.25,2,9,0.0,1.0,6,45.0,30.0,9,0.401,1.0,173.322,0.2,1,2018-03-29 14:29:17.000,63,2018-03-29 14:32:06.585,0.25,-90,0,0,-90,1
8,0,202.83,0,0,1,0.25,2,3,0.0,1.0,12,45.0,30.0,3,0.731,1.0,207.804,0.0,0,2018-03-29 14:29:17.000,63,2018-03-29 14:32:39.830,0.25,-90,-180,-180,-90,1
10,0,246.19,0,0,1,0.25,2,9,0.0,1.0,6,45.0,30.0,9,0.5660000000000001,1.0,247.68900000000002,0.2,1,2018-03-29 14:29:17.000,63,2018-03-29 14:33:23.190,0.25,-90,0,0,-90,1
11,0,279.69,0,0,1,0.25,2,3,0.0,1.0,12,45.0,30.0,3,1.061,1.0,283.91700000000003,0.0,0,2018-03-29 14:29:17.000,63,2018-03-29 14:33:56.690,0.25,-90,-180,-180,-90,1
13,0,317.605,0,0,1,0.25,2,9,0.0,1.0,6,45.0,30.0,9,0.5660000000000001,1.0,319.503,0.2,1,2018-03-29 14:29:17.000,63,2018-03-29 14:34:34.605,0.25,-90,0,0,-90,1
14,0,347.14599999999996,0,0,1,0.25,2,9,0.0,1.0,6,45.0,30.0,9,0.401,1.0,352.46,0.2,1,2018-03-29 14:29:17.000,63,2018-03-29 14:35:04.146,0.25,-90,0,0,-90,1
15,0,378.788,0,0,1,0.25,2,3,0.0,1.0,12,45.0,30.0,3,0.731,1.0,385.994,0.0,0,2018-03-29 14:29:17.000,63,2018-03-29 14:35:35.788,0.25,-90,-180,-180,-90,1
17,0,417.218,0,0,1,0.25,2,9,0.0,1.0,6,45.0,30.0,9,0.401,1.0,419.436,0.2,1,2018-03-29 14:29:17.000,63,2018-03-29 14:36:14.218,0.25,-90,0,0,-90,1
18,0,443.76599999999996,0,0,1,0.25,2,3,0.0,1.0,12,45.0,30.0,3,1.061,1.0,452.292,0.0,0,2018-03-29 14:29:17.000,63,2018-03-29 14:36:40.766,0.25,-90,-180,-180,-90,1
20,0,497.538,0,0,1,0.25,2,3,0.0,1.0,12,45.0,30.0,3,0.731,1.0,500.25300000000004,0.0,0,2018-03-29 14:29:17.000,63,2018-03-29 14:37:34.538,0.25,-90,-180,-180,-90,1
22,0,530.525,0,0,1,0.25,2,3,0.0,1.0,12,45.0,30.0,3,0.5660000000000001,0.0,532.629,0.2,1,2018-03-29 14:29:17.000,63,2018-03-29 14:38:07.525,0.25,90,-180,-180,90,1
23,0,557.264,0,0,1,0.25,2,9,0.0,1.0,6,45.0,30.0,9,1.061,1.0,559.024,0.2,1,2018-03-29 14:29:17.000,63,2018-03-29 14:38:34.264,0.25,-90,0,0,-90,1
24,0,584.51,0,0,1,0.25,2,3,0.0,1.0,12,45.0,30.0,3,0.401,1.0,599.979,0.0,0,2018-03-29 14:29:17.000,63,2018-03-29 14:39:01.510,0.25,-90,-180,-180,-90,1
26,0,653.581,0,0,1,0.25,2,9,0.0,1.0,6,45.0,30.0,9,0.731,1.0,660.53,0.2,1,2018-03-29 14:29:17.000,63,2018-03-29 14:40:10.581,0.25,-90,0,0,-90,1
27,0,687.067,0,0,1,0.25,2,3,0.0,1.0,12,45.0,30.0,3,0.8959999999999999,1.0,698.753,0.0,0,2018-03-29 14:29:17.000,63,2018-03-29 14:40:44.067,0.25,-90,-180,-180,-90,1
29,0,763.678,0,0,1,0.25,2,3,0.0,1.0,12,45.0,30.0,3,1.061,0.0,765.1439999999999,0.2,1,2018-03-29 14:29:17.000,63,2018-03-29 14:42:00.678,0.25,90,-180,-180,90,1
30,0,787.7739999999999,0,0,1,0.25,2,9,0.0,1.0,6,45.0,30.0,9,0.401,1.0,794.8789999999999,0.2,1,2018-03-29 14:29:17.000,63,2018-03-29 14:42:24.774,0.25,-90,0,0,-90,1
31,0,816.669,0,0,1,0.25,2,9,0.0,1.0,6,45.0,30.0,9,0.8959999999999999,1.0,826.2639999999999,0.2,1,2018-03-29 14:29:17.000,63,2018-03-29 14:42:53.669,0.25,-90,0,0,-90,1
32,0,852.14,0,0,1,0.25,2,9,0.0,1.0,6,45.0,30.0,9,0.5660000000000001,1.0,866.1,0.2,1,2018-03-29 14:29:17.000,63,2018-03-29 14:43:29.140,0.25,-90,0,0,-90,1
33,0,888.547,0,0,1,0.25,2,3,0.0,1.0,12,45.0,30.0,3,1.061,1.0,894.7,0.0,0,2018-03-29 14:29:17.000,63,2018-03-29 14:44:05.547,0.25,-90,-180,-180,-90,1
35,0,1103.5819999999999,0,0,1,0.25,2,9,0.0,1.0,6,45.0,30.0,9,0.731,1.0,1105.447,0.2,1,2018-03-29 14:29:17.000,63,2018-03-29 14:47:40.582,0.25,-90,0,0,-90,1
36,0,1145.927,0,0,1,0.25,2,9,0.0,1.0,6,45.0,30.0,9,0.5660000000000001,1.0,1149.697,0.2,1,2018-03-29 14:29:17.000,63,2018-03-29 14:48:22.927,0.25,-90,0,0,-90,1
37,0,1217.567,0,0,1,0.25,2,3,0.0,1.0,12,45.0,30.0,3,0.731,1.0,1219.711,0.0,0,2018-03-29 14:29:17.000,63,2018-03-29 14:49:34.567,0.25,-90,-180,-180,-90,1
1,0,32.323,0,0,1,0.25,2,9,0.0,1.0,6,45.0,30.0,9,1.061,1.0,33.716,0.2,1,2018-03-30 09:42:18.000,119,2018-03-30 09:42:50.323,0.25,-90,0,0,-90,1
2,0,49.761,0,0,1,0.25,2,9,0.0,1.0,6,45.0,30.0,9,0.5660000000000001,0.0,53.288000000000004,0.0,0,2018-03-30 09:42:18.000,119,2018-03-30 09:43:07.761,0.25,90,0,0,90,1
4,0,81.94,0,0,1,0.25,2,3,0.0,1.0,12,45.0,30.0,3,0.401,0.0,83.523,0.2,1,2018-03-30 09:42:18.000,119,2018-03-30 09:43:39.940,0.25,90,-180,-180,90,1
5,0,96.928,0,0,1,0.25,2,9,0.0,1.0,6,45.0,30.0,9,0.8959999999999999,1.0,99.714,0.2,1,2018-03-30 09:42:18.000,119,2018-03-30 09:43:54.928,0.25,-90,0,0,-90,1
6,0,122.7,0,0,1,0.25,2,9,0.0,1.0,6,45.0,30.0,9,0.5660000000000001,1.0,124.68700000000001,0.2,1,2018-03-30 09:42:18.000,119,2018-03-30 09:44:20.700,0.25,-90,0,0,-90,1
7,0,142.789,0,0,1,0.25,2,3,0.0,1.0,12,45.0,30.0,3,0.731,1.0,146.542,0.0,0,2018-03-30 09:42:18.000,119,2018-03-30 09:44:40.789,0.25,-90,-180,-180,-90,1
9,0,187.072,0,0,1,0.25,2,9,0.0,1.0,6,45.0,30.0,9,0.401,1.0,191.68099999999998,0.2,1,2018-03-30 09:42:18.000,119,2018-03-30 09:45:25.072,0.25,-90,0,0,-90,1
10,0,212.357,0,0,1,0.25,2,9,0.0,1.0,6,45.0,30.0,9,1.061,1.0,216.41400000000002,0.2,1,2018-03-30 09:42:18.000,119,2018-03-30 09:45:50.357,0.25,-90,0,0,-90,1
11,0,237.31400000000002,0,0,1,0.25,2,3,0.0,1.0,12,45.0,30.0,3,0.401,1.0,240.93400000000003,0.0,0,2018-03-30 09:42:18.000,119,2018-03-30 09:46:15.314,0.25,-90,-180,-180,-90,1
13,0,276.991,0,0,1,0.25,2,9,0.0,1.0,6,45.0,30.0,9,1.061,1.0,278.492,0.2,1,2018-03-30 09:42:18.000,119,2018-03-30 09:46:54.991,0.25,-90,0,0,-90,1
14,0,299.525,0,0,1,0.25,2,3,0.0,1.0,12,45.0,30.0,3,0.5660000000000001,0.0,309.35200000000003,0.2,1,2018-03-30 09:42:18.000,119,2018-03-30 09:47:17.525,0.25,90,-180,-180,90,1
15,0,330.077,0,0,1,0.25,2,3,0.0,1.0,12,45.0,30.0,3,0.731,0.0,332.12199999999996,0.2,1,2018-03-30 09:42:18.000,119,2018-03-30 09:47:48.077,0.25,90,-180,-180,90,1
16,0,356.879,0,0,1,0.25,2,9,0.0,1.0,6,45.0,30.0,9,0.5660000000000001,1.0,359.168,0.2,1,2018-03-30 09:42:18.000,119,2018-03-30 09:48:14.879,0.25,-90,0,0,-90,1
17,0,376.425,0,0,1,0.25,2,3,0.0,1.0,12,45.0,30.0,3,0.401,1.0,386.3,0.0,0,2018-03-30 09:42:18.000,119,2018-03-30 09:48:34.425,0.25,-90,-180,-180,-90,1
19,0,433.73900000000003,0,0,1,0.25,2,3,0.0,1.0,12,45.0,30.0,3,0.8959999999999999,0.0,435.231,0.2,1,2018-03-30 09:42:18.000,119,2018-03-30 09:49:31.739,0.25,90,-180,-180,90,1
20,0,470.92,0,0,1,0.25,2,9,0.0,1.0,6,45.0,30.0,9,0.731,1.0,472.591,0.2,1,2018-03-30 09:42:18.000,119,2018-03-30 09:50:08.920,0.25,-90,0,0,-90,1
21,0,488.649,0,0,1,0.25,2,3,0.0,1.0,12,45.0,30.0,3,0.8959999999999999,1.0,492.963,0.0,0,2018-03-30 09:42:18.000,119,2018-03-30 09:50:26.649,0.25,-90,-180,-180,-90,1
23,0,529.097,0,0,1,0.25,2,3,0.0,1.0,12,45.0,30.0,3,0.5660000000000001,0.0,530.822,0.2,1,2018-03-30 09:42:18.000,119,2018-03-30 09:51:07.097,0.25,90,-180,-180,90,1
24,0,558.364,0,0,1,0.25,2,9,0.0,1.0,6,45.0,30.0,9,0.731,1.0,561.189,0.2,1,2018-03-30 09:42:18.000,119,2018-03-30 09:51:36.364,0.25,-90,0,0,-90,1
25,0,586.8330000000001,0,0,1,0.25,2,3,0.0,1.0,12,45.0,30.0,3,1.061,1.0,596.069,0.0,0,2018-03-30 09:42:18.000,119,2018-03-30 09:52:04.833,0.25,-90,-180,-180,-90,1
27,0,623.073,0,0,1,0.25,2,3,0.0,1.0,12,45.0,30.0,3,0.401,0.0,624.753,0.2,1,2018-03-30 09:42:18.000,119,2018-03-30 09:52:41.073,0.25,90,-180,-180,90,1
28,0,646.8290000000001,0,0,1,0.25,2,9,0.0,1.0,6,45.0,30.0,9,1.061,1.0,651.893,0.2,1,2018-03-30 09:42:18.000,119,2018-03-30 09:53:04.829,0.25,-90,0,0,-90,1
29,0,682.1439999999999,0,0,1,0.25,2,3,0.0,1.0,12,45.0,30.0,3,0.731,1.0,688.929,0.0,0,2018-03-30 09:42:18.000,119,2018-03-30 09:53:40.144,0.25,-90,-180,-180,-90,1
31,0,757.05,0,0,1,0.25,2,9,0.0,1.0,6,45.0,30.0,9,1.061,1.0,759.791,0.2,1,2018-03-30 09:42:18.000,119,2018-03-30 09:54:55.050,0.25,-90,0,0,-90,1
32,0,771.247,0,0,1,0.25,2,3,0.0,1.0,12,45.0,30.0,3,0.8959999999999999,1.0,777.045,0.0,0,2018-03-30 09:42:18.000,119,2018-03-30 09:55:09.247,0.25,-90,-180,-180,-90,1
34,0,801.382,0,0,1,0.25,2,9,0.0,1.0,6,45.0,30.0,9,0.5660000000000001,1.0,803.248,0.2,1,2018-03-30 09:42:18.000,119,2018-03-30 09:55:39.382,0.25,-90,0,0,-90,1
35,0,819.232,0,0,1,0.25,2,9,0.0,1.0,6,45.0,30.0,9,0.401,1.0,823.7360000000001,0.2,1,2018-03-30 09:42:18.000,119,2018-03-30 09:55:57.232,0.25,-90,0,0,-90,1
36,0,841.039,0,0,1,0.25,2,9,0.0,1.0,6,45.0,30.0,9,0.401,1.0,849.645,0.2,1,2018-03-30 09:42:18.000,119,2018-03-30 09:56:19.039,0.25,-90,0,0,-90,1
37,0,869.055,0,0,1,0.25,2,3,0.0,1.0,12,45.0,30.0,3,0.5660000000000001,1.0,877.044,0.0,0,2018-03-30 09:42:18.000,119,2018-03-30 09:56:47.055,0.25,-90,-180,-180,-90,1
1,0,93.95200000000001,0,0,1,0.25,2,9,0.0,1.0,6,45.0,30.0,9,1.061,1.0,95.24,0.2,1,2018-03-30 14:55:34.000,156,2018-03-30 14:57:07.952,0.25,-90,0,0,-90,1
2,0,121.755,0,0,1,0.25,2,9,0.0,1.0,6,45.0,30.0,9,0.401,1.0,124.154,0.2,1,2018-03-30 14:55:34.000,156,2018-03-30 14:57:35.755,0.25,-90,0,0,-90,1
3,0,150.92600000000002,0,0,1,0.25,2,9,0.0,1.0,6,45.0,30.0,9,0.731,1.0,154.168,0.2,1,2018-03-30 14:55:34.000,156,2018-03-30 14:58:04.926,0.25,-90,0,0,-90,1
4,0,182.855,0,0,1,0.25,2,9,0.0,1.0,6,45.0,30.0,9,0.5660000000000001,1.0,186.081,0.2,1,2018-03-30 14:55:34.000,156,2018-03-30 14:58:36.855,0.25,-90,0,0,-90,1
5,0,213.445,0,0,1,0.25,2,3,0.0,1.0,12,45.0,30.0,3,0.8959999999999999,0.0,215.14700000000002,0.2,1,2018-03-30 14:55:34.000,156,2018-03-30 14:59:07.445,0.25,90,-180,-180,90,1
6,0,285.513,0,0,1,0.25,2,3,0.0,1.0,12,45.0,30.0,3,0.8959999999999999,1.0,289.064,0.0,0,2018-03-30 14:55:34.000,156,2018-03-30 15:00:19.513,0.25,-90,-180,-180,-90,1
8,0,321.728,0,0,1,0.25,2,3,0.0,1.0,12,45.0,30.0,3,0.401,0.0,322.83,0.2,1,2018-03-30 14:55:34.000,156,2018-03-30 15:00:55.728,0.25,90,-180,-180,90,1
9,0,352.32800000000003,0,0,1,0.25,2,9,0.0,1.0,6,45.0,30.0,9,1.061,0.0,353.426,0.0,0,2018-03-30 14:55:34.000,156,2018-03-30 15:01:26.328,0.25,90,0,0,90,1
11,0,395.26599999999996,0,0,1,0.25,2,3,0.0,1.0,12,45.0,30.0,3,0.8959999999999999,1.0,397.94199999999995,0.0,0,2018-03-30 14:55:34.000,156,2018-03-30 15:02:09.266,0.25,-90,-180,-180,-90,1
13,0,455.602,0,0,1,0.25,2,3,0.0,1.0,12,45.0,30.0,3,0.5660000000000001,1.0,457.21,0.0,0,2018-03-30 14:55:34.000,156,2018-03-30 15:03:09.602,0.25,-90,-180,-180,-90,1
16,0,559.081,0,0,1,0.25,2,3,0.0,1.0,12,45.0,30.0,3,0.5660000000000001,0.0,560.427,0.2,1,2018-03-30 14:55:34.000,156,2018-03-30 15:04:53.081,0.25,90,-180,-180,90,1
17,0,585.999,0,0,1,0.25,2,3,0.0,1.0,12,45.0,30.0,3,0.731,0.0,587.732,0.2,1,2018-03-30 14:55:34.000,156,2018-03-30 15:05:19.999,0.25,90,-180,-180,90,1
18,0,613.668,0,0,1,0.25,2,3,0.0,1.0,12,45.0,30.0,3,0.401,0.0,615.659,0.2,1,2018-03-30 14:55:34.000,156,2018-03-30 15:05:47.668,0.25,90,-180,-180,90,1
19,0,643.849,0,0,1,0.25,2,3,0.0,1.0,12,45.0,30.0,3,0.8959999999999999,1.0,646.081,0.0,0,2018-03-30 14:55:34.000,156,2018-03-30 15:06:17.849,0.25,-90,-180,-180,-90,1
21,0,680.074,0,0,1,0.25,2,9,0.0,1.0,6,45.0,30.0,9,0.8959999999999999,1.0,681.538,0.2,1,2018-03-30 14:55:34.000,156,2018-03-30 15:06:54.074,0.25,-90,0,0,-90,1
22,0,704.691,0,0,1,0.25,2,9,0.0,1.0,6,45.0,30.0,9,0.401,1.0,713.143,0.2,1,2018-03-30 14:55:34.000,156,2018-03-30 15:07:18.691,0.25,-90,0,0,-90,1
23,0,740.1260000000001,0,0,1,0.25,2,9,0.0,1.0,6,45.0,30.0,9,1.061,1.0,748.475,0.2,1,2018-03-30 14:55:34.000,156,2018-03-30 15:07:54.126,0.25,-90,0,0,-90,1
24,0,775.7639999999999,0,0,1,0.25,2,3,0.0,1.0,12,45.0,30.0,3,0.5660000000000001,1.0,782.138,0.0,0,2018-03-30 14:55:34.000,156,2018-03-30 15:08:29.764,0.25,-90,-180,-180,-90,1
26,0,819.8989999999999,0,0,1,0.25,2,9,0.0,1.0,6,45.0,30.0,9,0.401,1.0,822.452,0.2,1,2018-03-30 14:55:34.000,156,2018-03-30 15:09:13.899,0.25,-90,0,0,-90,1
27,0,843.0930000000001,0,0,1,0.25,2,9,0.0,1.0,6,45.0,30.0,9,0.731,1.0,849.1310000000001,0.2,1,2018-03-30 14:55:34.000,156,2018-03-30 15:09:37.093,0.25,-90,0,0,-90,1
28,0,871.0360000000001,0,0,1,0.25,2,9,0.0,1.0,6,45.0,30.0,9,0.5660000000000001,1.0,876.6010000000001,0.2,1,2018-03-30 14:55:34.000,156,2018-03-30 15:10:05.036,0.25,-90,0,0,-90,1
29,0,897.745,0,0,1,0.25,2,3,0.0,1.0,12,45.0,30.0,3,0.8959999999999999,1.0,903.1389999999999,0.0,0,2018-03-30 14:55:34.000,156,2018-03-30 15:10:31.745,0.25,-90,-180,-180,-90,1
31,0,979.957,0,0,1,0.25,2,9,0.0,1.0,6,45.0,30.0,9,0.8959999999999999,1.0,981.291,0.2,1,2018-03-30 14:55:34.000,156,2018-03-30 15:11:53.957,0.25,-90,0,0,-90,1
32,0,1049.097,0,0,1,0.25,2,3,0.0,1.0,12,45.0,30.0,3,0.5660000000000001,0.0,1050.403,0.2,1,2018-03-30 14:55:34.000,156,2018-03-30 15:13:03.097,0.25,90,-180,-180,90,1
33,0,1095.513,0,0,1,0.25,2,3,0.0,1.0,12,45.0,30.0,3,1.061,0.0,1096.6580000000001,0.2,1,2018-03-30 14:55:34.000,156,2018-03-30 15:13:49.513,0.25,90,-180,-180,90,1
34,0,1121.428,0,0,1,0.25,2,3,0.0,1.0,12,45.0,30.0,3,0.731,0.0,1122.59,0.2,1,2018-03-30 14:55:34.000,156,2018-03-30 15:14:15.428,0.25,90,-180,-180,90,1
35,0,1134.272,0,0,1,0.25,2,9,0.0,1.0,6,45.0,30.0,9,0.401,1.0,1136.588,0.2,1,2018-03-30 14:55:34.000,156,2018-03-30 15:14:28.272,0.25,-90,0,0,-90,1
36,0,1152.548,0,0,1,0.25,2,9,0.0,1.0,6,45.0,30.0,9,0.401,0.0,1154.4260000000002,0.0,0,2018-03-30 14:55:34.000,156,2018-03-30 15:14:46.548,0.25,90,0,0,90,1
38,0,1183.414,0,0,1,0.25,2,3,0.0,1.0,12,45.0,30.0,3,0.8959999999999999,0.0,1184.734,0.2,1,2018-03-30 14:55:34.000,156,2018-03-30 15:15:17.414,0.25,90,-180,-180,90,1
1,0,17.524,0,0,1,0.25,2,3,0.0,1.0,12,45.0,30.0,3,1.061,1.0,18.859,0.0,0,2018-04-02 09:58:03.000,214,2018-04-02 09:58:20.524,0.25,-90,-180,-180,-90,1
4,0,45.042,0,0,1,0.25,2,9,0.0,1.0,6,45.0,30.0,9,0.8959999999999999,1.0,46.44,0.2,1,2018-04-02 09:58:03.000,214,2018-04-02 09:58:48.042,0.25,-90,0,0,-90,1
5,0,74.736,0,0,1,0.25,2,9,0.0,1.0,6,45.0,30.0,9,0.401,1.0,78.27600000000001,0.2,1,2018-04-02 09:58:03.000,214,2018-04-02 09:59:17.736,0.25,-90,0,0,-90,1
6,0,104.65799999999999,0,0,1,0.25,2,3,0.0,1.0,12,45.0,30.0,3,0.5660000000000001,1.0,107.52799999999999,0.0,0,2018-04-02 09:58:03.000,214,2018-04-02 09:59:47.658,0.25,-90,-180,-180,-90,1
8,0,148.062,0,0,1,0.25,2,3,0.0,1.0,12,45.0,30.0,3,0.731,0.0,149.384,0.2,1,2018-04-02 09:58:03.000,214,2018-04-02 10:00:31.062,0.25,90,-180,-180,90,1
9,0,175.91,0,0,1,0.25,2,9,0.0,1.0,6,45.0,30.0,9,1.061,1.0,177.178,0.2,1,2018-04-02 09:58:03.000,214,2018-04-02 10:00:58.910,0.25,-90,0,0,-90,1
10,0,204.368,0,0,1,0.25,2,3,0.0,1.0,12,45.0,30.0,3,0.8959999999999999,1.0,212.923,0.0,0,2018-04-02 09:58:03.000,214,2018-04-02 10:01:27.368,0.25,-90,-180,-180,-90,1
12,0,243.201,0,0,1,0.25,2,3,0.0,1.0,12,45.0,30.0,3,0.401,0.0,244.975,0.2,1,2018-04-02 09:58:03.000,214,2018-04-02 10:02:06.201,0.25,90,-180,-180,90,1
13,0,271.312,0,0,1,0.25,2,3,0.0,1.0,12,45.0,30.0,3,0.731,0.0,272.545,0.2,1,2018-04-02 09:58:03.000,214,2018-04-02 10:02:34.312,0.25,90,-180,-180,90,1
14,0,297.345,0,0,1,0.25,2,9,0.0,1.0,6,45.0,30.0,9,0.8959999999999999,1.0,300.561,0.2,1,2018-04-02 09:58:03.000,214,2018-04-02 10:03:00.345,0.25,-90,0,0,-90,1
15,0,328.233,0,0,1,0.25,2,9,0.0,1.0,6,45.0,30.0,9,1.061,1.0,338.086,0.2,1,2018-04-02 09:58:03.000,214,2018-04-02 10:03:31.233,0.25,-90,0,0,-90,1
16,0,363.745,0,0,1,0.25,2,3,0.0,1.0,12,45.0,30.0,3,0.5660000000000001,0.0,375.305,0.2,1,2018-04-02 09:58:03.000,214,2018-04-02 10:04:06.745,0.25,90,-180,-180,90,1
17,0,400.286,0,0,1,0.25,2,3,0.0,1.0,12,45.0,30.0,3,0.731,0.0,404.475,0.2,1,2018-04-02 09:58:03.000,214,2018-04-02 10:04:43.286,0.25,90,-180,-180,90,1
18,0,428.24300000000005,0,0,1,0.25,2,9,0.0,1.0,6,45.0,30.0,9,0.401,1.0,430.01199999999994,0.2,1,2018-04-02 09:58:03.000,214,2018-04-02 10:05:11.243,0.25,-90,0,0,-90,1
19,0,453.67,0,0,1,0.25,2,9,0.0,1.0,6,45.0,30.0,9,0.8959999999999999,1.0,460.227,0.2,1,2018-04-02 09:58:03.000,214,2018-04-02 10:05:36.670,0.25,-90,0,0,-90,1
20,0,483.055,0,0,1,0.25,2,3,0.0,1.0,12,45.0,30.0,3,1.061,0.0,487.467,0.2,1,2018-04-02 09:58:03.000,214,2018-04-02 10:06:06.055,0.25,90,-180,-180,90,1
21,0,508.293,0,0,1,0.25,2,9,0.0,1.0,6,45.0,30.0,9,0.8959999999999999,1.0,511.79400000000004,0.2,1,2018-04-02 09:58:03.000,214,2018-04-02 10:06:31.293,0.25,-90,0,0,-90,1
22,0,533.0169999999999,0,0,1,0.25,2,9,0.0,1.0,6,45.0,30.0,9,1.061,1.0,536.904,0.2,1,2018-04-02 09:58:03.000,214,2018-04-02 10:06:56.017,0.25,-90,0,0,-90,1
23,0,559.376,0,0,1,0.25,2,9,0.0,1.0,6,45.0,30.0,9,0.5660000000000001,1.0,570.9169999999999,0.2,1,2018-04-02 09:58:03.000,214,2018-04-02 10:07:22.376,0.25,-90,0,0,-90,1
24,0,590.758,0,0,1,0.25,2,3,0.0,1.0,12,45.0,30.0,3,0.401,0.0,601.518,0.2,1,2018-04-02 09:58:03.000,214,2018-04-02 10:07:53.758,0.25,90,-180,-180,90,1
25,0,625.355,0,0,1,0.25,2,3,0.0,1.0,12,45.0,30.0,3,0.731,0.0,626.673,0.2,1,2018-04-02 09:58:03.000,214,2018-04-02 10:08:28.355,0.25,90,-180,-180,90,1
26,0,650.4680000000001,0,0,1,0.25,2,9,0.0,1.0,6,45.0,30.0,9,0.731,1.0,652.677,0.2,1,2018-04-02 09:58:03.000,214,2018-04-02 10:08:53.468,0.25,-90,0,0,-90,1
27,0,672.09,0,0,1,0.25,2,9,0.0,1.0,6,45.0,30.0,9,0.8959999999999999,1.0,681.5360000000001,0.2,1,2018-04-02 09:58:03.000,214,2018-04-02 10:09:15.090,0.25,-90,0,0,-90,1
28,0,705.8939999999999,0,0,1,0.25,2,3,0.0,1.0,12,45.0,30.0,3,1.061,1.0,719.35,0.0,0,2018-04-02 09:58:03.000,214,2018-04-02 10:09:48.894,0.25,-90,-180,-180,-90,1
30,0,746.967,0,0,1,0.25,2,9,0.0,1.0,6,45.0,30.0,9,0.401,1.0,749.216,0.2,1,2018-04-02 09:58:03.000,214,2018-04-02 10:10:29.967,0.25,-90,0,0,-90,1
31,0,769.37,0,0,1,0.25,2,3,0.0,1.0,12,45.0,30.0,3,0.8959999999999999,1.0,776.295,0.0,0,2018-04-02 09:58:03.000,214,2018-04-02 10:10:52.370,0.25,-90,-180,-180,-90,1
33,0,805.185,0,0,1,0.25,2,9,0.0,1.0,6,45.0,30.0,9,0.731,0.0,809.22,0.0,0,2018-04-02 09:58:03.000,214,2018-04-02 10:11:28.185,0.25,90,0,0,90,1
35,0,857.081,0,0,1,0.25,2,3,0.0,1.0,12,45.0,30.0,3,0.5660000000000001,0.0,866.171,0.2,1,2018-04-02 09:58:03.000,214,2018-04-02 10:12:20.081,0.25,90,-180,-180,90,1
36,0,885.558,0,0,1,0.25,2,3,0.0,1.0,12,45.0,30.0,3,1.061,0.0,886.668,0.2,1,2018-04-02 09:58:03.000,214,2018-04-02 10:12:48.558,0.25,90,-180,-180,90,1
37,0,909.895,0,0,1,0.25,2,9,0.0,1.0,6,45.0,30.0,9,0.5660000000000001,0.0,911.385,0.0,0,2018-04-02 09:58:03.000,214,2018-04-02 10:13:12.895,0.25,90,0,0,90,1
39,0,943.8639999999999,0,0,1,0.25,2,9,0.0,1.0,6,45.0,30.0,9,0.731,0.0,949.9839999999999,0.0,0,2018-04-02 09:58:03.000,214,2018-04-02 10:13:46.864,0.25,90,0,0,90,1
41,0,1023.416,0,0,1,0.25,2,3,0.0,1.0,12,45.0,30.0,3,0.8959999999999999,0.0,1029.4569999999999,0.2,1,2018-04-02 09:58:03.000,214,2018-04-02 10:15:06.416,0.25,90,-180,-180,90,1
42,0,1044.769,0,0,1,0.25,2,3,0.0,1.0,12,45.0,30.0,3,0.5660000000000001,0.0,1045.981,0.2,1,2018-04-02 09:58:03.000,214,2018-04-02 10:15:27.769,0.25,90,-180,-180,90,1
43,0,1147.317,0,0,1,0.25,2,9,0.0,1.0,6,45.0,30.0,9,1.061,1.0,1148.826,0.2,1,2018-04-02 09:58:03.000,214,2018-04-02 10:17:10.317,0.25,-90,0,0,-90,1
44,0,1165.718,0,0,1,0.25,2,3,0.0,1.0,12,45.0,30.0,3,0.401,0.0,1167.4260000000002,0.2,1,2018-04-02 09:58:03.000,214,2018-04-02 10:17:28.718,0.25,90,-180,-180,90,1
45,0,1220.8310000000001,0,0,1,0.25,2,9,0.0,1.0,6,45.0,30.0,9,0.731,1.0,1222.6480000000001,0.2,1,2018-04-02 09:58:03.000,214,2018-04-02 10:18:23.831,0.25,-90,0,0,-90,1
46,0,1235.277,0,0,1,0.25,2,3,0.0,1.0,12,45.0,30.0,3,0.8959999999999999,0.0,1237.319,0.2,1,2018-04-02 09:58:03.000,214,2018-04-02 10:18:38.277,0.25,90,-180,-180,90,1
47,0,1248.393,0,0,1,0.25,2,9,0.0,1.0,6,45.0,30.0,9,0.5660000000000001,0.0,1249.755,0.0,0,2018-04-02 09:58:03.000,214,2018-04-02 10:18:51.393,0.25,90,0,0,90,1
50,0,1347.227,0,0,1,0.25,2,9,0.0,1.0,6,45.0,30.0,9,1.061,0.0,1352.517,0.0,0,2018-04-02 09:58:03.000,214,2018-04-02 10:20:30.227,0.25,90,0,0,90,1
53,0,1759.586,0,0,1,0.25,2,3,0.0,1.0,12,45.0,30.0,3,0.8959999999999999,0.0,1761.537,0.2,1,2018-04-02 09:58:03.000,214,2018-04-02 10:27:22.586,0.25,90,-180,-180,90,1
54,0,1779.711,0,0,1,0.25,2,3,0.0,1.0,12,45.0,30.0,3,0.731,0.0,1780.8239999999998,0.2,1,2018-04-02 09:58:03.000,214,2018-04-02 10:27:42.711,0.25,90,-180,-180,90,1
55,0,1803.1779999999999,0,0,1,0.25,2,3,0.0,1.0,12,45.0,30.0,3,1.061,0.0,1804.3470000000002,0.2,1,2018-04-02 09:58:03.000,214,2018-04-02 10:28:06.178,0.25,90,-180,-180,90,1
56,0,1813.582,0,0,1,0.25,2,3,0.0,1.0,12,45.0,30.0,3,0.401,0.0,1815.0,0.2,1,2018-04-02 09:58:03.000,214,2018-04-02 10:28:16.582,0.25,90,-180,-180,90,1
57,0,1822.846,0,0,1,0.25,2,9,0.0,1.0,6,45.0,30.0,9,0.8959999999999999,0.0,1824.0970000000002,0.0,0,2018-04-02 09:58:03.000,214,2018-04-02 10:28:25.846,0.25,90,0,0,90,1
59,0,1837.408,0,0,1,0.25,2,9,0.0,1.0,6,45.0,30.0,9,0.5660000000000001,0.0,1843.3729999999998,0.0,0,2018-04-02 09:58:03.000,214,2018-04-02 10:28:40.408,0.25,90,0,0,90,1
1,0,9.607999999999999,0,0,1,0.25,2,3,0.0,1.0,12,45.0,30.0,3,0.731,0.0,15.699000000000002,0.2,1,2018-04-02 14:23:35.000,49,2018-04-02 14:23:44.608,0.25,90,-180,-180,90,1
2,0,62.153999999999996,0,0,1,0.25,2,9,0.0,1.0,6,45.0,30.0,9,0.8959999999999999,1.0,64.069,0.2,1,2018-04-02 14:23:35.000,49,2018-04-02 14:24:37.154,0.25,-90,0,0,-90,1
3,0,81.428,0,0,1,0.25,2,3,0.0,1.0,12,45.0,30.0,3,0.5660000000000001,0.0,85.89299999999999,0.2,1,2018-04-02 14:23:35.000,49,2018-04-02 14:24:56.428,0.25,90,-180,-180,90,1
4,0,121.228,0,0,1,0.25,2,9,0.0,1.0,6,45.0,30.0,9,1.061,1.0,125.833,0.2,1,2018-04-02 14:23:35.000,49,2018-04-02 14:25:36.228,0.25,-90,0,0,-90,1
5,0,146.618,0,0,1,0.25,2,3,0.0,1.0,12,45.0,30.0,3,0.401,1.0,151.514,0.0,0,2018-04-02 14:23:35.000,49,2018-04-02 14:26:01.618,0.25,-90,-180,-180,-90,1
7,0,184.014,0,0,1,0.25,2,3,0.0,1.0,12,45.0,30.0,3,0.731,1.0,188.80900000000003,0.0,0,2018-04-02 14:23:35.000,49,2018-04-02 14:26:39.014,0.25,-90,-180,-180,-90,1
9,0,221.24900000000002,0,0,1,0.25,2,9,0.0,1.0,6,45.0,30.0,9,0.401,0.0,223.447,0.0,0,2018-04-02 14:23:35.000,49,2018-04-02 14:27:16.249,0.25,90,0,0,90,1
11,0,252.37400000000002,0,0,1,0.25,2,9,0.0,1.0,6,45.0,30.0,9,0.401,1.0,258.51,0.2,1,2018-04-02 14:23:35.000,49,2018-04-02 14:27:47.374,0.25,-90,0,0,-90,1
12,0,281.205,0,0,1,0.25,2,9,0.0,1.0,6,45.0,30.0,9,0.731,1.0,290.61,0.2,1,2018-04-02 14:23:35.000,49,2018-04-02 14:28:16.205,0.25,-90,0,0,-90,1
13,0,314.987,0,0,1,0.25,2,3,0.0,1.0,12,45.0,30.0,3,0.8959999999999999,1.0,322.353,0.0,0,2018-04-02 14:23:35.000,49,2018-04-02 14:28:49.987,0.25,-90,-180,-180,-90,1
15,0,357.236,0,0,1,0.25,2,9,0.0,1.0,6,45.0,30.0,9,1.061,1.0,358.781,0.2,1,2018-04-02 14:23:35.000,49,2018-04-02 14:29:32.236,0.25,-90,0,0,-90,1
16,0,381.089,0,0,1,0.25,2,3,0.0,1.0,12,45.0,30.0,3,0.5660000000000001,1.0,389.101,0.0,0,2018-04-02 14:23:35.000,49,2018-04-02 14:29:56.089,0.25,-90,-180,-180,-90,1
18,0,430.319,0,0,1,0.25,2,9,0.0,1.0,6,45.0,30.0,9,0.401,1.0,433.496,0.2,1,2018-04-02 14:23:35.000,49,2018-04-02 14:30:45.319,0.25,-90,0,0,-90,1
19,0,454.13800000000003,0,0,1,0.25,2,3,0.0,1.0,12,45.0,30.0,3,1.061,1.0,464.608,0.0,0,2018-04-02 14:23:35.000,49,2018-04-02 14:31:09.138,0.25,-90,-180,-180,-90,1
21,0,531.521,0,0,1,0.25,2,9,0.0,1.0,6,45.0,30.0,9,0.401,0.0,533.865,0.0,0,2018-04-02 14:23:35.000,49,2018-04-02 14:32:26.521,0.25,90,0,0,90,1
23,0,565.315,0,0,1,0.25,2,9,0.0,1.0,6,45.0,30.0,9,0.8959999999999999,1.0,573.8330000000001,0.2,1,2018-04-02 14:23:35.000,49,2018-04-02 14:33:00.315,0.25,-90,0,0,-90,1
24,0,599.423,0,0,1,0.25,2,3,0.0,1.0,12,45.0,30.0,3,1.061,1.0,607.5830000000001,0.0,0,2018-04-02 14:23:35.000,49,2018-04-02 14:33:34.423,0.25,-90,-180,-180,-90,1
26,0,640.237,0,0,1,0.25,2,3,0.0,1.0,12,45.0,30.0,3,0.8959999999999999,0.0,641.6469999999999,0.2,1,2018-04-02 14:23:35.000,49,2018-04-02 14:34:15.237,0.25,90,-180,-180,90,1
27,0,662.633,0,0,1,0.25,2,3,0.0,1.0,12,45.0,30.0,3,0.731,1.0,666.446,0.0,0,2018-04-02 14:23:35.000,49,2018-04-02 14:34:37.633,0.25,-90,-180,-180,-90,1
30,0,747.118,0,0,1,0.25,2,9,0.0,1.0,6,45.0,30.0,9,0.5660000000000001,0.0,751.8989999999999,0.0,0,2018-04-02 14:23:35.000,49,2018-04-02 14:36:02.118,0.25,90,0,0,90,1
7,0,199.968,0,0,1,0.25,2,3,0.0,1.0,12,45.0,30.0,3,0.701,1.0,206.421,0.0,0,2018-04-06 15:10:07.000,111,2018-04-06 15:13:26.968,0.25,-90,-180,-180,-90,1
9,0,233.937,0,0,1,0.25,2,3,0.0,1.0,12,45.0,30.0,3,0.501,1.0,235.53799999999998,0.0,0,2018-04-06 15:10:07.000,111,2018-04-06 15:14:00.937,0.25,-90,-180,-180,-90,1
11,0,287.204,0,0,1,0.25,2,3,0.0,1.0,12,45.0,30.0,3,0.601,0.0,288.91900000000004,0.2,1,2018-04-06 15:10:07.000,111,2018-04-06 15:14:54.204,0.25,90,-180,-180,90,1
12,0,310.375,0,0,1,0.25,2,3,0.0,1.0,12,45.0,30.0,3,0.501,0.0,312.598,0.2,1,2018-04-06 15:10:07.000,111,2018-04-06 15:15:17.375,0.25,90,-180,-180,90,1
13,0,337.651,0,0,1,0.25,2,9,0.0,1.0,6,45.0,30.0,9,0.551,1.0,339.787,0.2,1,2018-04-06 15:10:07.000,111,2018-04-06 15:15:44.651,0.25,-90,0,0,-90,1
14,0,358.39099999999996,0,0,1,0.25,2,9,0.0,1.0,6,45.0,30.0,9,0.6509999999999999,1.0,361.594,0.2,1,2018-04-06 15:10:07.000,111,2018-04-06 15:16:05.391,0.25,-90,0,0,-90,1
15,0,375.954,0,0,1,0.25,2,9,0.0,1.0,6,45.0,30.0,9,0.701,1.0,378.95599999999996,0.2,1,2018-04-06 15:10:07.000,111,2018-04-06 15:16:22.954,0.25,-90,0,0,-90,1
16,0,399.684,0,0,1,0.25,2,9,0.0,1.0,6,45.0,30.0,9,0.601,1.0,403.099,0.2,1,2018-04-06 15:10:07.000,111,2018-04-06 15:16:46.684,0.25,-90,0,0,-90,1
17,0,419.805,0,0,1,0.25,2,3,0.0,1.0,12,45.0,30.0,3,0.701,0.0,421.705,0.2,1,2018-04-06 15:10:07.000,111,2018-04-06 15:17:06.805,0.25,90,-180,-180,90,1
18,0,443.50199999999995,0,0,1,0.25,2,3,0.0,1.0,12,45.0,30.0,3,0.501,0.0,445.35400000000004,0.2,1,2018-04-06 15:10:07.000,111,2018-04-06 15:17:30.502,0.25,90,-180,-180,90,1
19,0,467.931,0,0,1,0.25,2,9,0.0,1.0,6,45.0,30.0,9,0.6509999999999999,1.0,469.48,0.2,1,2018-04-06 15:10:07.000,111,2018-04-06 15:17:54.931,0.25,-90,0,0,-90,1
20,0,483.39300000000003,0,0,1,0.25,2,9,0.0,1.0,6,45.0,30.0,9,0.551,1.0,487.09,0.2,1,2018-04-06 15:10:07.000,111,2018-04-06 15:18:10.393,0.25,-90,0,0,-90,1
21,0,509.29,0,0,1,0.25,2,9,0.0,1.0,6,45.0,30.0,9,0.551,1.0,514.0509999999999,0.2,1,2018-04-06 15:10:07.000,111,2018-04-06 15:18:36.290,0.25,-90,0,0,-90,1
22,0,534.253,0,0,1,0.25,2,9,0.0,1.0,6,45.0,30.0,9,0.6509999999999999,1.0,537.1669999999999,0.2,1,2018-04-06 15:10:07.000,111,2018-04-06 15:19:01.253,0.25,-90,0,0,-90,1
23,0,556.302,0,0,1,0.25,2,3,0.0,1.0,12,45.0,30.0,3,0.601,0.0,558.197,0.2,1,2018-04-06 15:10:07.000,111,2018-04-06 15:19:23.302,0.25,90,-180,-180,90,1
24,0,577.394,0,0,1,0.25,2,9,0.0,1.0,6,45.0,30.0,9,0.501,1.0,580.183,0.2,1,2018-04-06 15:10:07.000,111,2018-04-06 15:19:44.394,0.25,-90,0,0,-90,1
25,0,596.524,0,0,1,0.25,2,9,0.0,1.0,6,45.0,30.0,9,0.701,1.0,599.549,0.2,1,2018-04-06 15:10:07.000,111,2018-04-06 15:20:03.524,0.25,-90,0,0,-90,1
26,0,616.794,0,0,1,0.25,2,9,0.0,1.0,6,45.0,30.0,9,0.501,1.0,620.206,0.2,1,2018-04-06 15:10:07.000,111,2018-04-06 15:20:23.794,0.25,-90,0,0,-90,1
27,0,639.363,0,0,1,0.25,2,9,0.0,1.0,6,45.0,30.0,9,0.601,0.0,643.14,0.0,0,2018-04-06 15:10:07.000,111,2018-04-06 15:20:46.363,0.25,90,0,0,90,1
30,0,682.5189999999999,0,0,1,0.25,2,3,0.0,1.0,12,45.0,30.0,3,0.701,1.0,685.61,0.0,0,2018-04-06 15:10:07.000,111,2018-04-06 15:21:29.519,0.25,-90,-180,-180,-90,1
32,0,708.427,0,0,1,0.25,2,3,0.0,1.0,12,45.0,30.0,3,0.6509999999999999,0.0,711.753,0.2,1,2018-04-06 15:10:07.000,111,2018-04-06 15:21:55.427,0.25,90,-180,-180,90,1
33,0,732.7310000000001,0,0,1,0.25,2,3,0.0,1.0,12,45.0,30.0,3,0.501,0.0,737.175,0.2,1,2018-04-06 15:10:07.000,111,2018-04-06 15:22:19.731,0.25,90,-180,-180,90,1
34,0,760.084,0,0,1,0.25,2,3,0.0,1.0,12,45.0,30.0,3,0.551,0.0,761.873,0.2,1,2018-04-06 15:10:07.000,111,2018-04-06 15:22:47.084,0.25,90,-180,-180,90,1
35,0,774.543,0,0,1,0.25,2,9,0.0,1.0,6,45.0,30.0,9,0.601,0.0,777.811,0.0,0,2018-04-06 15:10:07.000,111,2018-04-06 15:23:01.543,0.25,90,0,0,90,1
37,0,797.675,0,0,1,0.25,2,9,0.0,1.0,6,45.0,30.0,9,0.701,0.0,803.43,0.0,0,2018-04-06 15:10:07.000,111,2018-04-06 15:23:24.675,0.25,90,0,0,90,1
41,0,863.455,0,0,1,0.25,2,3,0.0,1.0,12,45.0,30.0,3,0.6509999999999999,0.0,865.326,0.2,1,2018-04-06 15:10:07.000,111,2018-04-06 15:24:30.455,0.25,90,-180,-180,90,1
42,0,879.8560000000001,0,0,1,0.25,2,3,0.0,1.0,12,45.0,30.0,3,0.701,0.0,881.439,0.2,1,2018-04-06 15:10:07.000,111,2018-04-06 15:24:46.856,0.25,90,-180,-180,90,1
43,0,898.182,0,0,1,0.25,2,3,0.0,1.0,12,45.0,30.0,3,0.601,0.0,900.564,0.2,1,2018-04-06 15:10:07.000,111,2018-04-06 15:25:05.182,0.25,90,-180,-180,90,1
44,0,915.99,0,0,1,0.25,2,3,0.0,1.0,12,45.0,30.0,3,0.501,0.0,917.757,0.2,1,2018-04-06 15:10:07.000,111,2018-04-06 15:25:22.990,0.25,90,-180,-180,90,1
45,0,928.716,0,0,1,0.25,2,9,0.0,1.0,6,45.0,30.0,9,0.551,1.0,932.038,0.2,1,2018-04-06 15:10:07.000,111,2018-04-06 15:25:35.716,0.25,-90,0,0,-90,1
46,0,942.299,0,0,1,0.25,2,9,0.0,1.0,6,45.0,30.0,9,0.551,0.0,944.637,0.0,0,2018-04-06 15:10:07.000,111,2018-04-06 15:25:49.299,0.25,90,0,0,90,1
48,0,977.079,0,0,1,0.25,2,9,0.0,1.0,6,45.0,30.0,9,0.601,0.0,980.097,0.0,0,2018-04-06 15:10:07.000,111,2018-04-06 15:26:24.079,0.25,90,0,0,90,1
50,0,1009.115,0,0,1,0.25,2,9,0.0,1.0,6,45.0,30.0,9,0.501,1.0,1013.424,0.2,1,2018-04-06 15:10:07.000,111,2018-04-06 15:26:56.115,0.25,-90,0,0,-90,1
51,0,1030.287,0,0,1,0.25,2,3,0.0,1.0,12,45.0,30.0,3,0.501,0.0,1032.17,0.2,1,2018-04-06 15:10:07.000,111,2018-04-06 15:27:17.287,0.25,90,-180,-180,90,1
52,0,1042.6589999999999,0,0,1,0.25,2,3,0.0,1.0,12,45.0,30.0,3,0.601,1.0,1046.339,0.0,0,2018-04-06 15:10:07.000,111,2018-04-06 15:27:29.659,0.25,-90,-180,-180,-90,1
54,0,1093.258,0,0,1,0.25,2,3,0.0,1.0,12,45.0,30.0,3,0.701,0.0,1094.721,0.2,1,2018-04-06 15:10:07.000,111,2018-04-06 15:28:20.258,0.25,90,-180,-180,90,1
1,0,38.395,0,0,1,0.25,2,9,0.0,1.0,6,45.0,30.0,9,0.701,1.0,40.21,0.2,1,2018-04-24 09:25:50.000,174,2018-04-24 09:26:28.395,0.25,-90,0,0,-90,1
2,0,55.482,0,0,1,0.25,2,9,0.0,1.0,6,45.0,30.0,9,0.601,0.0,58.9,0.0,0,2018-04-24 09:25:50.000,174,2018-04-24 09:26:45.482,0.25,90,0,0,90,1
4,0,97.34700000000001,0,0,1,0.25,2,3,0.0,1.0,12,45.0,30.0,3,0.551,1.0,100.15700000000001,0.0,0,2018-04-24 09:25:50.000,174,2018-04-24 09:27:27.347,0.25,-90,-180,-180,-90,1
6,0,125.736,0,0,1,0.25,2,9,0.0,1.0,6,45.0,30.0,9,0.701,1.0,127.556,0.2,1,2018-04-24 09:25:50.000,174,2018-04-24 09:27:55.736,0.25,-90,0,0,-90,1
7,0,148.898,0,0,1,0.25,2,9,0.0,1.0,6,45.0,30.0,9,0.601,0.0,151.254,0.0,0,2018-04-24 09:25:50.000,174,2018-04-24 09:28:18.898,0.25,90,0,0,90,1
9,0,183.84900000000002,0,0,1,0.25,2,9,0.0,1.0,6,45.0,30.0,9,0.6509999999999999,1.0,185.949,0.2,1,2018-04-24 09:25:50.000,174,2018-04-24 09:28:53.849,0.25,-90,0,0,-90,1
10,0,208.268,0,0,1,0.25,2,3,0.0,1.0,12,45.0,30.0,3,0.551,0.0,209.797,0.2,1,2018-04-24 09:25:50.000,174,2018-04-24 09:29:18.268,0.25,90,-180,-180,90,1
11,0,226.96,0,0,1,0.25,2,3,0.0,1.0,12,45.0,30.0,3,0.601,1.0,229.46400000000003,0.0,0,2018-04-24 09:25:50.000,174,2018-04-24 09:29:36.960,0.25,-90,-180,-180,-90,1
13,0,283.452,0,0,1,0.25,2,3,0.0,1.0,12,45.0,30.0,3,0.701,0.0,286.82,0.2,1,2018-04-24 09:25:50.000,174,2018-04-24 09:30:33.452,0.25,90,-180,-180,90,1
14,0,317.297,0,0,1,0.25,2,3,0.0,1.0,12,45.0,30.0,3,0.551,1.0,320.06,0.0,0,2018-04-24 09:25:50.000,174,2018-04-24 09:31:07.297,0.25,-90,-180,-180,-90,1
17,0,366.83,0,0,1,0.25,2,3,0.0,1.0,12,45.0,30.0,3,0.601,1.0,371.97900000000004,0.0,0,2018-04-24 09:25:50.000,174,2018-04-24 09:31:56.830,0.25,-90,-180,-180,-90,1
1,0,100.47399999999999,0,0,1,0.25,2,3,0.0,1.0,12,45.0,30.0,3,0.701,0.0,101.99700000000001,0.2,1,2018-04-24 14:40:07.000,209,2018-04-24 14:41:47.474,0.25,90,-180,-180,90,1
2,0,135.834,0,0,1,0.25,2,3,0.0,1.0,12,45.0,30.0,3,0.501,1.0,138.886,0.0,0,2018-04-24 14:40:07.000,209,2018-04-24 14:42:22.834,0.25,-90,-180,-180,-90,1
