Trial,CorrectionTrial,StartTime,CenterReward,CenterSpoutRotation,nStimReps,Duration,Modality,LED Location,LED_trial_V,LED_bgnd_V,Speaker Location,Speaker_trial_V,Speaker_bgnd_V,TargetSpout,HoldTime,Response,RespTime,ValveTime,Correct,SessionDate,SessionID,StartDateTime,StimulusTotalDuration,response_angle_world,speaker_angle_world,speaker_angle_platform,response_angle_platform,not_probe
60,0,391.224,0,90,1,0.25,2,9,0.0,1.0,6,48.0,20.0,9,0.951,1.0,391.42,0.15,1,2019-05-17 08:49:12.000,52,2019-05-17 08:55:43.224,0.25,-90,0,-90,-180,1
61,0,395.26800000000003,0,90,1,0.25,2,3,0.0,1.0,12,48.0,20.0,3,0.763,0.0,395.91,0.15,1,2019-05-17 08:49:12.000,52,2019-05-17 08:55:47.268,0.25,90,-180,90,0,1
62,0,400.76599999999996,0,90,1,0.25,2,3,0.0,1.0,12,48.0,20.0,3,0.888,1.0,401.409,0.0,0,2019-05-17 08:49:12.000,52,2019-05-17 08:55:52.766,0.25,-90,-180,90,-180,1
64,0,415.93300000000005,0,90,1,0.25,2,3,0.0,1.0,12,48.0,20.0,3,0.888,0.0,416.77,0.15,1,2019-05-17 08:49:12.000,52,2019-05-17 08:56:07.933,0.25,90,-180,90,0,1
65,0,430.533,0,90,1,0.25,2,9,0.0,1.0,6,48.0,20.0,9,0.701,1.0,431.171,0.15,1,2019-05-17 08:49:12.000,52,2019-05-17 08:56:22.533,0.25,-90,0,-90,-180,1
66,0,434.722,0,90,1,0.25,2,9,0.0,1.0,6,48.0,20.0,9,0.763,1.0,435.57,0.15,1,2019-05-17 08:49:12.000,52,2019-05-17 08:56:26.722,0.25,-90,0,-90,-180,1
67,0,438.745,0,90,1,0.25,2,9,0.0,1.0,6,48.0,20.0,9,0.951,1.0,439.418,0.15,1,2019-05-17 08:49:12.000,52,2019-05-17 08:56:30.745,0.25,-90,0,-90,-180,1
68,0,443.68,0,90,1,0.25,2,3,0.0,1.0,12,48.0,20.0,3,0.826,1.0,445.26599999999996,0.0,0,2019-05-17 08:49:12.000,52,2019-05-17 08:56:35.680,0.25,-90,-180,90,-180,1
71,0,461.87800000000004,0,90,1,0.25,2,9,0.0,1.0,6,48.0,20.0,9,0.951,0.0,464.21,0.0,0,2019-05-17 08:49:12.000,52,2019-05-17 08:56:53.878,0.25,90,0,-90,0,1
46,0,422.894,0,90,1,0.25,2,9,0.0,1.0,6,48.0,20.0,9,0.701,0.0,425.13599999999997,0.0,0,2019-05-28 14:00:10.000,125,2019-05-28 14:07:12.894,0.25,90,0,-90,0,1
48,0,442.912,0,90,1,0.25,2,3,0.0,1.0,12,48.0,20.0,3,0.951,0.0,443.795,0.15,1,2019-05-28 14:00:10.000,125,2019-05-28 14:07:32.912,0.25,90,-180,90,0,1
49,0,450.478,1,90,1,0.25,2,9,0.0,1.0,6,48.0,20.0,9,0.763,1.0,450.93,0.15,1,2019-05-28 14:00:10.000,125,2019-05-28 14:07:40.478,0.25,-90,0,-90,-180,1
50,0,452.514,0,90,1,0.25,2,3,0.0,1.0,12,48.0,20.0,3,0.826,1.0,454.65,0.0,0,2019-05-28 14:00:10.000,125,2019-05-28 14:07:42.514,0.25,-90,-180,90,-180,1
52,0,464.407,0,90,1,0.25,2,3,0.0,1.0,12,48.0,20.0,3,0.951,1.0,465.57800000000003,0.0,0,2019-05-28 14:00:10.000,125,2019-05-28 14:07:54.407,0.25,-90,-180,90,-180,1
54,0,472.853,0,90,1,0.25,2,9,0.0,1.0,6,48.0,20.0,9,0.888,0.0,477.597,0.0,0,2019-05-28 14:00:10.000,125,2019-05-28 14:08:02.853,0.25,90,0,-90,0,1
56,0,485.533,0,90,1,0.25,2,9,0.0,1.0,6,48.0,20.0,9,0.701,1.0,486.918,0.15,1,2019-05-28 14:00:10.000,125,2019-05-28 14:08:15.533,0.25,-90,0,-90,-180,1
57,0,490.272,0,90,1,0.25,2,3,0.0,1.0,12,48.0,20.0,3,0.701,1.0,491.037,0.0,0,2019-05-28 14:00:10.000,125,2019-05-28 14:08:20.272,0.25,-90,-180,90,-180,1
59,0,497.775,1,90,1,0.25,2,3,0.0,1.0,12,48.0,20.0,3,0.951,0.0,499.32099999999997,0.15,1,2019-05-28 14:00:10.000,125,2019-05-28 14:08:27.775,0.25,90,-180,90,0,1
60,0,500.88599999999997,0,90,1,0.25,2,9,0.0,1.0,6,48.0,20.0,9,0.763,1.0,502.529,0.15,1,2019-05-28 14:00:10.000,125,2019-05-28 14:08:30.886,0.25,-90,0,-90,-180,1
61,0,507.519,0,90,1,0.25,2,9,0.0,1.0,6,48.0,20.0,9,0.826,1.0,508.256,0.15,1,2019-05-28 14:00:10.000,125,2019-05-28 14:08:37.519,0.25,-90,0,-90,-180,1
62,0,512.466,0,90,1,0.25,2,3,0.0,1.0,12,48.0,20.0,3,0.888,0.0,512.979,0.15,1,2019-05-28 14:00:10.000,125,2019-05-28 14:08:42.466,0.25,90,-180,90,0,1
63,0,519.4069999999999,0,90,1,0.25,2,9,0.0,1.0,6,48.0,20.0,9,0.951,1.0,521.309,0.15,1,2019-05-28 14:00:10.000,125,2019-05-28 14:08:49.407,0.25,-90,0,-90,-180,1
64,0,536.249,1,90,1,0.25,2,3,0.0,1.0,12,48.0,20.0,3,0.701,0.0,537.788,0.15,1,2019-05-28 14:00:10.000,125,2019-05-28 14:09:06.249,0.25,90,-180,90,0,1
65,0,539.198,1,90,1,0.25,2,9,0.0,1.0,6,48.0,20.0,9,0.826,1.0,540.94,0.15,1,2019-05-28 14:00:10.000,125,2019-05-28 14:09:09.198,0.25,-90,0,-90,-180,1
66,0,542.69,0,90,1,0.25,2,9,0.0,1.0,6,48.0,20.0,9,0.888,0.0,544.216,0.0,0,2019-05-28 14:00:10.000,125,2019-05-28 14:09:12.690,0.25,90,0,-90,0,1
69,0,555.1669999999999,0,90,1,0.25,2,9,0.0,1.0,6,48.0,20.0,9,0.763,1.0,557.5830000000001,0.15,1,2019-05-28 14:00:10.000,125,2019-05-28 14:09:25.167,0.25,-90,0,-90,-180,1
70,0,561.931,0,90,1,0.25,2,9,0.0,1.0,6,48.0,20.0,9,0.701,1.0,562.889,0.15,1,2019-05-28 14:00:10.000,125,2019-05-28 14:09:31.931,0.25,-90,0,-90,-180,1
71,0,566.303,0,90,1,0.25,2,9,0.0,1.0,6,48.0,20.0,9,0.763,0.0,566.946,0.0,0,2019-05-28 14:00:10.000,125,2019-05-28 14:09:36.303,0.25,90,0,-90,0,1
1,0,16.252,0,90,1,0.25,2,3,0.0,1.0,12,48.0,20.0,3,0.763,1.0,19.070999999999998,0.0,0,2019-05-29 08:42:00.000,100,2019-05-29 08:42:16.252,0.25,-90,-180,90,-180,1
3,0,32.847,0,90,1,0.25,2,9,0.0,1.0,6,48.0,20.0,9,0.888,1.0,33.066,0.15,1,2019-05-29 08:42:00.000,100,2019-05-29 08:42:32.847,0.25,-90,0,-90,-180,1
4,0,37.556,1,90,1,0.25,2,3,0.0,1.0,12,48.0,20.0,3,0.701,0.0,39.088,0.15,1,2019-05-29 08:42:00.000,100,2019-05-29 08:42:37.556,0.25,90,-180,90,0,1
5,0,42.696000000000005,0,90,1,0.25,2,9,0.0,1.0,6,48.0,20.0,9,0.826,0.0,45.298,0.0,0,2019-05-29 08:42:00.000,100,2019-05-29 08:42:42.696,0.25,90,0,-90,0,1
8,0,64.593,1,90,1,0.25,2,9,0.0,1.0,6,48.0,20.0,9,0.951,1.0,65.59899999999999,0.15,1,2019-05-29 08:42:00.000,100,2019-05-29 08:43:04.593,0.25,-90,0,-90,-180,1
9,0,67.156,0,90,1,0.25,2,9,0.0,1.0,6,48.0,20.0,9,0.701,1.0,68.741,0.15,1,2019-05-29 08:42:00.000,100,2019-05-29 08:43:07.156,0.25,-90,0,-90,-180,1
10,0,73.248,0,90,1,0.25,2,9,0.0,1.0,6,48.0,20.0,9,0.951,1.0,73.833,0.15,1,2019-05-29 08:42:00.000,100,2019-05-29 08:43:13.248,0.25,-90,0,-90,-180,1
11,0,77.439,0,90,1,0.25,2,3,0.0,1.0,12,48.0,20.0,3,0.826,1.0,78.873,0.0,0,2019-05-29 08:42:00.000,100,2019-05-29 08:43:17.439,0.25,-90,-180,90,-180,1
13,0,90.147,0,90,1,0.25,2,9,0.0,1.0,6,48.0,20.0,9,0.763,1.0,90.48899999999999,0.15,1,2019-05-29 08:42:00.000,100,2019-05-29 08:43:30.147,0.25,-90,0,-90,-180,1
14,0,94.473,0,90,1,0.25,2,3,0.0,1.0,12,48.0,20.0,3,0.888,0.0,94.834,0.15,1,2019-05-29 08:42:00.000,100,2019-05-29 08:43:34.473,0.25,90,-180,90,0,1
15,0,100.256,1,90,1,0.25,2,9,0.0,1.0,6,48.0,20.0,9,0.951,1.0,100.579,0.15,1,2019-05-29 08:42:00.000,100,2019-05-29 08:43:40.256,0.25,-90,0,-90,-180,1
16,0,102.135,0,90,1,0.25,2,3,0.0,1.0,12,48.0,20.0,3,0.826,0.0,104.385,0.15,1,2019-05-29 08:42:00.000,100,2019-05-29 08:43:42.135,0.25,90,-180,90,0,1
17,0,109.538,1,90,1,0.25,2,9,0.0,1.0,6,48.0,20.0,9,0.888,1.0,109.895,0.15,1,2019-05-29 08:42:00.000,100,2019-05-29 08:43:49.538,0.25,-90,0,-90,-180,1
18,0,111.334,0,90,1,0.25,2,3,0.0,1.0,12,48.0,20.0,3,0.763,0.0,113.21600000000001,0.15,1,2019-05-29 08:42:00.000,100,2019-05-29 08:43:51.334,0.25,90,-180,90,0,1
19,0,117.605,1,90,1,0.25,2,3,0.0,1.0,12,48.0,20.0,3,0.701,0.0,119.15799999999999,0.15,1,2019-05-29 08:42:00.000,100,2019-05-29 08:43:57.605,0.25,90,-180,90,0,1
20,0,120.65299999999999,0,90,1,0.25,2,3,0.0,1.0,12,48.0,20.0,3,0.826,0.0,121.304,0.15,1,2019-05-29 08:42:00.000,100,2019-05-29 08:44:00.653,0.25,90,-180,90,0,1
21,0,126.70299999999999,1,90,1,0.25,2,3,0.0,1.0,12,48.0,20.0,3,0.951,0.0,128.295,0.15,1,2019-05-29 08:42:00.000,100,2019-05-29 08:44:06.703,0.25,90,-180,90,0,1
22,0,129.88,0,90,1,0.25,2,9,0.0,1.0,6,48.0,20.0,9,0.701,0.0,132.10399999999998,0.0,0,2019-05-29 08:42:00.000,100,2019-05-29 08:44:09.880,0.25,90,0,-90,0,1
24,0,140.137,0,90,1,0.25,2,3,0.0,1.0,12,48.0,20.0,3,0.763,1.0,142.158,0.0,0,2019-05-29 08:42:00.000,100,2019-05-29 08:44:20.137,0.25,-90,-180,90,-180,1
26,0,159.141,0,90,1,0.25,2,9,0.0,1.0,6,48.0,20.0,9,0.888,1.0,159.298,0.15,1,2019-05-29 08:42:00.000,100,2019-05-29 08:44:39.141,0.25,-90,0,-90,-180,1
27,0,165.49099999999999,0,90,1,0.25,2,3,0.0,1.0,12,48.0,20.0,3,0.763,1.0,166.52700000000002,0.0,0,2019-05-29 08:42:00.000,100,2019-05-29 08:44:45.491,0.25,-90,-180,90,-180,1
29,0,185.52900000000002,1,90,1,0.25,2,3,0.0,1.0,12,48.0,20.0,3,0.826,0.0,187.025,0.15,1,2019-05-29 08:42:00.000,100,2019-05-29 08:45:05.529,0.25,90,-180,90,0,1
30,0,188.61,0,90,1,0.25,2,9,0.0,1.0,6,48.0,20.0,9,0.888,0.0,191.018,0.0,0,2019-05-29 08:42:00.000,100,2019-05-29 08:45:08.610,0.25,90,0,-90,0,1
32,0,202.71099999999998,0,90,1,0.25,2,3,0.0,1.0,12,48.0,20.0,3,0.951,1.0,203.42700000000002,0.0,0,2019-05-29 08:42:00.000,100,2019-05-29 08:45:22.711,0.25,-90,-180,90,-180,1
34,0,212.18599999999998,0,90,1,0.25,2,9,0.0,1.0,6,48.0,20.0,9,0.701,0.0,215.10299999999998,0.0,0,2019-05-29 08:42:00.000,100,2019-05-29 08:45:32.186,0.25,90,0,-90,0,1
36,0,227.563,0,90,1,0.25,2,9,0.0,1.0,6,48.0,20.0,9,0.826,1.0,228.141,0.15,1,2019-05-29 08:42:00.000,100,2019-05-29 08:45:47.563,0.25,-90,0,-90,-180,1
37,0,231.87099999999998,0,90,1,0.25,2,9,0.0,1.0,6,48.0,20.0,9,0.763,1.0,233.206,0.15,1,2019-05-29 08:42:00.000,100,2019-05-29 08:45:51.871,0.25,-90,0,-90,-180,1
38,0,238.021,1,90,1,0.25,2,9,0.0,1.0,6,48.0,20.0,9,0.951,1.0,238.255,0.15,1,2019-05-29 08:42:00.000,100,2019-05-29 08:45:58.021,0.25,-90,0,-90,-180,1
39,0,243.16099999999997,0,90,1,0.25,2,9,0.0,1.0,6,48.0,20.0,9,0.701,1.0,243.74099999999999,0.15,1,2019-05-29 08:42:00.000,100,2019-05-29 08:46:03.161,0.25,-90,0,-90,-180,1
40,0,250.40400000000002,0,90,1,0.25,2,9,0.0,1.0,6,48.0,20.0,9,0.888,1.0,250.824,0.15,1,2019-05-29 08:42:00.000,100,2019-05-29 08:46:10.404,0.25,-90,0,-90,-180,1
41,0,254.838,0,90,1,0.25,2,9,0.0,1.0,6,48.0,20.0,9,0.951,1.0,255.713,0.15,1,2019-05-29 08:42:00.000,100,2019-05-29 08:46:14.838,0.25,-90,0,-90,-180,1
42,0,261.139,1,90,1,0.25,2,9,0.0,1.0,6,48.0,20.0,9,0.826,1.0,261.58,0.15,1,2019-05-29 08:42:00.000,100,2019-05-29 08:46:21.139,0.25,-90,0,-90,-180,1
43,0,263.073,1,90,1,0.25,2,3,0.0,1.0,12,48.0,20.0,3,0.701,0.0,266.781,0.15,1,2019-05-29 08:42:00.000,100,2019-05-29 08:46:23.073,0.25,90,-180,90,0,1
44,0,268.603,0,90,1,0.25,2,9,0.0,1.0,6,48.0,20.0,9,0.888,0.0,271.79400000000004,0.0,0,2019-05-29 08:42:00.000,100,2019-05-29 08:46:28.603,0.25,90,0,-90,0,1
46,0,284.671,0,90,1,0.25,2,3,0.0,1.0,12,48.0,20.0,3,0.763,1.0,285.737,0.0,0,2019-05-29 08:42:00.000,100,2019-05-29 08:46:44.671,0.25,-90,-180,90,-180,1
48,0,297.381,0,90,1,0.25,2,3,0.0,1.0,12,48.0,20.0,3,0.826,0.0,299.942,0.15,1,2019-05-29 08:42:00.000,100,2019-05-29 08:46:57.381,0.25,90,-180,90,0,1
49,0,304.985,0,90,1,0.25,2,3,0.0,1.0,12,48.0,20.0,3,0.951,0.0,305.71299999999997,0.15,1,2019-05-29 08:42:00.000,100,2019-05-29 08:47:04.985,0.25,90,-180,90,0,1
50,0,313.149,1,90,1,0.25,2,3,0.0,1.0,12,48.0,20.0,3,0.888,0.0,314.245,0.15,1,2019-05-29 08:42:00.000,100,2019-05-29 08:47:13.149,0.25,90,-180,90,0,1
51,0,315.601,1,90,1,0.25,2,3,0.0,1.0,12,48.0,20.0,3,0.701,0.0,319.855,0.15,1,2019-05-29 08:42:00.000,100,2019-05-29 08:47:15.601,0.25,90,-180,90,0,1
52,0,321.328,0,90,1,0.25,2,3,0.0,1.0,12,48.0,20.0,3,0.763,0.0,324.343,0.15,1,2019-05-29 08:42:00.000,100,2019-05-29 08:47:21.328,0.25,90,-180,90,0,1
53,0,329.918,0,90,1,0.25,2,9,0.0,1.0,6,48.0,20.0,9,0.888,1.0,330.278,0.15,1,2019-05-29 08:42:00.000,100,2019-05-29 08:47:29.918,0.25,-90,0,-90,-180,1
54,0,334.249,0,90,1,0.25,2,3,0.0,1.0,12,48.0,20.0,3,0.951,0.0,334.441,0.15,1,2019-05-29 08:42:00.000,100,2019-05-29 08:47:34.249,0.25,90,-180,90,0,1
55,0,339.273,0,90,1,0.25,2,3,0.0,1.0,12,48.0,20.0,3,0.763,1.0,339.793,0.0,0,2019-05-29 08:42:00.000,100,2019-05-29 08:47:39.273,0.25,-90,-180,90,-180,1
57,0,350.134,1,90,1,0.25,2,3,0.0,1.0,12,48.0,20.0,3,0.701,0.0,352.33099999999996,0.15,1,2019-05-29 08:42:00.000,100,2019-05-29 08:47:50.134,0.25,90,-180,90,0,1
58,0,353.985,1,90,1,0.25,2,3,0.0,1.0,12,48.0,20.0,3,0.826,0.0,356.64300000000003,0.15,1,2019-05-29 08:42:00.000,100,2019-05-29 08:47:53.985,0.25,90,-180,90,0,1
59,0,358.106,0,90,1,0.25,2,9,0.0,1.0,6,48.0,20.0,9,0.763,0.0,360.945,0.0,0,2019-05-29 08:42:00.000,100,2019-05-29 08:47:58.106,0.25,90,0,-90,0,1
61,0,370.894,1,90,1,0.25,2,9,0.0,1.0,6,48.0,20.0,9,0.826,1.0,371.626,0.15,1,2019-05-29 08:42:00.000,100,2019-05-29 08:48:10.894,0.25,-90,0,-90,-180,1
62,0,373.095,0,90,1,0.25,2,3,0.0,1.0,12,48.0,20.0,3,0.701,1.0,375.108,0.0,0,2019-05-29 08:42:00.000,100,2019-05-29 08:48:13.095,0.25,-90,-180,90,-180,1
64,0,383.103,0,90,1,0.25,2,9,0.0,1.0,6,48.0,20.0,9,0.951,0.0,385.37300000000005,0.0,0,2019-05-29 08:42:00.000,100,2019-05-29 08:48:23.103,0.25,90,0,-90,0,1
66,0,393.005,0,90,1,0.25,2,9,0.0,1.0,6,48.0,20.0,9,0.888,1.0,394.796,0.15,1,2019-05-29 08:42:00.000,100,2019-05-29 08:48:33.005,0.25,-90,0,-90,-180,1
67,0,399.019,1,90,1,0.25,2,3,0.0,1.0,12,48.0,20.0,3,0.763,0.0,401.647,0.15,1,2019-05-29 08:42:00.000,100,2019-05-29 08:48:39.019,0.25,90,-180,90,0,1
68,0,403.527,0,90,1,0.25,2,9,0.0,1.0,6,48.0,20.0,9,0.951,0.0,406.233,0.0,0,2019-05-29 08:42:00.000,100,2019-05-29 08:48:43.527,0.25,90,0,-90,0,1
70,0,417.525,1,90,1,0.25,2,9,0.0,1.0,6,48.0,20.0,9,0.701,1.0,418.55199999999996,0.15,1,2019-05-29 08:42:00.000,100,2019-05-29 08:48:57.525,0.25,-90,0,-90,-180,1
71,0,423.728,0,90,1,0.25,2,9,0.0,1.0,6,48.0,20.0,9,0.888,0.0,424.34,0.0,0,2019-05-29 08:42:00.000,100,2019-05-29 08:49:03.728,0.25,90,0,-90,0,1
73,0,436.715,1,90,1,0.25,2,9,0.0,1.0,6,48.0,20.0,9,0.826,1.0,437.31199999999995,0.15,1,2019-05-29 08:42:00.000,100,2019-05-29 08:49:16.715,0.25,-90,0,-90,-180,1
74,0,438.74199999999996,0,90,1,0.25,2,3,0.0,1.0,12,48.0,20.0,3,0.701,1.0,441.723,0.0,0,2019-05-29 08:42:00.000,100,2019-05-29 08:49:18.742,0.25,-90,-180,90,-180,1
76,0,453.01,0,90,1,0.25,2,3,0.0,1.0,12,48.0,20.0,3,0.763,0.0,454.459,0.15,1,2019-05-29 08:42:00.000,100,2019-05-29 08:49:33.010,0.25,90,-180,90,0,1
77,0,459.09,1,90,1,0.25,2,9,0.0,1.0,6,48.0,20.0,9,0.826,1.0,459.68300000000005,0.15,1,2019-05-29 08:42:00.000,100,2019-05-29 08:49:39.090,0.25,-90,0,-90,-180,1
78,0,461.39300000000003,0,90,1,0.25,2,3,0.0,1.0,12,48.0,20.0,3,0.951,0.0,463.344,0.15,1,2019-05-29 08:42:00.000,100,2019-05-29 08:49:41.393,0.25,90,-180,90,0,1
79,0,468.407,1,90,1,0.25,2,3,0.0,1.0,12,48.0,20.0,3,0.888,0.0,468.86400000000003,0.15,1,2019-05-29 08:42:00.000,100,2019-05-29 08:49:48.407,0.25,90,-180,90,0,1
80,0,470.436,0,90,1,0.25,2,9,0.0,1.0,6,48.0,20.0,9,0.888,0.0,472.18699999999995,0.0,0,2019-05-29 08:42:00.000,100,2019-05-29 08:49:50.436,0.25,90,0,-90,0,1
82,0,480.865,0,90,1,0.25,2,3,0.0,1.0,12,48.0,20.0,3,0.763,0.0,481.01099999999997,0.15,1,2019-05-29 08:42:00.000,100,2019-05-29 08:50:00.865,0.25,90,-180,90,0,1
83,0,484.85699999999997,0,90,1,0.25,2,3,0.0,1.0,12,48.0,20.0,3,0.701,0.0,485.51800000000003,0.15,1,2019-05-29 08:42:00.000,100,2019-05-29 08:50:04.857,0.25,90,-180,90,0,1
84,0,491.165,1,90,1,0.25,2,3,0.0,1.0,12,48.0,20.0,3,0.826,0.0,491.935,0.15,1,2019-05-29 08:42:00.000,100,2019-05-29 08:50:11.165,0.25,90,-180,90,0,1
85,0,493.61,0,90,1,0.25,2,9,0.0,1.0,6,48.0,20.0,9,0.951,0.0,496.531,0.0,0,2019-05-29 08:42:00.000,100,2019-05-29 08:50:13.610,0.25,90,0,-90,0,1
87,0,511.963,1,90,1,0.25,2,9,0.0,1.0,6,48.0,20.0,9,0.826,1.0,512.9159999999999,0.15,1,2019-05-29 08:42:00.000,100,2019-05-29 08:50:31.963,0.25,-90,0,-90,-180,1
88,0,514.571,1,90,1,0.25,2,3,0.0,1.0,12,48.0,20.0,3,0.888,0.0,516.499,0.15,1,2019-05-29 08:42:00.000,100,2019-05-29 08:50:34.571,0.25,90,-180,90,0,1
89,0,518.113,0,90,1,0.25,2,9,0.0,1.0,6,48.0,20.0,9,0.763,0.0,521.038,0.0,0,2019-05-29 08:42:00.000,100,2019-05-29 08:50:38.113,0.25,90,0,-90,0,1
91,0,531.441,1,90,1,0.25,2,9,0.0,1.0,6,48.0,20.0,9,0.701,1.0,533.562,0.15,1,2019-05-29 08:42:00.000,100,2019-05-29 08:50:51.441,0.25,-90,0,-90,-180,1
92,0,535.497,1,90,1,0.25,2,9,0.0,1.0,6,48.0,20.0,9,0.951,1.0,537.961,0.15,1,2019-05-29 08:42:00.000,100,2019-05-29 08:50:55.497,0.25,-90,0,-90,-180,1
93,0,546.283,1,90,1,0.25,2,3,0.0,1.0,12,48.0,20.0,3,0.701,0.0,547.03,0.15,1,2019-05-29 08:42:00.000,100,2019-05-29 08:51:06.283,0.25,90,-180,90,0,1
94,0,548.4730000000001,0,90,1,0.25,2,9,0.0,1.0,6,48.0,20.0,9,0.763,0.0,551.203,0.0,0,2019-05-29 08:42:00.000,100,2019-05-29 08:51:08.473,0.25,90,0,-90,0,1
96,0,564.346,0,90,1,0.25,2,9,0.0,1.0,6,48.0,20.0,9,0.951,1.0,565.849,0.15,1,2019-05-29 08:42:00.000,100,2019-05-29 08:51:24.346,0.25,-90,0,-90,-180,1
97,0,569.001,0,90,1,0.25,2,9,0.0,1.0,6,48.0,20.0,9,0.826,0.0,569.95,0.0,0,2019-05-29 08:42:00.000,100,2019-05-29 08:51:29.001,0.25,90,0,-90,0,1
99,0,581.7819999999999,1,90,1,0.25,2,3,0.0,1.0,12,48.0,20.0,3,0.888,0.0,584.377,0.15,1,2019-05-29 08:42:00.000,100,2019-05-29 08:51:41.782,0.25,90,-180,90,0,1
100,0,586.596,0,90,1,0.25,2,3,0.0,1.0,12,48.0,20.0,3,0.701,0.0,589.036,0.15,1,2019-05-29 08:42:00.000,100,2019-05-29 08:51:46.596,0.25,90,-180,90,0,1
101,0,593.491,1,90,1,0.25,2,9,0.0,1.0,6,48.0,20.0,9,0.826,1.0,593.748,0.15,1,2019-05-29 08:42:00.000,100,2019-05-29 08:51:53.491,0.25,-90,0,-90,-180,1
102,0,595.3580000000001,1,90,1,0.25,2,3,0.0,1.0,12,48.0,20.0,3,0.951,0.0,597.23,0.15,1,2019-05-29 08:42:00.000,100,2019-05-29 08:51:55.358,0.25,90,-180,90,0,1
103,0,599.136,1,90,1,0.25,2,3,0.0,1.0,12,48.0,20.0,3,0.888,0.0,601.7,0.15,1,2019-05-29 08:42:00.000,100,2019-05-29 08:51:59.136,0.25,90,-180,90,0,1
104,0,603.298,1,90,1,0.25,2,3,0.0,1.0,12,48.0,20.0,3,0.763,0.0,606.075,0.15,1,2019-05-29 08:42:00.000,100,2019-05-29 08:52:03.298,0.25,90,-180,90,0,1
105,0,612.9259999999999,1,90,1,0.25,2,3,0.0,1.0,12,48.0,20.0,3,0.888,0.0,615.012,0.15,1,2019-05-29 08:42:00.000,100,2019-05-29 08:52:12.926,0.25,90,-180,90,0,1
106,0,616.581,0,90,1,0.25,2,9,0.0,1.0,6,48.0,20.0,9,0.763,0.0,619.254,0.0,0,2019-05-29 08:42:00.000,100,2019-05-29 08:52:16.581,0.25,90,0,-90,0,1
108,0,629.631,1,90,1,0.25,2,3,0.0,1.0,12,48.0,20.0,3,0.701,0.0,630.697,0.15,1,2019-05-29 08:42:00.000,100,2019-05-29 08:52:29.631,0.25,90,-180,90,0,1
109,0,632.305,0,90,1,0.25,2,3,0.0,1.0,12,48.0,20.0,3,0.951,1.0,634.366,0.0,0,2019-05-29 08:42:00.000,100,2019-05-29 08:52:32.305,0.25,-90,-180,90,-180,1
111,0,644.568,1,90,1,0.25,2,9,0.0,1.0,6,48.0,20.0,9,0.826,1.0,645.624,0.15,1,2019-05-29 08:42:00.000,100,2019-05-29 08:52:44.568,0.25,-90,0,-90,-180,1
112,0,647.317,0,90,1,0.25,2,3,0.0,1.0,12,48.0,20.0,3,0.826,0.0,649.271,0.15,1,2019-05-29 08:42:00.000,100,2019-05-29 08:52:47.317,0.25,90,-180,90,0,1
113,0,653.33,0,90,1,0.25,2,9,0.0,1.0,6,48.0,20.0,9,0.888,0.0,653.862,0.0,0,2019-05-29 08:42:00.000,100,2019-05-29 08:52:53.330,0.25,90,0,-90,0,1
115,0,664.799,1,90,1,0.25,2,3,0.0,1.0,12,48.0,20.0,3,0.951,0.0,667.227,0.15,1,2019-05-29 08:42:00.000,100,2019-05-29 08:53:04.799,0.25,90,-180,90,0,1
116,0,669.052,0,90,1,0.25,2,9,0.0,1.0,6,48.0,20.0,9,0.701,0.0,671.7360000000001,0.0,0,2019-05-29 08:42:00.000,100,2019-05-29 08:53:09.052,0.25,90,0,-90,0,1
118,0,678.113,1,90,1,0.25,2,9,0.0,1.0,6,48.0,20.0,9,0.763,1.0,680.466,0.15,1,2019-05-29 08:42:00.000,100,2019-05-29 08:53:18.113,0.25,-90,0,-90,-180,1
119,0,682.102,1,90,1,0.25,2,9,0.0,1.0,6,48.0,20.0,9,0.951,1.0,683.893,0.15,1,2019-05-29 08:42:00.000,100,2019-05-29 08:53:22.102,0.25,-90,0,-90,-180,1
120,0,685.717,0,90,1,0.25,2,3,0.0,1.0,12,48.0,20.0,3,0.826,0.0,687.7639999999999,0.15,1,2019-05-29 08:42:00.000,100,2019-05-29 08:53:25.717,0.25,90,-180,90,0,1
121,0,693.617,1,90,1,0.25,2,9,0.0,1.0,6,48.0,20.0,9,0.888,1.0,694.2460000000001,0.15,1,2019-05-29 08:42:00.000,100,2019-05-29 08:53:33.617,0.25,-90,0,-90,-180,1
122,0,695.5310000000001,1,90,1,0.25,2,9,0.0,1.0,6,48.0,20.0,9,0.701,1.0,697.602,0.15,1,2019-05-29 08:42:00.000,100,2019-05-29 08:53:35.531,0.25,-90,0,-90,-180,1
123,0,703.3860000000001,0,90,1,0.25,2,3,0.0,1.0,12,48.0,20.0,3,0.763,0.0,705.1030000000001,0.15,1,2019-05-29 08:42:00.000,100,2019-05-29 08:53:43.386,0.25,90,-180,90,0,1
124,0,711.2139999999999,0,90,1,0.25,2,9,0.0,1.0,6,48.0,20.0,9,0.701,1.0,711.72,0.15,1,2019-05-29 08:42:00.000,100,2019-05-29 08:53:51.214,0.25,-90,0,-90,-180,1
125,0,715.8739999999999,0,90,1,0.25,2,3,0.0,1.0,12,48.0,20.0,3,0.763,0.0,716.5830000000001,0.15,1,2019-05-29 08:42:00.000,100,2019-05-29 08:53:55.874,0.25,90,-180,90,0,1
126,0,722.314,0,90,1,0.25,2,9,0.0,1.0,6,48.0,20.0,9,0.951,1.0,723.217,0.15,1,2019-05-29 08:42:00.000,100,2019-05-29 08:54:02.314,0.25,-90,0,-90,-180,1
127,0,726.6289999999999,1,90,1,0.25,2,3,0.0,1.0,12,48.0,20.0,3,0.826,0.0,727.457,0.15,1,2019-05-29 08:42:00.000,100,2019-05-29 08:54:06.629,0.25,90,-180,90,0,1
128,0,729.07,1,90,1,0.25,2,3,0.0,1.0,12,48.0,20.0,3,0.888,0.0,731.216,0.15,1,2019-05-29 08:42:00.000,100,2019-05-29 08:54:09.070,0.25,90,-180,90,0,1
129,0,737.42,1,90,1,0.25,2,9,0.0,1.0,6,48.0,20.0,9,0.951,1.0,738.16,0.15,1,2019-05-29 08:42:00.000,100,2019-05-29 08:54:17.420,0.25,-90,0,-90,-180,1
130,0,739.7260000000001,0,90,1,0.25,2,3,0.0,1.0,12,48.0,20.0,3,0.888,1.0,741.547,0.0,0,2019-05-29 08:42:00.000,100,2019-05-29 08:54:19.726,0.25,-90,-180,90,-180,1
132,0,753.825,0,90,1,0.25,2,9,0.0,1.0,6,48.0,20.0,9,0.826,1.0,754.553,0.15,1,2019-05-29 08:42:00.000,100,2019-05-29 08:54:33.825,0.25,-90,0,-90,-180,1
133,0,758.169,0,90,1,0.25,2,9,0.0,1.0,6,48.0,20.0,9,0.701,0.0,759.2339999999999,0.0,0,2019-05-29 08:42:00.000,100,2019-05-29 08:54:38.169,0.25,90,0,-90,0,1
135,0,769.0169999999999,1,90,1,0.25,2,9,0.0,1.0,6,48.0,20.0,9,0.763,1.0,771.0310000000001,0.15,1,2019-05-29 08:42:00.000,100,2019-05-29 08:54:49.017,0.25,-90,0,-90,-180,1
136,0,776.3789999999999,0,90,1,0.25,2,3,0.0,1.0,12,48.0,20.0,3,0.763,0.0,777.341,0.15,1,2019-05-29 08:42:00.000,100,2019-05-29 08:54:56.379,0.25,90,-180,90,0,1
137,0,782.3810000000001,0,90,1,0.25,2,3,0.0,1.0,12,48.0,20.0,3,0.888,1.0,783.737,0.0,0,2019-05-29 08:42:00.000,100,2019-05-29 08:55:02.381,0.25,-90,-180,90,-180,1
139,0,796.1619999999999,1,90,1,0.25,2,9,0.0,1.0,6,48.0,20.0,9,0.701,1.0,796.4760000000001,0.15,1,2019-05-29 08:42:00.000,100,2019-05-29 08:55:16.162,0.25,-90,0,-90,-180,1
140,0,798.132,1,90,1,0.25,2,3,0.0,1.0,12,48.0,20.0,3,0.826,0.0,799.9010000000001,0.15,1,2019-05-29 08:42:00.000,100,2019-05-29 08:55:18.132,0.25,90,-180,90,0,1
141,0,801.659,0,90,1,0.25,2,3,0.0,1.0,12,48.0,20.0,3,0.951,1.0,804.0930000000001,0.0,0,2019-05-29 08:42:00.000,100,2019-05-29 08:55:21.659,0.25,-90,-180,90,-180,1
143,0,824.923,1,90,1,0.25,2,3,0.0,1.0,12,48.0,20.0,3,0.701,0.0,827.177,0.15,1,2019-05-29 08:42:00.000,100,2019-05-29 08:55:44.923,0.25,90,-180,90,0,1
144,0,828.992,0,90,1,0.25,2,9,0.0,1.0,6,48.0,20.0,9,0.763,0.0,831.7460000000001,0.0,0,2019-05-29 08:42:00.000,100,2019-05-29 08:55:48.992,0.25,90,0,-90,0,1
146,0,839.462,0,90,1,0.25,2,3,0.0,1.0,12,48.0,20.0,3,0.888,1.0,841.669,0.0,0,2019-05-29 08:42:00.000,100,2019-05-29 08:55:59.462,0.25,-90,-180,90,-180,1
149,0,863.802,0,90,1,0.25,2,3,0.0,1.0,12,48.0,20.0,3,0.826,0.0,864.303,0.15,1,2019-05-29 08:42:00.000,100,2019-05-29 08:56:23.802,0.25,90,-180,90,0,1
150,0,869.0219999999999,0,90,1,0.25,2,3,0.0,1.0,12,48.0,20.0,3,0.951,0.0,870.207,0.15,1,2019-05-29 08:42:00.000,100,2019-05-29 08:56:29.022,0.25,90,-180,90,0,1
151,0,874.065,0,90,1,0.25,2,9,0.0,1.0,6,48.0,20.0,9,0.763,0.0,874.6089999999999,0.0,0,2019-05-29 08:42:00.000,100,2019-05-29 08:56:34.065,0.25,90,0,-90,0,1
153,0,882.221,1,90,1,0.25,2,9,0.0,1.0,6,48.0,20.0,9,0.701,1.0,883.4110000000001,0.15,1,2019-05-29 08:42:00.000,100,2019-05-29 08:56:42.221,0.25,-90,0,-90,-180,1
154,0,884.927,0,90,1,0.25,2,3,0.0,1.0,12,48.0,20.0,3,0.888,1.0,887.075,0.0,0,2019-05-29 08:42:00.000,100,2019-05-29 08:56:44.927,0.25,-90,-180,90,-180,1
156,0,895.46,0,90,1,0.25,2,9,0.0,1.0,6,48.0,20.0,9,0.826,0.0,898.5010000000001,0.0,0,2019-05-29 08:42:00.000,100,2019-05-29 08:56:55.460,0.25,90,0,-90,0,1
158,0,910.4,0,90,1,0.25,2,9,0.0,1.0,6,48.0,20.0,9,0.951,1.0,910.7719999999999,0.15,1,2019-05-29 08:42:00.000,100,2019-05-29 08:57:10.400,0.25,-90,0,-90,-180,1
159,0,915.185,0,90,1,0.25,2,9,0.0,1.0,6,48.0,20.0,9,0.701,1.0,915.791,0.15,1,2019-05-29 08:42:00.000,100,2019-05-29 08:57:15.185,0.25,-90,0,-90,-180,1
160,0,918.8789999999999,0,90,1,0.25,2,9,0.0,1.0,6,48.0,20.0,9,0.826,1.0,919.934,0.15,1,2019-05-29 08:42:00.000,100,2019-05-29 08:57:18.879,0.25,-90,0,-90,-180,1
161,0,924.305,0,90,1,0.25,2,3,0.0,1.0,12,48.0,20.0,3,0.888,0.0,924.561,0.15,1,2019-05-29 08:42:00.000,100,2019-05-29 08:57:24.305,0.25,90,-180,90,0,1
162,0,928.095,0,90,1,0.25,2,3,0.0,1.0,12,48.0,20.0,3,0.763,0.0,928.655,0.15,1,2019-05-29 08:42:00.000,100,2019-05-29 08:57:28.095,0.25,90,-180,90,0,1
163,0,936.028,1,90,1,0.25,2,9,0.0,1.0,6,48.0,20.0,9,0.951,1.0,936.512,0.15,1,2019-05-29 08:42:00.000,100,2019-05-29 08:57:36.028,0.25,-90,0,-90,-180,1
164,0,944.466,0,90,1,0.25,2,3,0.0,1.0,12,48.0,20.0,3,0.951,1.0,944.8789999999999,0.0,0,2019-05-29 08:42:00.000,100,2019-05-29 08:57:44.466,0.25,-90,-180,90,-180,1
166,0,956.9730000000001,0,90,1,0.25,2,9,0.0,1.0,6,48.0,20.0,9,0.701,1.0,957.794,0.15,1,2019-05-29 08:42:00.000,100,2019-05-29 08:57:56.973,0.25,-90,0,-90,-180,1
167,0,962.1060000000001,1,90,1,0.25,2,9,0.0,1.0,6,48.0,20.0,9,0.826,1.0,962.9019999999999,0.15,1,2019-05-29 08:42:00.000,100,2019-05-29 08:58:02.106,0.25,-90,0,-90,-180,1
168,0,964.2669999999999,0,90,1,0.25,2,9,0.0,1.0,6,48.0,20.0,9,0.763,1.0,965.678,0.15,1,2019-05-29 08:42:00.000,100,2019-05-29 08:58:04.267,0.25,-90,0,-90,-180,1
169,0,970.4860000000001,0,90,1,0.25,2,3,0.0,1.0,12,48.0,20.0,3,0.888,1.0,971.4810000000001,0.0,0,2019-05-29 08:42:00.000,100,2019-05-29 08:58:10.486,0.25,-90,-180,90,-180,1
171,0,978.4810000000001,1,90,1,0.25,2,3,0.0,1.0,12,48.0,20.0,3,0.951,0.0,980.467,0.15,1,2019-05-29 08:42:00.000,100,2019-05-29 08:58:18.481,0.25,90,-180,90,0,1
172,0,987.86,0,90,1,0.25,2,3,0.0,1.0,12,48.0,20.0,3,0.888,0.0,988.164,0.15,1,2019-05-29 08:42:00.000,100,2019-05-29 08:58:27.860,0.25,90,-180,90,0,1
173,0,993.1460000000001,0,90,1,0.25,2,9,0.0,1.0,6,48.0,20.0,9,0.763,1.0,993.543,0.15,1,2019-05-29 08:42:00.000,100,2019-05-29 08:58:33.146,0.25,-90,0,-90,-180,1
174,0,997.062,1,90,1,0.25,2,9,0.0,1.0,6,48.0,20.0,9,0.826,1.0,997.567,0.15,1,2019-05-29 08:42:00.000,100,2019-05-29 08:58:37.062,0.25,-90,0,-90,-180,1
175,0,1002.932,1,90,1,0.25,2,3,0.0,1.0,12,48.0,20.0,3,0.701,0.0,1003.568,0.15,1,2019-05-29 08:42:00.000,100,2019-05-29 08:58:42.932,0.25,90,-180,90,0,1
176,0,1005.3,0,90,1,0.25,2,9,0.0,1.0,6,48.0,20.0,9,0.951,0.0,1008.0319999999999,0.0,0,2019-05-29 08:42:00.000,100,2019-05-29 08:58:45.300,0.25,90,0,-90,0,1
178,0,1016.505,0,90,1,0.25,2,3,0.0,1.0,12,48.0,20.0,3,0.701,0.0,1016.977,0.15,1,2019-05-29 08:42:00.000,100,2019-05-29 08:58:56.505,0.25,90,-180,90,0,1
179,0,1026.67,0,90,1,0.25,2,3,0.0,1.0,12,48.0,20.0,3,0.826,0.0,1027.499,0.15,1,2019-05-29 08:42:00.000,100,2019-05-29 08:59:06.670,0.25,90,-180,90,0,1
180,0,1031.55,0,90,1,0.25,2,3,0.0,1.0,12,48.0,20.0,3,0.888,0.0,1032.015,0.15,1,2019-05-29 08:42:00.000,100,2019-05-29 08:59:11.550,0.25,90,-180,90,0,1
181,0,1035.787,1,90,1,0.25,2,9,0.0,1.0,6,48.0,20.0,9,0.763,1.0,1036.2730000000001,0.15,1,2019-05-29 08:42:00.000,100,2019-05-29 08:59:15.787,0.25,-90,0,-90,-180,1
182,0,1037.851,0,90,1,0.25,2,9,0.0,1.0,6,48.0,20.0,9,0.701,0.0,1040.197,0.0,0,2019-05-29 08:42:00.000,100,2019-05-29 08:59:17.851,0.25,90,0,-90,0,1
184,0,1051.111,0,90,1,0.25,2,3,0.0,1.0,12,48.0,20.0,3,0.951,0.0,1051.633,0.15,1,2019-05-29 08:42:00.000,100,2019-05-29 08:59:31.111,0.25,90,-180,90,0,1
185,0,1055.962,0,90,1,0.25,2,3,0.0,1.0,12,48.0,20.0,3,0.888,0.0,1056.34,0.15,1,2019-05-29 08:42:00.000,100,2019-05-29 08:59:35.962,0.25,90,-180,90,0,1
186,0,1062.681,1,90,1,0.25,2,3,0.0,1.0,12,48.0,20.0,3,0.826,0.0,1063.69,0.15,1,2019-05-29 08:42:00.000,100,2019-05-29 08:59:42.681,0.25,90,-180,90,0,1
187,0,1065.1589999999999,1,90,1,0.25,2,3,0.0,1.0,12,48.0,20.0,3,0.763,0.0,1067.499,0.15,1,2019-05-29 08:42:00.000,100,2019-05-29 08:59:45.159,0.25,90,-180,90,0,1
188,0,1068.847,0,90,1,0.25,2,9,0.0,1.0,6,48.0,20.0,9,0.701,0.0,1071.633,0.0,0,2019-05-29 08:42:00.000,100,2019-05-29 08:59:48.847,0.25,90,0,-90,0,1
190,0,1079.116,1,90,1,0.25,2,9,0.0,1.0,6,48.0,20.0,9,0.826,1.0,1080.611,0.15,1,2019-05-29 08:42:00.000,100,2019-05-29 08:59:59.116,0.25,-90,0,-90,-180,1
191,0,1086.587,0,90,1,0.25,2,9,0.0,1.0,6,48.0,20.0,9,0.888,1.0,1087.18,0.15,1,2019-05-29 08:42:00.000,100,2019-05-29 09:00:06.587,0.25,-90,0,-90,-180,1
192,0,1090.895,1,90,1,0.25,2,9,0.0,1.0,6,48.0,20.0,9,0.763,1.0,1091.326,0.15,1,2019-05-29 08:42:00.000,100,2019-05-29 09:00:10.895,0.25,-90,0,-90,-180,1
193,0,1093.076,1,90,1,0.25,2,9,0.0,1.0,6,48.0,20.0,9,0.951,1.0,1095.058,0.15,1,2019-05-29 08:42:00.000,100,2019-05-29 09:00:13.076,0.25,-90,0,-90,-180,1
194,0,1096.854,0,90,1,0.25,2,3,0.0,1.0,12,48.0,20.0,3,0.951,1.0,1098.604,0.0,0,2019-05-29 08:42:00.000,100,2019-05-29 09:00:16.854,0.25,-90,-180,90,-180,1
196,0,1111.42,0,90,1,0.25,2,9,0.0,1.0,6,48.0,20.0,9,0.763,0.0,1113.788,0.0,0,2019-05-29 08:42:00.000,100,2019-05-29 09:00:31.420,0.25,90,0,-90,0,1
198,0,1121.787,0,90,1,0.25,2,9,0.0,1.0,6,48.0,20.0,9,0.888,1.0,1123.9089999999999,0.15,1,2019-05-29 08:42:00.000,100,2019-05-29 09:00:41.787,0.25,-90,0,-90,-180,1
199,0,1127.72,0,90,1,0.25,2,9,0.0,1.0,6,48.0,20.0,9,0.701,1.0,1128.335,0.15,1,2019-05-29 08:42:00.000,100,2019-05-29 09:00:47.720,0.25,-90,0,-90,-180,1
200,0,1133.458,0,90,1,0.25,2,9,0.0,1.0,6,48.0,20.0,9,0.826,1.0,1133.673,0.15,1,2019-05-29 08:42:00.000,100,2019-05-29 09:00:53.458,0.25,-90,0,-90,-180,1
201,0,1137.5819999999999,0,90,1,0.25,2,3,0.0,1.0,12,48.0,20.0,3,0.826,1.0,1139.4189999999999,0.0,0,2019-05-29 08:42:00.000,100,2019-05-29 09:00:57.582,0.25,-90,-180,90,-180,1
203,0,1152.384,1,90,1,0.25,2,3,0.0,1.0,12,48.0,20.0,3,0.763,0.0,1153.164,0.15,1,2019-05-29 08:42:00.000,100,2019-05-29 09:01:12.384,0.25,90,-180,90,0,1
204,0,1154.817,0,90,1,0.25,2,3,0.0,1.0,12,48.0,20.0,3,0.888,1.0,1157.338,0.0,0,2019-05-29 08:42:00.000,100,2019-05-29 09:01:14.817,0.25,-90,-180,90,-180,1
207,0,1175.19,1,90,1,0.25,2,3,0.0,1.0,12,48.0,20.0,3,0.701,0.0,1177.675,0.15,1,2019-05-29 08:42:00.000,100,2019-05-29 09:01:35.190,0.25,90,-180,90,0,1
208,0,1179.57,1,90,1,0.25,2,3,0.0,1.0,12,48.0,20.0,3,0.951,0.0,1181.9160000000002,0.15,1,2019-05-29 08:42:00.000,100,2019-05-29 09:01:39.570,0.25,90,-180,90,0,1
209,0,1183.713,0,90,1,0.25,2,9,0.0,1.0,6,48.0,20.0,9,0.888,0.0,1186.336,0.0,0,2019-05-29 08:42:00.000,100,2019-05-29 09:01:43.713,0.25,90,0,-90,0,1
211,0,1197.845,0,90,1,0.25,2,9,0.0,1.0,6,48.0,20.0,9,0.826,1.0,1198.378,0.15,1,2019-05-29 08:42:00.000,100,2019-05-29 09:01:57.845,0.25,-90,0,-90,-180,1
212,0,1203.562,0,90,1,0.25,2,9,0.0,1.0,6,48.0,20.0,9,0.763,1.0,1204.225,0.15,1,2019-05-29 08:42:00.000,100,2019-05-29 09:02:03.562,0.25,-90,0,-90,-180,1
213,0,1208.503,1,90,1,0.25,2,3,0.0,1.0,12,48.0,20.0,3,0.701,0.0,1209.656,0.15,1,2019-05-29 08:42:00.000,100,2019-05-29 09:02:08.503,0.25,90,-180,90,0,1
214,0,1212.714,0,90,1,0.25,2,9,0.0,1.0,6,48.0,20.0,9,0.951,0.0,1214.016,0.0,0,2019-05-29 08:42:00.000,100,2019-05-29 09:02:12.714,0.25,90,0,-90,0,1
216,0,1228.315,1,90,1,0.25,2,9,0.0,1.0,6,48.0,20.0,9,0.888,1.0,1228.767,0.15,1,2019-05-29 08:42:00.000,100,2019-05-29 09:02:28.315,0.25,-90,0,-90,-180,1
217,0,1241.656,0,90,1,0.25,2,9,0.0,1.0,6,48.0,20.0,9,0.951,1.0,1242.348,0.15,1,2019-05-29 08:42:00.000,100,2019-05-29 09:02:41.656,0.25,-90,0,-90,-180,1
218,0,1247.726,0,90,1,0.25,2,9,0.0,1.0,6,48.0,20.0,9,0.763,1.0,1248.943,0.15,1,2019-05-29 08:42:00.000,100,2019-05-29 09:02:47.726,0.25,-90,0,-90,-180,1
219,0,1252.45,0,90,1,0.25,2,9,0.0,1.0,6,48.0,20.0,9,0.826,1.0,1253.532,0.15,1,2019-05-29 08:42:00.000,100,2019-05-29 09:02:52.450,0.25,-90,0,-90,-180,1
220,0,1257.502,0,90,1,0.25,2,3,0.0,1.0,12,48.0,20.0,3,0.701,0.0,1258.531,0.15,1,2019-05-29 08:42:00.000,100,2019-05-29 09:02:57.502,0.25,90,-180,90,0,1
221,0,1263.4560000000001,1,90,1,0.25,2,3,0.0,1.0,12,48.0,20.0,3,0.951,0.0,1265.9769999999999,0.15,1,2019-05-29 08:42:00.000,100,2019-05-29 09:03:03.456,0.25,90,-180,90,0,1
222,0,1267.4389999999999,1,90,1,0.25,2,3,0.0,1.0,12,48.0,20.0,3,0.701,0.0,1270.138,0.15,1,2019-05-29 08:42:00.000,100,2019-05-29 09:03:07.439,0.25,90,-180,90,0,1
223,0,1271.678,0,90,1,0.25,2,3,0.0,1.0,12,48.0,20.0,3,0.888,0.0,1274.671,0.15,1,2019-05-29 08:42:00.000,100,2019-05-29 09:03:11.678,0.25,90,-180,90,0,1
224,0,1279.769,0,90,1,0.25,2,9,0.0,1.0,6,48.0,20.0,9,0.826,0.0,1280.452,0.0,0,2019-05-29 08:42:00.000,100,2019-05-29 09:03:19.769,0.25,90,0,-90,0,1
226,0,1294.493,1,90,1,0.25,2,3,0.0,1.0,12,48.0,20.0,3,0.763,0.0,1295.338,0.15,1,2019-05-29 08:42:00.000,100,2019-05-29 09:03:34.493,0.25,90,-180,90,0,1
227,0,1296.951,1,90,1,0.25,2,3,0.0,1.0,12,48.0,20.0,3,0.763,0.0,1298.5839999999998,0.15,1,2019-05-29 08:42:00.000,100,2019-05-29 09:03:36.951,0.25,90,-180,90,0,1
228,0,1300.163,1,90,1,0.25,2,3,0.0,1.0,12,48.0,20.0,3,0.701,0.0,1303.124,0.15,1,2019-05-29 08:42:00.000,100,2019-05-29 09:03:40.163,0.25,90,-180,90,0,1
229,0,1304.861,0,90,1,0.25,2,3,0.0,1.0,12,48.0,20.0,3,0.888,0.0,1307.1860000000001,0.15,1,2019-05-29 08:42:00.000,100,2019-05-29 09:03:44.861,0.25,90,-180,90,0,1
230,0,1311.1129999999998,1,90,1,0.25,2,3,0.0,1.0,12,48.0,20.0,3,0.951,0.0,1311.701,0.15,1,2019-05-29 08:42:00.000,100,2019-05-29 09:03:51.113,0.25,90,-180,90,0,1
231,0,1313.207,0,90,1,0.25,2,9,0.0,1.0,6,48.0,20.0,9,0.826,0.0,1316.839,0.0,0,2019-05-29 08:42:00.000,100,2019-05-29 09:03:53.207,0.25,90,0,-90,0,1
233,0,1323.332,0,90,1,0.25,2,9,0.0,1.0,6,48.0,20.0,9,0.763,0.0,1326.207,0.0,0,2019-05-29 08:42:00.000,100,2019-05-29 09:04:03.332,0.25,90,0,-90,0,1
235,0,1336.57,0,90,1,0.25,2,3,0.0,1.0,12,48.0,20.0,3,0.826,1.0,1337.924,0.0,0,2019-05-29 08:42:00.000,100,2019-05-29 09:04:16.570,0.25,-90,-180,90,-180,1
237,0,1351.5720000000001,0,90,1,0.25,2,3,0.0,1.0,12,48.0,20.0,3,0.888,0.0,1352.359,0.15,1,2019-05-29 08:42:00.000,100,2019-05-29 09:04:31.572,0.25,90,-180,90,0,1
238,0,1356.3370000000002,0,90,1,0.25,2,9,0.0,1.0,6,48.0,20.0,9,0.951,1.0,1356.901,0.15,1,2019-05-29 08:42:00.000,100,2019-05-29 09:04:36.337,0.25,-90,0,-90,-180,1
239,0,1360.5710000000001,0,90,1,0.25,2,3,0.0,1.0,12,48.0,20.0,3,0.701,0.0,1361.431,0.15,1,2019-05-29 08:42:00.000,100,2019-05-29 09:04:40.571,0.25,90,-180,90,0,1
240,0,1368.796,1,90,1,0.25,2,3,0.0,1.0,12,48.0,20.0,3,0.701,0.0,1369.904,0.15,1,2019-05-29 08:42:00.000,100,2019-05-29 09:04:48.796,0.25,90,-180,90,0,1
241,0,1371.66,0,90,1,0.25,2,9,0.0,1.0,6,48.0,20.0,9,0.888,0.0,1372.989,0.0,0,2019-05-29 08:42:00.000,100,2019-05-29 09:04:51.660,0.25,90,0,-90,0,1
245,0,1394.953,1,90,1,0.25,2,9,0.0,1.0,6,48.0,20.0,9,0.763,1.0,1397.5179999999998,0.15,1,2019-05-29 08:42:00.000,100,2019-05-29 09:05:14.953,0.25,-90,0,-90,-180,1
246,0,1402.18,1,90,1,0.25,2,3,0.0,1.0,12,48.0,20.0,3,0.826,0.0,1402.6729999999998,0.15,1,2019-05-29 08:42:00.000,100,2019-05-29 09:05:22.180,0.25,90,-180,90,0,1
247,0,1404.3329999999999,1,90,1,0.25,2,3,0.0,1.0,12,48.0,20.0,3,0.951,0.0,1406.8239999999998,0.15,1,2019-05-29 08:42:00.000,100,2019-05-29 09:05:24.333,0.25,90,-180,90,0,1
248,0,1408.356,1,90,1,0.25,2,3,0.0,1.0,12,48.0,20.0,3,0.888,0.0,1410.635,0.15,1,2019-05-29 08:42:00.000,100,2019-05-29 09:05:28.356,0.25,90,-180,90,0,1
249,0,1414.264,0,90,1,0.25,2,9,0.0,1.0,6,48.0,20.0,9,0.826,0.0,1415.0410000000002,0.0,0,2019-05-29 08:42:00.000,100,2019-05-29 09:05:34.264,0.25,90,0,-90,0,1
251,0,1424.1760000000002,0,90,1,0.25,2,9,0.0,1.0,6,48.0,20.0,9,0.763,0.0,1424.912,0.0,0,2019-05-29 08:42:00.000,100,2019-05-29 09:05:44.176,0.25,90,0,-90,0,1
253,0,1432.3870000000002,0,90,1,0.25,2,3,0.0,1.0,12,48.0,20.0,3,0.701,1.0,1433.461,0.0,0,2019-05-29 08:42:00.000,100,2019-05-29 09:05:52.387,0.25,-90,-180,90,-180,1
255,0,1442.6589999999999,0,90,1,0.25,2,9,0.0,1.0,6,48.0,20.0,9,0.951,1.0,1443.05,0.15,1,2019-05-29 08:42:00.000,100,2019-05-29 09:06:02.659,0.25,-90,0,-90,-180,1
256,0,1447.7379999999998,1,90,1,0.25,2,9,0.0,1.0,6,48.0,20.0,9,0.763,1.0,1448.069,0.15,1,2019-05-29 08:42:00.000,100,2019-05-29 09:06:07.738,0.25,-90,0,-90,-180,1
257,0,1449.6029999999998,0,90,1,0.25,2,3,0.0,1.0,12,48.0,20.0,3,0.888,0.0,1451.1779999999999,0.15,1,2019-05-29 08:42:00.000,100,2019-05-29 09:06:09.603,0.25,90,-180,90,0,1
258,0,1458.154,0,90,1,0.25,2,3,0.0,1.0,12,48.0,20.0,3,0.701,0.0,1458.649,0.15,1,2019-05-29 08:42:00.000,100,2019-05-29 09:06:18.154,0.25,90,-180,90,0,1
259,0,1464.516,0,90,1,0.25,2,9,0.0,1.0,6,48.0,20.0,9,0.826,1.0,1464.991,0.15,1,2019-05-29 08:42:00.000,100,2019-05-29 09:06:24.516,0.25,-90,0,-90,-180,1
260,0,1469.5829999999999,0,90,1,0.25,2,9,0.0,1.0,6,48.0,20.0,9,0.951,1.0,1470.636,0.15,1,2019-05-29 08:42:00.000,100,2019-05-29 09:06:29.583,0.25,-90,0,-90,-180,1
261,0,1473.6729999999998,0,90,1,0.25,2,9,0.0,1.0,6,48.0,20.0,9,0.701,1.0,1474.068,0.15,1,2019-05-29 08:42:00.000,100,2019-05-29 09:06:33.673,0.25,-90,0,-90,-180,1
262,0,1477.881,1,90,1,0.25,2,3,0.0,1.0,12,48.0,20.0,3,0.951,0.0,1479.021,0.15,1,2019-05-29 08:42:00.000,100,2019-05-29 09:06:37.881,0.25,90,-180,90,0,1
263,0,1480.713,0,90,1,0.25,2,9,0.0,1.0,6,48.0,20.0,9,0.763,0.0,1482.474,0.0,0,2019-05-29 08:42:00.000,100,2019-05-29 09:06:40.713,0.25,90,0,-90,0,1
265,0,1491.3310000000001,1,90,1,0.25,2,9,0.0,1.0,6,48.0,20.0,9,0.826,1.0,1491.69,0.15,1,2019-05-29 08:42:00.000,100,2019-05-29 09:06:51.331,0.25,-90,0,-90,-180,1
266,0,1493.48,0,90,1,0.25,2,9,0.0,1.0,6,48.0,20.0,9,0.888,0.0,1495.7120000000002,0.0,0,2019-05-29 08:42:00.000,100,2019-05-29 09:06:53.480,0.25,90,0,-90,0,1
268,0,1507.5839999999998,1,90,1,0.25,2,9,0.0,1.0,6,48.0,20.0,9,0.763,1.0,1509.47,0.15,1,2019-05-29 08:42:00.000,100,2019-05-29 09:07:07.584,0.25,-90,0,-90,-180,1
269,0,1511.082,0,90,1,0.25,2,9,0.0,1.0,6,48.0,20.0,9,0.826,1.0,1513.003,0.15,1,2019-05-29 08:42:00.000,100,2019-05-29 09:07:11.082,0.25,-90,0,-90,-180,1
270,0,1516.9879999999998,0,90,1,0.25,2,3,0.0,1.0,12,48.0,20.0,3,0.951,0.0,1517.509,0.15,1,2019-05-29 08:42:00.000,100,2019-05-29 09:07:16.988,0.25,90,-180,90,0,1
271,0,1520.7920000000001,0,90,1,0.25,2,3,0.0,1.0,12,48.0,20.0,3,0.701,0.0,1521.4489999999998,0.15,1,2019-05-29 08:42:00.000,100,2019-05-29 09:07:20.792,0.25,90,-180,90,0,1
272,0,1525.84,0,90,1,0.25,2,3,0.0,1.0,12,48.0,20.0,3,0.888,0.0,1526.287,0.15,1,2019-05-29 08:42:00.000,100,2019-05-29 09:07:25.840,0.25,90,-180,90,0,1
273,0,1529.997,1,90,1,0.25,2,3,0.0,1.0,12,48.0,20.0,3,0.888,0.0,1530.793,0.15,1,2019-05-29 08:42:00.000,100,2019-05-29 09:07:29.997,0.25,90,-180,90,0,1
274,0,1532.476,0,90,1,0.25,2,9,0.0,1.0,6,48.0,20.0,9,0.701,0.0,1535.2939999999999,0.0,0,2019-05-29 08:42:00.000,100,2019-05-29 09:07:32.476,0.25,90,0,-90,0,1
276,0,1544.342,0,90,1,0.25,2,3,0.0,1.0,12,48.0,20.0,3,0.826,1.0,1546.4170000000001,0.0,0,2019-05-29 08:42:00.000,100,2019-05-29 09:07:44.342,0.25,-90,-180,90,-180,1
278,0,1561.378,1,90,1,0.25,2,3,0.0,1.0,12,48.0,20.0,3,0.951,0.0,1563.024,0.15,1,2019-05-29 08:42:00.000,100,2019-05-29 09:08:01.378,0.25,90,-180,90,0,1
279,0,1564.646,1,90,1,0.25,2,3,0.0,1.0,12,48.0,20.0,3,0.763,0.0,1566.8529999999998,0.15,1,2019-05-29 08:42:00.000,100,2019-05-29 09:08:04.646,0.25,90,-180,90,0,1
280,0,1568.361,0,90,1,0.25,2,3,0.0,1.0,12,48.0,20.0,3,0.701,0.0,1570.328,0.15,1,2019-05-29 08:42:00.000,100,2019-05-29 09:08:08.361,0.25,90,-180,90,0,1
281,0,1574.059,1,90,1,0.25,2,3,0.0,1.0,12,48.0,20.0,3,0.888,0.0,1574.757,0.15,1,2019-05-29 08:42:00.000,100,2019-05-29 09:08:14.059,0.25,90,-180,90,0,1
282,0,1576.3770000000002,0,90,1,0.25,2,9,0.0,1.0,6,48.0,20.0,9,0.763,0.0,1577.987,0.0,0,2019-05-29 08:42:00.000,100,2019-05-29 09:08:16.377,0.25,90,0,-90,0,1
284,0,1592.4620000000002,0,90,1,0.25,2,9,0.0,1.0,6,48.0,20.0,9,0.951,1.0,1592.872,0.15,1,2019-05-29 08:42:00.000,100,2019-05-29 09:08:32.462,0.25,-90,0,-90,-180,1
285,0,1597.165,1,90,1,0.25,2,9,0.0,1.0,6,48.0,20.0,9,0.826,1.0,1598.5970000000002,0.15,1,2019-05-29 08:42:00.000,100,2019-05-29 09:08:37.165,0.25,-90,0,-90,-180,1
286,0,1599.98,0,90,1,0.25,2,9,0.0,1.0,6,48.0,20.0,9,0.701,1.0,1601.5910000000001,0.15,1,2019-05-29 08:42:00.000,100,2019-05-29 09:08:39.980,0.25,-90,0,-90,-180,1
287,0,1611.885,1,90,1,0.25,2,9,0.0,1.0,6,48.0,20.0,9,0.951,1.0,1612.737,0.15,1,2019-05-29 08:42:00.000,100,2019-05-29 09:08:51.885,0.25,-90,0,-90,-180,1
288,0,1614.3220000000001,0,90,1,0.25,2,9,0.0,1.0,6,48.0,20.0,9,0.763,1.0,1615.955,0.15,1,2019-05-29 08:42:00.000,100,2019-05-29 09:08:54.322,0.25,-90,0,-90,-180,1
289,0,1620.734,0,90,1,0.25,2,3,0.0,1.0,12,48.0,20.0,3,0.826,0.0,1621.1570000000002,0.15,1,2019-05-29 08:42:00.000,100,2019-05-29 09:09:00.734,0.25,90,-180,90,0,1
1,0,180.817,0,90,1,0.25,2,9,0.0,1.0,6,48.0,20.0,9,0.951,0.0,184.16,0.0,0,2019-05-29 14:46:23.000,155,2019-05-29 14:49:23.817,0.25,90,0,-90,0,1
4,0,200.00400000000002,0,90,1,0.25,2,3,0.0,1.0,12,48.0,20.0,3,0.826,0.0,200.821,0.15,1,2019-05-29 14:46:23.000,155,2019-05-29 14:49:43.004,0.25,90,-180,90,0,1
5,0,208.03599999999997,0,90,1,0.25,2,9,0.0,1.0,6,48.0,20.0,9,0.701,1.0,208.68900000000002,0.15,1,2019-05-29 14:46:23.000,155,2019-05-29 14:49:51.036,0.25,-90,0,-90,-180,1
6,0,218.668,0,90,1,0.25,2,9,0.0,1.0,6,48.0,20.0,9,0.763,1.0,218.83900000000003,0.15,1,2019-05-29 14:46:23.000,155,2019-05-29 14:50:01.668,0.25,-90,0,-90,-180,1
7,0,225.108,0,90,1,0.25,2,9,0.0,1.0,6,48.0,20.0,9,0.888,1.0,225.428,0.15,1,2019-05-29 14:46:23.000,155,2019-05-29 14:50:08.108,0.25,-90,0,-90,-180,1
8,0,229.334,0,90,1,0.25,2,9,0.0,1.0,6,48.0,20.0,9,0.763,1.0,229.69099999999997,0.15,1,2019-05-29 14:46:23.000,155,2019-05-29 14:50:12.334,0.25,-90,0,-90,-180,1
9,0,235.34400000000002,1,90,1,0.25,2,3,0.0,1.0,12,48.0,20.0,3,0.951,0.0,236.102,0.15,1,2019-05-29 14:46:23.000,155,2019-05-29 14:50:18.344,0.25,90,-180,90,0,1
10,0,244.59099999999998,1,90,1,0.25,2,9,0.0,1.0,6,48.0,20.0,9,0.826,1.0,244.96200000000002,0.15,1,2019-05-29 14:46:23.000,155,2019-05-29 14:50:27.591,0.25,-90,0,-90,-180,1
11,0,254.687,1,90,1,0.25,2,9,0.0,1.0,6,48.0,20.0,9,0.888,1.0,255.425,0.15,1,2019-05-29 14:46:23.000,155,2019-05-29 14:50:37.687,0.25,-90,0,-90,-180,1
12,0,256.79400000000004,0,90,1,0.25,2,9,0.0,1.0,6,48.0,20.0,9,0.701,0.0,259.44,0.0,0,2019-05-29 14:46:23.000,155,2019-05-29 14:50:39.794,0.25,90,0,-90,0,1
14,0,268.79400000000004,0,90,1,0.25,2,3,0.0,1.0,12,48.0,20.0,3,0.951,0.0,271.384,0.15,1,2019-05-29 14:46:23.000,155,2019-05-29 14:50:51.794,0.25,90,-180,90,0,1
15,0,276.69599999999997,0,90,1,0.25,2,9,0.0,1.0,6,48.0,20.0,9,0.763,1.0,277.248,0.15,1,2019-05-29 14:46:23.000,155,2019-05-29 14:50:59.696,0.25,-90,0,-90,-180,1
16,0,283.573,1,90,1,0.25,2,3,0.0,1.0,12,48.0,20.0,3,0.888,0.0,284.05400000000003,0.15,1,2019-05-29 14:46:23.000,155,2019-05-29 14:51:06.573,0.25,90,-180,90,0,1
17,0,285.623,0,90,1,0.25,2,3,0.0,1.0,12,48.0,20.0,3,0.701,1.0,287.97900000000004,0.0,0,2019-05-29 14:46:23.000,155,2019-05-29 14:51:08.623,0.25,-90,-180,90,-180,1
19,0,295.413,0,90,1,0.25,2,3,0.0,1.0,12,48.0,20.0,3,0.826,1.0,298.283,0.0,0,2019-05-29 14:46:23.000,155,2019-05-29 14:51:18.413,0.25,-90,-180,90,-180,1
22,0,314.738,1,90,1,0.25,2,3,0.0,1.0,12,48.0,20.0,3,0.826,0.0,316.58799999999997,0.15,1,2019-05-29 14:46:23.000,155,2019-05-29 14:51:37.738,0.25,90,-180,90,0,1
23,0,317.991,0,90,1,0.25,2,9,0.0,1.0,6,48.0,20.0,9,0.701,0.0,320.54,0.0,0,2019-05-29 14:46:23.000,155,2019-05-29 14:51:40.991,0.25,90,0,-90,0,1
25,0,328.37699999999995,0,90,1,0.25,2,3,0.0,1.0,12,48.0,20.0,3,0.763,1.0,330.10900000000004,0.0,0,2019-05-29 14:46:23.000,155,2019-05-29 14:51:51.377,0.25,-90,-180,90,-180,1
28,0,352.795,1,90,1,0.25,2,3,0.0,1.0,12,48.0,20.0,3,0.888,0.0,354.50199999999995,0.15,1,2019-05-29 14:46:23.000,155,2019-05-29 14:52:15.795,0.25,90,-180,90,0,1
29,0,356.12300000000005,1,90,1,0.25,2,3,0.0,1.0,12,48.0,20.0,3,0.951,0.0,358.092,0.15,1,2019-05-29 14:46:23.000,155,2019-05-29 14:52:19.123,0.25,90,-180,90,0,1
30,0,359.631,0,90,1,0.25,2,9,0.0,1.0,6,48.0,20.0,9,0.951,0.0,362.556,0.0,0,2019-05-29 14:46:23.000,155,2019-05-29 14:52:22.631,0.25,90,0,-90,0,1
33,0,381.866,1,90,1,0.25,2,3,0.0,1.0,12,48.0,20.0,3,0.763,0.0,385.923,0.15,1,2019-05-29 14:46:23.000,155,2019-05-29 14:52:44.866,0.25,90,-180,90,0,1
34,0,387.55400000000003,1,90,1,0.25,2,3,0.0,1.0,12,48.0,20.0,3,0.826,0.0,390.911,0.15,1,2019-05-29 14:46:23.000,155,2019-05-29 14:52:50.554,0.25,90,-180,90,0,1
35,0,392.273,0,90,1,0.25,2,9,0.0,1.0,6,48.0,20.0,9,0.701,0.0,394.413,0.0,0,2019-05-29 14:46:23.000,155,2019-05-29 14:52:55.273,0.25,90,0,-90,0,1
37,0,404.894,0,90,1,0.25,2,9,0.0,1.0,6,48.0,20.0,9,0.888,0.0,404.95099999999996,0.0,0,2019-05-29 14:46:23.000,155,2019-05-29 14:53:07.894,0.25,90,0,-90,0,1
39,0,412.01099999999997,0,90,1,0.25,2,3,0.0,1.0,12,48.0,20.0,3,0.763,0.0,413.86400000000003,0.15,1,2019-05-29 14:46:23.000,155,2019-05-29 14:53:15.011,0.25,90,-180,90,0,1
40,0,419.78,0,90,1,0.25,2,9,0.0,1.0,6,48.0,20.0,9,0.888,1.0,420.092,0.15,1,2019-05-29 14:46:23.000,155,2019-05-29 14:53:22.780,0.25,-90,0,-90,-180,1
41,0,427.83099999999996,0,90,1,0.25,2,3,0.0,1.0,12,48.0,20.0,3,0.826,0.0,428.23800000000006,0.15,1,2019-05-29 14:46:23.000,155,2019-05-29 14:53:30.831,0.25,90,-180,90,0,1
42,0,434.449,1,90,1,0.25,2,3,0.0,1.0,12,48.0,20.0,3,0.701,0.0,435.22,0.15,1,2019-05-29 14:46:23.000,155,2019-05-29 14:53:37.449,0.25,90,-180,90,0,1
43,0,436.745,0,90,1,0.25,2,9,0.0,1.0,6,48.0,20.0,9,0.951,0.0,438.485,0.0,0,2019-05-29 14:46:23.000,155,2019-05-29 14:53:39.745,0.25,90,0,-90,0,1
45,0,449.564,0,90,1,0.25,2,3,0.0,1.0,12,48.0,20.0,3,0.763,0.0,449.593,0.15,1,2019-05-29 14:46:23.000,155,2019-05-29 14:53:52.564,0.25,90,-180,90,0,1
46,0,455.621,0,90,1,0.25,2,9,0.0,1.0,6,48.0,20.0,9,0.701,1.0,456.039,0.15,1,2019-05-29 14:46:23.000,155,2019-05-29 14:53:58.621,0.25,-90,0,-90,-180,1
47,0,460.976,0,90,1,0.25,2,9,0.0,1.0,6,48.0,20.0,9,0.951,0.0,461.309,0.0,0,2019-05-29 14:46:23.000,155,2019-05-29 14:54:03.976,0.25,90,0,-90,0,1
49,0,473.14599999999996,0,90,1,0.25,2,3,0.0,1.0,12,48.0,20.0,3,0.888,0.0,473.195,0.15,1,2019-05-29 14:46:23.000,155,2019-05-29 14:54:16.146,0.25,90,-180,90,0,1
50,0,480.73900000000003,0,90,1,0.25,2,3,0.0,1.0,12,48.0,20.0,3,0.826,0.0,481.111,0.15,1,2019-05-29 14:46:23.000,155,2019-05-29 14:54:23.739,0.25,90,-180,90,0,1
51,0,488.14300000000003,1,90,1,0.25,2,9,0.0,1.0,6,48.0,20.0,9,0.951,1.0,488.29400000000004,0.15,1,2019-05-29 14:46:23.000,155,2019-05-29 14:54:31.143,0.25,-90,0,-90,-180,1
52,0,489.733,1,90,1,0.25,2,3,0.0,1.0,12,48.0,20.0,3,0.763,0.0,492.167,0.15,1,2019-05-29 14:46:23.000,155,2019-05-29 14:54:32.733,0.25,90,-180,90,0,1
53,0,493.541,0,90,1,0.25,2,9,0.0,1.0,6,48.0,20.0,9,0.826,0.0,496.19300000000004,0.0,0,2019-05-29 14:46:23.000,155,2019-05-29 14:54:36.541,0.25,90,0,-90,0,1
55,0,507.00199999999995,0,90,1,0.25,2,9,0.0,1.0,6,48.0,20.0,9,0.701,1.0,507.626,0.15,1,2019-05-29 14:46:23.000,155,2019-05-29 14:54:50.002,0.25,-90,0,-90,-180,1
56,0,511.694,0,90,1,0.25,2,3,0.0,1.0,12,48.0,20.0,3,0.888,0.0,511.684,0.15,1,2019-05-29 14:46:23.000,155,2019-05-29 14:54:54.694,0.25,90,-180,90,0,1
57,0,521.558,1,90,1,0.25,2,9,0.0,1.0,6,48.0,20.0,9,0.888,1.0,521.9069999999999,0.15,1,2019-05-29 14:46:23.000,155,2019-05-29 14:55:04.558,0.25,-90,0,-90,-180,1
58,0,523.387,0,90,1,0.25,2,9,0.0,1.0,6,48.0,20.0,9,0.763,0.0,525.635,0.0,0,2019-05-29 14:46:23.000,155,2019-05-29 14:55:06.387,0.25,90,0,-90,0,1
60,0,537.765,0,90,1,0.25,2,9,0.0,1.0,6,48.0,20.0,9,0.951,1.0,538.0319999999999,0.15,1,2019-05-29 14:46:23.000,155,2019-05-29 14:55:20.765,0.25,-90,0,-90,-180,1
61,0,542.549,0,90,1,0.25,2,9,0.0,1.0,6,48.0,20.0,9,0.701,0.0,544.739,0.0,0,2019-05-29 14:46:23.000,155,2019-05-29 14:55:25.549,0.25,90,0,-90,0,1
63,0,553.7330000000001,0,90,1,0.25,2,9,0.0,1.0,6,48.0,20.0,9,0.826,1.0,555.365,0.15,1,2019-05-29 14:46:23.000,155,2019-05-29 14:55:36.733,0.25,-90,0,-90,-180,1
64,0,559.439,1,90,1,0.25,2,9,0.0,1.0,6,48.0,20.0,9,0.888,1.0,560.595,0.15,1,2019-05-29 14:46:23.000,155,2019-05-29 14:55:42.439,0.25,-90,0,-90,-180,1
65,0,562.0459999999999,0,90,1,0.25,2,3,0.0,1.0,12,48.0,20.0,3,0.763,1.0,563.694,0.0,0,2019-05-29 14:46:23.000,155,2019-05-29 14:55:45.046,0.25,-90,-180,90,-180,1
68,0,575.354,1,90,1,0.25,2,3,0.0,1.0,12,48.0,20.0,3,0.826,0.0,577.927,0.15,1,2019-05-29 14:46:23.000,155,2019-05-29 14:55:58.354,0.25,90,-180,90,0,1
69,0,579.38,1,90,1,0.25,2,3,0.0,1.0,12,48.0,20.0,3,0.701,0.0,582.119,0.15,1,2019-05-29 14:46:23.000,155,2019-05-29 14:56:02.380,0.25,90,-180,90,0,1
70,0,590.556,1,90,1,0.25,2,9,0.0,1.0,6,48.0,20.0,9,0.951,1.0,590.839,0.15,1,2019-05-29 14:46:23.000,155,2019-05-29 14:56:13.556,0.25,-90,0,-90,-180,1
71,0,592.575,0,90,1,0.25,2,3,0.0,1.0,12,48.0,20.0,3,0.888,1.0,594.625,0.0,0,2019-05-29 14:46:23.000,155,2019-05-29 14:56:15.575,0.25,-90,-180,90,-180,1
73,0,603.9069999999999,0,90,1,0.25,2,3,0.0,1.0,12,48.0,20.0,3,0.701,1.0,605.83,0.0,0,2019-05-29 14:46:23.000,155,2019-05-29 14:56:26.907,0.25,-90,-180,90,-180,1
75,0,613.602,0,90,1,0.25,2,3,0.0,1.0,12,48.0,20.0,3,0.951,0.0,616.0169999999999,0.15,1,2019-05-29 14:46:23.000,155,2019-05-29 14:56:36.602,0.25,90,-180,90,0,1
76,0,622.573,0,90,1,0.25,2,3,0.0,1.0,12,48.0,20.0,3,0.826,1.0,624.0880000000001,0.0,0,2019-05-29 14:46:23.000,155,2019-05-29 14:56:45.573,0.25,-90,-180,90,-180,1
78,0,637.202,1,90,1,0.25,2,3,0.0,1.0,12,48.0,20.0,3,0.763,0.0,638.385,0.15,1,2019-05-29 14:46:23.000,155,2019-05-29 14:57:00.202,0.25,90,-180,90,0,1
79,0,639.861,0,90,1,0.25,2,3,0.0,1.0,12,48.0,20.0,3,0.763,0.0,641.121,0.15,1,2019-05-29 14:46:23.000,155,2019-05-29 14:57:02.861,0.25,90,-180,90,0,1
80,0,647.2959999999999,0,90,1,0.25,2,9,0.0,1.0,6,48.0,20.0,9,0.951,1.0,647.865,0.15,1,2019-05-29 14:46:23.000,155,2019-05-29 14:57:10.296,0.25,-90,0,-90,-180,1
81,0,652.185,1,90,1,0.25,2,9,0.0,1.0,6,48.0,20.0,9,0.888,1.0,652.939,0.15,1,2019-05-29 14:46:23.000,155,2019-05-29 14:57:15.185,0.25,-90,0,-90,-180,1
82,0,654.531,1,90,1,0.25,2,9,0.0,1.0,6,48.0,20.0,9,0.826,1.0,656.091,0.15,1,2019-05-29 14:46:23.000,155,2019-05-29 14:57:17.531,0.25,-90,0,-90,-180,1
83,0,657.497,0,90,1,0.25,2,3,0.0,1.0,12,48.0,20.0,3,0.701,0.0,659.426,0.15,1,2019-05-29 14:46:23.000,155,2019-05-29 14:57:20.497,0.25,90,-180,90,0,1
84,0,666.0160000000001,0,90,1,0.25,2,3,0.0,1.0,12,48.0,20.0,3,0.763,0.0,666.1310000000001,0.15,1,2019-05-29 14:46:23.000,155,2019-05-29 14:57:29.016,0.25,90,-180,90,0,1
85,0,670.053,0,90,1,0.25,2,3,0.0,1.0,12,48.0,20.0,3,0.701,0.0,671.187,0.15,1,2019-05-29 14:46:23.000,155,2019-05-29 14:57:33.053,0.25,90,-180,90,0,1
86,0,680.2330000000001,0,90,1,0.25,2,3,0.0,1.0,12,48.0,20.0,3,0.826,0.0,681.451,0.15,1,2019-05-29 14:46:23.000,155,2019-05-29 14:57:43.233,0.25,90,-180,90,0,1
87,0,685.45,1,90,1,0.25,2,9,0.0,1.0,6,48.0,20.0,9,0.951,1.0,685.842,0.15,1,2019-05-29 14:46:23.000,155,2019-05-29 14:57:48.450,0.25,-90,0,-90,-180,1
88,0,687.4169999999999,0,90,1,0.25,2,3,0.0,1.0,12,48.0,20.0,3,0.888,0.0,689.4169999999999,0.15,1,2019-05-29 14:46:23.000,155,2019-05-29 14:57:50.417,0.25,90,-180,90,0,1
89,0,695.577,0,90,1,0.25,2,9,0.0,1.0,6,48.0,20.0,9,0.701,1.0,696.128,0.15,1,2019-05-29 14:46:23.000,155,2019-05-29 14:57:58.577,0.25,-90,0,-90,-180,1
90,0,700.6089999999999,1,90,1,0.25,2,9,0.0,1.0,6,48.0,20.0,9,0.951,1.0,700.7689999999999,0.15,1,2019-05-29 14:46:23.000,155,2019-05-29 14:58:03.609,0.25,-90,0,-90,-180,1
91,0,702.35,0,90,1,0.25,2,3,0.0,1.0,12,48.0,20.0,3,0.888,1.0,704.923,0.0,0,2019-05-29 14:46:23.000,155,2019-05-29 14:58:05.350,0.25,-90,-180,90,-180,1
93,0,715.84,1,90,1,0.25,2,3,0.0,1.0,12,48.0,20.0,3,0.826,0.0,717.065,0.15,1,2019-05-29 14:46:23.000,155,2019-05-29 14:58:18.840,0.25,90,-180,90,0,1
94,0,718.8969999999999,0,90,1,0.25,2,9,0.0,1.0,6,48.0,20.0,9,0.763,0.0,720.409,0.0,0,2019-05-29 14:46:23.000,155,2019-05-29 14:58:21.897,0.25,90,0,-90,0,1
96,0,728.653,0,90,1,0.25,2,9,0.0,1.0,6,48.0,20.0,9,0.826,1.0,730.8789999999999,0.15,1,2019-05-29 14:46:23.000,155,2019-05-29 14:58:31.653,0.25,-90,0,-90,-180,1
97,0,736.18,0,90,1,0.25,2,9,0.0,1.0,6,48.0,20.0,9,0.701,1.0,736.834,0.15,1,2019-05-29 14:46:23.000,155,2019-05-29 14:58:39.180,0.25,-90,0,-90,-180,1
98,0,739.743,0,90,1,0.25,2,9,0.0,1.0,6,48.0,20.0,9,0.763,1.0,740.1089999999999,0.15,1,2019-05-29 14:46:23.000,155,2019-05-29 14:58:42.743,0.25,-90,0,-90,-180,1
99,0,743.595,1,90,1,0.25,2,3,0.0,1.0,12,48.0,20.0,3,0.951,0.0,743.9739999999999,0.15,1,2019-05-29 14:46:23.000,155,2019-05-29 14:58:46.595,0.25,90,-180,90,0,1
100,0,747.3430000000001,0,90,1,0.25,2,9,0.0,1.0,6,48.0,20.0,9,0.888,0.0,749.433,0.0,0,2019-05-29 14:46:23.000,155,2019-05-29 14:58:50.343,0.25,90,0,-90,0,1
102,0,760.938,0,90,1,0.25,2,3,0.0,1.0,12,48.0,20.0,3,0.701,0.0,761.579,0.15,1,2019-05-29 14:46:23.000,155,2019-05-29 14:59:03.938,0.25,90,-180,90,0,1
103,0,765.378,0,90,1,0.25,2,3,0.0,1.0,12,48.0,20.0,3,0.888,1.0,765.9169999999999,0.0,0,2019-05-29 14:46:23.000,155,2019-05-29 14:59:08.378,0.25,-90,-180,90,-180,1
105,0,777.77,0,90,1,0.25,2,9,0.0,1.0,6,48.0,20.0,9,0.763,1.0,777.933,0.15,1,2019-05-29 14:46:23.000,155,2019-05-29 14:59:20.770,0.25,-90,0,-90,-180,1
106,0,782.845,0,90,1,0.25,2,9,0.0,1.0,6,48.0,20.0,9,0.826,0.0,783.029,0.0,0,2019-05-29 14:46:23.000,155,2019-05-29 14:59:25.845,0.25,90,0,-90,0,1
108,0,794.452,0,90,1,0.25,2,3,0.0,1.0,12,48.0,20.0,3,0.951,1.0,796.3710000000001,0.0,0,2019-05-29 14:46:23.000,155,2019-05-29 14:59:37.452,0.25,-90,-180,90,-180,1
110,0,808.4839999999999,1,90,1,0.25,2,3,0.0,1.0,12,48.0,20.0,3,0.888,0.0,811.0419999999999,0.15,1,2019-05-29 14:46:23.000,155,2019-05-29 14:59:51.484,0.25,90,-180,90,0,1
111,0,812.821,0,90,1,0.25,2,3,0.0,1.0,12,48.0,20.0,3,0.951,0.0,814.5189999999999,0.15,1,2019-05-29 14:46:23.000,155,2019-05-29 14:59:55.821,0.25,90,-180,90,0,1
112,0,822.1439999999999,0,90,1,0.25,2,3,0.0,1.0,12,48.0,20.0,3,0.826,0.0,822.628,0.15,1,2019-05-29 14:46:23.000,155,2019-05-29 15:00:05.144,0.25,90,-180,90,0,1
113,0,826.301,1,90,1,0.25,2,3,0.0,1.0,12,48.0,20.0,3,0.701,0.0,827.597,0.15,1,2019-05-29 14:46:23.000,155,2019-05-29 15:00:09.301,0.25,90,-180,90,0,1
114,0,829.138,0,90,1,0.25,2,3,0.0,1.0,12,48.0,20.0,3,0.763,0.0,830.203,0.15,1,2019-05-29 14:46:23.000,155,2019-05-29 15:00:12.138,0.25,90,-180,90,0,1
115,0,834.3489999999999,1,90,1,0.25,2,3,0.0,1.0,12,48.0,20.0,3,0.826,0.0,834.875,0.15,1,2019-05-29 14:46:23.000,155,2019-05-29 15:00:17.349,0.25,90,-180,90,0,1
116,0,836.312,0,90,1,0.25,2,3,0.0,1.0,12,48.0,20.0,3,0.701,0.0,839.56,0.15,1,2019-05-29 14:46:23.000,155,2019-05-29 15:00:19.312,0.25,90,-180,90,0,1
117,0,843.928,1,90,1,0.25,2,9,0.0,1.0,6,48.0,20.0,9,0.951,1.0,844.3489999999999,0.15,1,2019-05-29 14:46:23.000,155,2019-05-29 15:00:26.928,0.25,-90,0,-90,-180,1
118,0,845.8589999999999,0,90,1,0.25,2,9,0.0,1.0,6,48.0,20.0,9,0.888,0.0,847.5980000000001,0.0,0,2019-05-29 14:46:23.000,155,2019-05-29 15:00:28.859,0.25,90,0,-90,0,1
120,0,859.6469999999999,1,90,1,0.25,2,3,0.0,1.0,12,48.0,20.0,3,0.763,0.0,860.255,0.15,1,2019-05-29 14:46:23.000,155,2019-05-29 15:00:42.647,0.25,90,-180,90,0,1
121,0,861.628,1,90,1,0.25,2,9,0.0,1.0,6,48.0,20.0,9,0.701,1.0,862.86,0.15,1,2019-05-29 14:46:23.000,155,2019-05-29 15:00:44.628,0.25,-90,0,-90,-180,1
122,0,864.3760000000001,0,90,1,0.25,2,9,0.0,1.0,6,48.0,20.0,9,0.951,0.0,866.123,0.0,0,2019-05-29 14:46:23.000,155,2019-05-29 15:00:47.376,0.25,90,0,-90,0,1
124,0,875.0939999999999,1,90,1,0.25,2,9,0.0,1.0,6,48.0,20.0,9,0.763,1.0,875.534,0.15,1,2019-05-29 14:46:23.000,155,2019-05-29 15:00:58.094,0.25,-90,0,-90,-180,1
125,0,877.235,0,90,1,0.25,2,9,0.0,1.0,6,48.0,20.0,9,0.888,1.0,878.8610000000001,0.15,1,2019-05-29 14:46:23.000,155,2019-05-29 15:01:00.235,0.25,-90,0,-90,-180,1
126,0,882.834,0,90,1,0.25,2,9,0.0,1.0,6,48.0,20.0,9,0.826,0.0,883.2510000000001,0.0,0,2019-05-29 14:46:23.000,155,2019-05-29 15:01:05.834,0.25,90,0,-90,0,1
128,0,889.283,1,90,1,0.25,2,9,0.0,1.0,6,48.0,20.0,9,0.888,1.0,890.921,0.15,1,2019-05-29 14:46:23.000,155,2019-05-29 15:01:12.283,0.25,-90,0,-90,-180,1
129,0,892.5,0,90,1,0.25,2,9,0.0,1.0,6,48.0,20.0,9,0.763,1.0,894.837,0.15,1,2019-05-29 14:46:23.000,155,2019-05-29 15:01:15.500,0.25,-90,0,-90,-180,1
130,0,898.745,0,90,1,0.25,2,3,0.0,1.0,12,48.0,20.0,3,0.951,0.0,899.567,0.15,1,2019-05-29 14:46:23.000,155,2019-05-29 15:01:21.745,0.25,90,-180,90,0,1
131,0,904.834,0,90,1,0.25,2,3,0.0,1.0,12,48.0,20.0,3,0.826,1.0,905.977,0.0,0,2019-05-29 14:46:23.000,155,2019-05-29 15:01:27.834,0.25,-90,-180,90,-180,1
133,0,918.207,1,90,1,0.25,2,9,0.0,1.0,6,48.0,20.0,9,0.701,1.0,918.5310000000001,0.15,1,2019-05-29 14:46:23.000,155,2019-05-29 15:01:41.207,0.25,-90,0,-90,-180,1
134,0,920.092,1,90,1,0.25,2,3,0.0,1.0,12,48.0,20.0,3,0.888,0.0,922.4739999999999,0.15,1,2019-05-29 14:46:23.000,155,2019-05-29 15:01:43.092,0.25,90,-180,90,0,1
135,0,923.98,0,90,1,0.25,2,9,0.0,1.0,6,48.0,20.0,9,0.701,0.0,926.768,0.0,0,2019-05-29 14:46:23.000,155,2019-05-29 15:01:46.980,0.25,90,0,-90,0,1
137,0,934.5010000000001,0,90,1,0.25,2,9,0.0,1.0,6,48.0,20.0,9,0.763,1.0,937.091,0.15,1,2019-05-29 14:46:23.000,155,2019-05-29 15:01:57.501,0.25,-90,0,-90,-180,1
138,0,940.7489999999999,0,90,1,0.25,2,3,0.0,1.0,12,48.0,20.0,3,0.826,1.0,941.337,0.0,0,2019-05-29 14:46:23.000,155,2019-05-29 15:02:03.749,0.25,-90,-180,90,-180,1
141,0,962.438,1,90,1,0.25,2,9,0.0,1.0,6,48.0,20.0,9,0.951,1.0,962.65,0.15,1,2019-05-29 14:46:23.000,155,2019-05-29 15:02:25.438,0.25,-90,0,-90,-180,1
142,0,964.186,0,90,1,0.25,2,9,0.0,1.0,6,48.0,20.0,9,0.888,0.0,965.985,0.0,0,2019-05-29 14:46:23.000,155,2019-05-29 15:02:27.186,0.25,90,0,-90,0,1
144,0,976.927,0,90,1,0.25,2,9,0.0,1.0,6,48.0,20.0,9,0.763,1.0,977.289,0.15,1,2019-05-29 14:46:23.000,155,2019-05-29 15:02:39.927,0.25,-90,0,-90,-180,1
145,0,981.297,0,90,1,0.25,2,3,0.0,1.0,12,48.0,20.0,3,0.701,1.0,981.54,0.0,0,2019-05-29 14:46:23.000,155,2019-05-29 15:02:44.297,0.25,-90,-180,90,-180,1
147,0,989.061,1,90,1,0.25,2,9,0.0,1.0,6,48.0,20.0,9,0.826,1.0,990.6469999999999,0.15,1,2019-05-29 14:46:23.000,155,2019-05-29 15:02:52.061,0.25,-90,0,-90,-180,1
148,0,992.1610000000001,1,90,1,0.25,2,9,0.0,1.0,6,48.0,20.0,9,0.951,1.0,993.836,0.15,1,2019-05-29 14:46:23.000,155,2019-05-29 15:02:55.161,0.25,-90,0,-90,-180,1
149,0,995.3480000000001,0,90,1,0.25,2,9,0.0,1.0,6,48.0,20.0,9,0.701,1.0,997.0980000000001,0.15,1,2019-05-29 14:46:23.000,155,2019-05-29 15:02:58.348,0.25,-90,0,-90,-180,1
150,0,1000.4780000000001,0,90,1,0.25,2,3,0.0,1.0,12,48.0,20.0,3,0.888,1.0,1001.002,0.0,0,2019-05-29 14:46:23.000,155,2019-05-29 15:03:03.478,0.25,-90,-180,90,-180,1
153,0,1023.105,0,90,1,0.25,2,3,0.0,1.0,12,48.0,20.0,3,0.763,0.0,1024.2930000000001,0.15,1,2019-05-29 14:46:23.000,155,2019-05-29 15:03:26.105,0.25,90,-180,90,0,1
154,0,1034.567,0,90,1,0.25,2,9,0.0,1.0,6,48.0,20.0,9,0.826,1.0,1035.113,0.15,1,2019-05-29 14:46:23.000,155,2019-05-29 15:03:37.567,0.25,-90,0,-90,-180,1
155,0,1046.539,0,90,1,0.25,2,3,0.0,1.0,12,48.0,20.0,3,0.951,1.0,1047.108,0.0,0,2019-05-29 14:46:23.000,155,2019-05-29 15:03:49.539,0.25,-90,-180,90,-180,1
157,0,1055.989,0,90,1,0.25,2,3,0.0,1.0,12,48.0,20.0,3,0.826,1.0,1057.516,0.0,0,2019-05-29 14:46:23.000,155,2019-05-29 15:03:58.989,0.25,-90,-180,90,-180,1
159,0,1069.164,1,90,1,0.25,2,3,0.0,1.0,12,48.0,20.0,3,0.701,0.0,1069.738,0.15,1,2019-05-29 14:46:23.000,155,2019-05-29 15:04:12.164,0.25,90,-180,90,0,1
160,0,1072.6760000000002,0,90,1,0.25,2,9,0.0,1.0,6,48.0,20.0,9,0.888,0.0,1075.1789999999999,0.0,0,2019-05-29 14:46:23.000,155,2019-05-29 15:04:15.676,0.25,90,0,-90,0,1
162,0,1085.27,0,90,1,0.25,2,3,0.0,1.0,12,48.0,20.0,3,0.951,1.0,1086.623,0.0,0,2019-05-29 14:46:23.000,155,2019-05-29 15:04:28.270,0.25,-90,-180,90,-180,1
164,0,1097.9589999999998,0,90,1,0.25,2,3,0.0,1.0,12,48.0,20.0,3,0.763,0.0,1098.6889999999999,0.15,1,2019-05-29 14:46:23.000,155,2019-05-29 15:04:40.959,0.25,90,-180,90,0,1
165,0,1102.094,0,90,1,0.25,2,3,0.0,1.0,12,48.0,20.0,3,0.826,0.0,1102.856,0.15,1,2019-05-29 14:46:23.000,155,2019-05-29 15:04:45.094,0.25,90,-180,90,0,1
166,0,1106.633,0,90,1,0.25,2,3,0.0,1.0,12,48.0,20.0,3,0.951,1.0,1107.782,0.0,0,2019-05-29 14:46:23.000,155,2019-05-29 15:04:49.633,0.25,-90,-180,90,-180,1
168,0,1116.171,0,90,1,0.25,2,9,0.0,1.0,6,48.0,20.0,9,0.763,1.0,1117.9560000000001,0.15,1,2019-05-29 14:46:23.000,155,2019-05-29 15:04:59.171,0.25,-90,0,-90,-180,1
169,0,1121.887,0,90,1,0.25,2,9,0.0,1.0,6,48.0,20.0,9,0.701,1.0,1122.392,0.15,1,2019-05-29 14:46:23.000,155,2019-05-29 15:05:04.887,0.25,-90,0,-90,-180,1
170,0,1127.809,1,90,1,0.25,2,3,0.0,1.0,12,48.0,20.0,3,0.888,0.0,1128.192,0.15,1,2019-05-29 14:46:23.000,155,2019-05-29 15:05:10.809,0.25,90,-180,90,0,1
171,0,1129.594,1,90,1,0.25,2,9,0.0,1.0,6,48.0,20.0,9,0.701,1.0,1131.54,0.15,1,2019-05-29 14:46:23.000,155,2019-05-29 15:05:12.594,0.25,-90,0,-90,-180,1
172,0,1133.303,0,90,1,0.25,2,3,0.0,1.0,12,48.0,20.0,3,0.888,0.0,1135.737,0.15,1,2019-05-29 14:46:23.000,155,2019-05-29 15:05:16.303,0.25,90,-180,90,0,1
173,0,1141.723,0,90,1,0.25,2,9,0.0,1.0,6,48.0,20.0,9,0.951,1.0,1142.141,0.15,1,2019-05-29 14:46:23.000,155,2019-05-29 15:05:24.723,0.25,-90,0,-90,-180,1
174,0,1147.988,1,90,1,0.25,2,9,0.0,1.0,6,48.0,20.0,9,0.763,1.0,1148.529,0.15,1,2019-05-29 14:46:23.000,155,2019-05-29 15:05:30.988,0.25,-90,0,-90,-180,1
175,0,1150.1889999999999,0,90,1,0.25,2,9,0.0,1.0,6,48.0,20.0,9,0.826,1.0,1151.6,0.15,1,2019-05-29 14:46:23.000,155,2019-05-29 15:05:33.189,0.25,-90,0,-90,-180,1
176,0,1155.12,0,90,1,0.25,2,9,0.0,1.0,6,48.0,20.0,9,0.951,0.0,1155.565,0.0,0,2019-05-29 14:46:23.000,155,2019-05-29 15:05:38.120,0.25,90,0,-90,0,1
1,0,20.789,0,90,1,0.25,2,3,0.0,1.0,12,48.0,20.0,3,0.701,1.0,22.488000000000003,0.0,0,2019-05-30 08:15:22.000,134,2019-05-30 08:15:42.789,0.25,-90,-180,90,-180,1
4,0,44.111000000000004,0,90,1,0.25,2,9,0.0,1.0,6,48.0,20.0,9,0.951,0.0,45.853,0.0,0,2019-05-30 08:15:22.000,134,2019-05-30 08:16:06.111,0.25,90,0,-90,0,1
6,0,54.528,0,90,1,0.25,2,3,0.0,1.0,12,48.0,20.0,3,0.763,0.0,56.417,0.15,1,2019-05-30 08:15:22.000,134,2019-05-30 08:16:16.528,0.25,90,-180,90,0,1
7,0,60.456,1,90,1,0.25,2,9,0.0,1.0,6,48.0,20.0,9,0.888,1.0,61.068000000000005,0.15,1,2019-05-30 08:15:22.000,134,2019-05-30 08:16:22.456,0.25,-90,0,-90,-180,1
8,0,62.663999999999994,0,90,1,0.25,2,9,0.0,1.0,6,48.0,20.0,9,0.826,1.0,64.57600000000001,0.15,1,2019-05-30 08:15:22.000,134,2019-05-30 08:16:24.664,0.25,-90,0,-90,-180,1
9,0,66.0,0,90,1,0.25,2,3,0.0,1.0,12,48.0,20.0,3,0.763,0.0,66.597,0.15,1,2019-05-30 08:15:22.000,134,2019-05-30 08:16:28.000,0.25,90,-180,90,0,1
10,0,67.85,0,90,1,0.25,2,9,0.0,1.0,6,48.0,20.0,9,0.826,1.0,68.35600000000001,0.15,1,2019-05-30 08:15:22.000,134,2019-05-30 08:16:29.850,0.25,-90,0,-90,-180,1
11,0,73.304,0,90,1,0.25,2,9,0.0,1.0,6,48.0,20.0,9,0.951,1.0,73.617,0.15,1,2019-05-30 08:15:22.000,134,2019-05-30 08:16:35.304,0.25,-90,0,-90,-180,1
12,0,78.393,1,90,1,0.25,2,9,0.0,1.0,6,48.0,20.0,9,0.888,1.0,78.967,0.15,1,2019-05-30 08:15:22.000,134,2019-05-30 08:16:40.393,0.25,-90,0,-90,-180,1
13,0,80.47,0,90,1,0.25,2,9,0.0,1.0,6,48.0,20.0,9,0.701,0.0,82.626,0.0,0,2019-05-30 08:15:22.000,134,2019-05-30 08:16:42.470,0.25,90,0,-90,0,1
15,0,92.132,0,90,1,0.25,2,9,0.0,1.0,6,48.0,20.0,9,0.701,1.0,94.038,0.15,1,2019-05-30 08:15:22.000,134,2019-05-30 08:16:54.132,0.25,-90,0,-90,-180,1
16,0,97.694,0,90,1,0.25,2,3,0.0,1.0,12,48.0,20.0,3,0.951,1.0,98.038,0.0,0,2019-05-30 08:15:22.000,134,2019-05-30 08:16:59.694,0.25,-90,-180,90,-180,1
18,0,105.417,1,90,1,0.25,2,9,0.0,1.0,6,48.0,20.0,9,0.888,1.0,107.791,0.15,1,2019-05-30 08:15:22.000,134,2019-05-30 08:17:07.417,0.25,-90,0,-90,-180,1
19,0,109.454,0,90,1,0.25,2,3,0.0,1.0,12,48.0,20.0,3,0.763,0.0,111.34100000000001,0.15,1,2019-05-30 08:15:22.000,134,2019-05-30 08:17:11.454,0.25,90,-180,90,0,1
20,0,114.834,1,90,1,0.25,2,3,0.0,1.0,12,48.0,20.0,3,0.826,0.0,115.14200000000001,0.15,1,2019-05-30 08:15:22.000,134,2019-05-30 08:17:16.834,0.25,90,-180,90,0,1
21,0,117.016,0,90,1,0.25,2,9,0.0,1.0,6,48.0,20.0,9,0.951,1.0,118.741,0.15,1,2019-05-30 08:15:22.000,134,2019-05-30 08:17:19.016,0.25,-90,0,-90,-180,1
22,0,122.728,0,90,1,0.25,2,3,0.0,1.0,12,48.0,20.0,3,0.826,0.0,123.54299999999999,0.15,1,2019-05-30 08:15:22.000,134,2019-05-30 08:17:24.728,0.25,90,-180,90,0,1
23,0,127.04,0,90,1,0.25,2,3,0.0,1.0,12,48.0,20.0,3,0.701,0.0,127.462,0.15,1,2019-05-30 08:15:22.000,134,2019-05-30 08:17:29.040,0.25,90,-180,90,0,1
24,0,131.628,1,90,1,0.25,2,3,0.0,1.0,12,48.0,20.0,3,0.888,0.0,132.072,0.15,1,2019-05-30 08:15:22.000,134,2019-05-30 08:17:33.628,0.25,90,-180,90,0,1
25,0,133.499,0,90,1,0.25,2,3,0.0,1.0,12,48.0,20.0,3,0.763,1.0,135.149,0.0,0,2019-05-30 08:15:22.000,134,2019-05-30 08:17:35.499,0.25,-90,-180,90,-180,1
27,0,143.28799999999998,1,90,1,0.25,2,9,0.0,1.0,6,48.0,20.0,9,0.951,1.0,145.799,0.15,1,2019-05-30 08:15:22.000,134,2019-05-30 08:17:45.288,0.25,-90,0,-90,-180,1
28,0,147.35299999999998,0,90,1,0.25,2,9,0.0,1.0,6,48.0,20.0,9,0.701,0.0,149.54399999999998,0.0,0,2019-05-30 08:15:22.000,134,2019-05-30 08:17:49.353,0.25,90,0,-90,0,1
30,0,162.935,0,90,1,0.25,2,3,0.0,1.0,12,48.0,20.0,3,0.826,1.0,163.384,0.0,0,2019-05-30 08:15:22.000,134,2019-05-30 08:18:04.935,0.25,-90,-180,90,-180,1
32,0,179.352,1,90,1,0.25,2,3,0.0,1.0,12,48.0,20.0,3,0.763,0.0,179.976,0.15,1,2019-05-30 08:15:22.000,134,2019-05-30 08:18:21.352,0.25,90,-180,90,0,1
33,0,181.675,0,90,1,0.25,2,9,0.0,1.0,6,48.0,20.0,9,0.888,1.0,184.06400000000002,0.15,1,2019-05-30 08:15:22.000,134,2019-05-30 08:18:23.675,0.25,-90,0,-90,-180,1
34,0,188.005,1,90,1,0.25,2,9,0.0,1.0,6,48.0,20.0,9,0.888,1.0,188.407,0.15,1,2019-05-30 08:15:22.000,134,2019-05-30 08:18:30.005,0.25,-90,0,-90,-180,1
35,0,189.967,1,90,1,0.25,2,9,0.0,1.0,6,48.0,20.0,9,0.763,1.0,191.963,0.15,1,2019-05-30 08:15:22.000,134,2019-05-30 08:18:31.967,0.25,-90,0,-90,-180,1
36,0,193.56599999999997,0,90,1,0.25,2,9,0.0,1.0,6,48.0,20.0,9,0.826,1.0,195.481,0.15,1,2019-05-30 08:15:22.000,134,2019-05-30 08:18:35.566,0.25,-90,0,-90,-180,1
37,0,200.705,1,90,1,0.25,2,9,0.0,1.0,6,48.0,20.0,9,0.701,1.0,201.577,0.15,1,2019-05-30 08:15:22.000,134,2019-05-30 08:18:42.705,0.25,-90,0,-90,-180,1
38,0,203.17700000000002,0,90,1,0.25,2,3,0.0,1.0,12,48.0,20.0,3,0.951,1.0,204.737,0.0,0,2019-05-30 08:15:22.000,134,2019-05-30 08:18:45.177,0.25,-90,-180,90,-180,1
40,0,219.888,1,90,1,0.25,2,3,0.0,1.0,12,48.0,20.0,3,0.826,0.0,220.733,0.15,1,2019-05-30 08:15:22.000,134,2019-05-30 08:19:01.888,0.25,90,-180,90,0,1
41,0,222.142,0,90,1,0.25,2,3,0.0,1.0,12,48.0,20.0,3,0.763,1.0,224.301,0.0,0,2019-05-30 08:15:22.000,134,2019-05-30 08:19:04.142,0.25,-90,-180,90,-180,1
43,0,235.55700000000002,1,90,1,0.25,2,9,0.0,1.0,6,48.0,20.0,9,0.701,1.0,236.045,0.15,1,2019-05-30 08:15:22.000,134,2019-05-30 08:19:17.557,0.25,-90,0,-90,-180,1
44,0,237.61900000000003,1,90,1,0.25,2,9,0.0,1.0,6,48.0,20.0,9,0.951,1.0,238.93,0.15,1,2019-05-30 08:15:22.000,134,2019-05-30 08:19:19.619,0.25,-90,0,-90,-180,1
45,0,240.56,0,90,1,0.25,2,3,0.0,1.0,12,48.0,20.0,3,0.888,0.0,242.74200000000002,0.15,1,2019-05-30 08:15:22.000,134,2019-05-30 08:19:22.560,0.25,90,-180,90,0,1
46,0,247.692,1,90,1,0.25,2,3,0.0,1.0,12,48.0,20.0,3,0.951,0.0,248.424,0.15,1,2019-05-30 08:15:22.000,134,2019-05-30 08:19:29.692,0.25,90,-180,90,0,1
47,0,250.109,0,90,1,0.25,2,3,0.0,1.0,12,48.0,20.0,3,0.888,1.0,253.13099999999997,0.0,0,2019-05-30 08:15:22.000,134,2019-05-30 08:19:32.109,0.25,-90,-180,90,-180,1
50,0,271.505,0,90,1,0.25,2,3,0.0,1.0,12,48.0,20.0,3,0.763,0.0,271.83,0.15,1,2019-05-30 08:15:22.000,134,2019-05-30 08:19:53.505,0.25,90,-180,90,0,1
51,0,277.216,0,90,1,0.25,2,3,0.0,1.0,12,48.0,20.0,3,0.826,0.0,277.57,0.15,1,2019-05-30 08:15:22.000,134,2019-05-30 08:19:59.216,0.25,90,-180,90,0,1
52,0,281.242,1,90,1,0.25,2,9,0.0,1.0,6,48.0,20.0,9,0.701,1.0,281.593,0.15,1,2019-05-30 08:15:22.000,134,2019-05-30 08:20:03.242,0.25,-90,0,-90,-180,1
53,0,283.165,0,90,1,0.25,2,3,0.0,1.0,12,48.0,20.0,3,0.888,1.0,284.755,0.0,0,2019-05-30 08:15:22.000,134,2019-05-30 08:20:05.165,0.25,-90,-180,90,-180,1
55,0,293.934,1,90,1,0.25,2,9,0.0,1.0,6,48.0,20.0,9,0.763,1.0,296.118,0.15,1,2019-05-30 08:15:22.000,134,2019-05-30 08:20:15.934,0.25,-90,0,-90,-180,1
56,0,297.561,1,90,1,0.25,2,3,0.0,1.0,12,48.0,20.0,3,0.826,0.0,299.577,0.15,1,2019-05-30 08:15:22.000,134,2019-05-30 08:20:19.561,0.25,90,-180,90,0,1
57,0,301.449,0,90,1,0.25,2,9,0.0,1.0,6,48.0,20.0,9,0.951,1.0,304.224,0.15,1,2019-05-30 08:15:22.000,134,2019-05-30 08:20:23.449,0.25,-90,0,-90,-180,1
58,0,307.559,1,90,1,0.25,2,9,0.0,1.0,6,48.0,20.0,9,0.701,1.0,308.065,0.15,1,2019-05-30 08:15:22.000,134,2019-05-30 08:20:29.559,0.25,-90,0,-90,-180,1
59,0,309.579,1,90,1,0.25,2,9,0.0,1.0,6,48.0,20.0,9,0.888,1.0,311.444,0.15,1,2019-05-30 08:15:22.000,134,2019-05-30 08:20:31.579,0.25,-90,0,-90,-180,1
60,0,313.241,0,90,1,0.25,2,9,0.0,1.0,6,48.0,20.0,9,0.951,0.0,315.33,0.0,0,2019-05-30 08:15:22.000,134,2019-05-30 08:20:35.241,0.25,90,0,-90,0,1
62,0,329.57099999999997,0,90,1,0.25,2,9,0.0,1.0,6,48.0,20.0,9,0.763,1.0,329.935,0.15,1,2019-05-30 08:15:22.000,134,2019-05-30 08:20:51.571,0.25,-90,0,-90,-180,1
63,0,335.108,1,90,1,0.25,2,3,0.0,1.0,12,48.0,20.0,3,0.826,0.0,339.72900000000004,0.15,1,2019-05-30 08:15:22.000,134,2019-05-30 08:20:57.108,0.25,90,-180,90,0,1
64,0,341.88300000000004,0,90,1,0.25,2,9,0.0,1.0,6,48.0,20.0,9,0.701,1.0,344.371,0.15,1,2019-05-30 08:15:22.000,134,2019-05-30 08:21:03.883,0.25,-90,0,-90,-180,1
65,0,348.05199999999996,1,90,1,0.25,2,9,0.0,1.0,6,48.0,20.0,9,0.701,1.0,348.56,0.15,1,2019-05-30 08:15:22.000,134,2019-05-30 08:21:10.052,0.25,-90,0,-90,-180,1
66,0,350.204,0,90,1,0.25,2,3,0.0,1.0,12,48.0,20.0,3,0.951,1.0,351.532,0.0,0,2019-05-30 08:15:22.000,134,2019-05-30 08:21:12.204,0.25,-90,-180,90,-180,1
68,0,360.024,1,90,1,0.25,2,9,0.0,1.0,6,48.0,20.0,9,0.763,1.0,362.61,0.15,1,2019-05-30 08:15:22.000,134,2019-05-30 08:21:22.024,0.25,-90,0,-90,-180,1
69,0,364.213,1,90,1,0.25,2,3,0.0,1.0,12,48.0,20.0,3,0.888,0.0,366.11699999999996,0.15,1,2019-05-30 08:15:22.000,134,2019-05-30 08:21:26.213,0.25,90,-180,90,0,1
70,0,367.781,0,90,1,0.25,2,3,0.0,1.0,12,48.0,20.0,3,0.826,1.0,369.718,0.0,0,2019-05-30 08:15:22.000,134,2019-05-30 08:21:29.781,0.25,-90,-180,90,-180,1
72,0,383.588,1,90,1,0.25,2,3,0.0,1.0,12,48.0,20.0,3,0.951,0.0,384.04400000000004,0.15,1,2019-05-30 08:15:22.000,134,2019-05-30 08:21:45.588,0.25,90,-180,90,0,1
73,0,390.392,1,90,1,0.25,2,3,0.0,1.0,12,48.0,20.0,3,0.888,0.0,391.51800000000003,0.15,1,2019-05-30 08:15:22.000,134,2019-05-30 08:21:52.392,0.25,90,-180,90,0,1
74,0,393.917,0,90,1,0.25,2,3,0.0,1.0,12,48.0,20.0,3,0.763,0.0,396.12699999999995,0.15,1,2019-05-30 08:15:22.000,134,2019-05-30 08:21:55.917,0.25,90,-180,90,0,1
75,0,401.774,0,90,1,0.25,2,9,0.0,1.0,6,48.0,20.0,9,0.826,1.0,403.017,0.15,1,2019-05-30 08:15:22.000,134,2019-05-30 08:22:03.774,0.25,-90,0,-90,-180,1
76,0,406.566,0,90,1,0.25,2,3,0.0,1.0,12,48.0,20.0,3,0.701,0.0,407.037,0.15,1,2019-05-30 08:15:22.000,134,2019-05-30 08:22:08.566,0.25,90,-180,90,0,1
77,0,414.209,1,90,1,0.25,2,9,0.0,1.0,6,48.0,20.0,9,0.763,1.0,414.73,0.15,1,2019-05-30 08:15:22.000,134,2019-05-30 08:22:16.209,0.25,-90,0,-90,-180,1
78,0,416.23900000000003,0,90,1,0.25,2,9,0.0,1.0,6,48.0,20.0,9,0.701,1.0,418.16900000000004,0.15,1,2019-05-30 08:15:22.000,134,2019-05-30 08:22:18.239,0.25,-90,0,-90,-180,1
79,0,422.01800000000003,0,90,1,0.25,2,9,0.0,1.0,6,48.0,20.0,9,0.951,0.0,422.35400000000004,0.0,0,2019-05-30 08:15:22.000,134,2019-05-30 08:22:24.018,0.25,90,0,-90,0,1
81,0,431.51099999999997,0,90,1,0.25,2,9,0.0,1.0,6,48.0,20.0,9,0.888,1.0,433.269,0.15,1,2019-05-30 08:15:22.000,134,2019-05-30 08:22:33.511,0.25,-90,0,-90,-180,1
82,0,436.838,0,90,1,0.25,2,3,0.0,1.0,12,48.0,20.0,3,0.826,1.0,437.94300000000004,0.0,0,2019-05-30 08:15:22.000,134,2019-05-30 08:22:38.838,0.25,-90,-180,90,-180,1
84,0,445.89599999999996,0,90,1,0.25,2,9,0.0,1.0,6,48.0,20.0,9,0.888,1.0,447.314,0.15,1,2019-05-30 08:15:22.000,134,2019-05-30 08:22:47.896,0.25,-90,0,-90,-180,1
85,0,451.866,0,90,1,0.25,2,9,0.0,1.0,6,48.0,20.0,9,0.763,1.0,452.63199999999995,0.15,1,2019-05-30 08:15:22.000,134,2019-05-30 08:22:53.866,0.25,-90,0,-90,-180,1
86,0,456.267,1,90,1,0.25,2,9,0.0,1.0,6,48.0,20.0,9,0.826,1.0,457.811,0.15,1,2019-05-30 08:15:22.000,134,2019-05-30 08:22:58.267,0.25,-90,0,-90,-180,1
87,0,459.343,0,90,1,0.25,2,9,0.0,1.0,6,48.0,20.0,9,0.701,1.0,461.39,0.15,1,2019-05-30 08:15:22.000,134,2019-05-30 08:23:01.343,0.25,-90,0,-90,-180,1
88,0,467.023,0,90,1,0.25,2,9,0.0,1.0,6,48.0,20.0,9,0.951,1.0,467.38199999999995,0.15,1,2019-05-30 08:15:22.000,134,2019-05-30 08:23:09.023,0.25,-90,0,-90,-180,1
89,0,471.295,1,90,1,0.25,2,3,0.0,1.0,12,48.0,20.0,3,0.951,0.0,472.971,0.15,1,2019-05-30 08:15:22.000,134,2019-05-30 08:23:13.295,0.25,90,-180,90,0,1
90,0,476.319,0,90,1,0.25,2,3,0.0,1.0,12,48.0,20.0,3,0.826,0.0,477.99800000000005,0.15,1,2019-05-30 08:15:22.000,134,2019-05-30 08:23:18.319,0.25,90,-180,90,0,1
91,0,481.795,0,90,1,0.25,2,3,0.0,1.0,12,48.0,20.0,3,0.763,0.0,482.676,0.15,1,2019-05-30 08:15:22.000,134,2019-05-30 08:23:23.795,0.25,90,-180,90,0,1
92,0,488.37699999999995,0,90,1,0.25,2,3,0.0,1.0,12,48.0,20.0,3,0.701,0.0,489.11400000000003,0.15,1,2019-05-30 08:15:22.000,134,2019-05-30 08:23:30.377,0.25,90,-180,90,0,1
93,0,494.88800000000003,0,90,1,0.25,2,9,0.0,1.0,6,48.0,20.0,9,0.888,1.0,495.07199999999995,0.15,1,2019-05-30 08:15:22.000,134,2019-05-30 08:23:36.888,0.25,-90,0,-90,-180,1
94,0,498.43300000000005,0,90,1,0.25,2,3,0.0,1.0,12,48.0,20.0,3,0.888,0.0,499.026,0.15,1,2019-05-30 08:15:22.000,134,2019-05-30 08:23:40.433,0.25,90,-180,90,0,1
95,0,504.625,0,90,1,0.25,2,3,0.0,1.0,12,48.0,20.0,3,0.763,0.0,505.478,0.15,1,2019-05-30 08:15:22.000,134,2019-05-30 08:23:46.625,0.25,90,-180,90,0,1
96,0,510.51099999999997,0,90,1,0.25,2,3,0.0,1.0,12,48.0,20.0,3,0.701,0.0,511.07599999999996,0.15,1,2019-05-30 08:15:22.000,134,2019-05-30 08:23:52.511,0.25,90,-180,90,0,1
97,0,518.2230000000001,0,90,1,0.25,2,3,0.0,1.0,12,48.0,20.0,3,0.951,0.0,519.0409999999999,0.15,1,2019-05-30 08:15:22.000,134,2019-05-30 08:24:00.223,0.25,90,-180,90,0,1
98,0,527.13,0,90,1,0.25,2,3,0.0,1.0,12,48.0,20.0,3,0.826,0.0,527.842,0.15,1,2019-05-30 08:15:22.000,134,2019-05-30 08:24:09.130,0.25,90,-180,90,0,1
99,0,531.599,1,90,1,0.25,2,9,0.0,1.0,6,48.0,20.0,9,0.763,1.0,531.971,0.15,1,2019-05-30 08:15:22.000,134,2019-05-30 08:24:13.599,0.25,-90,0,-90,-180,1
100,0,533.735,0,90,1,0.25,2,9,0.0,1.0,6,48.0,20.0,9,0.951,1.0,535.49,0.15,1,2019-05-30 08:15:22.000,134,2019-05-30 08:24:15.735,0.25,-90,0,-90,-180,1
101,0,537.1659999999999,1,90,1,0.25,2,9,0.0,1.0,6,48.0,20.0,9,0.701,1.0,538.246,0.15,1,2019-05-30 08:15:22.000,134,2019-05-30 08:24:19.166,0.25,-90,0,-90,-180,1
102,0,542.2040000000001,1,90,1,0.25,2,3,0.0,1.0,12,48.0,20.0,3,0.888,0.0,544.168,0.15,1,2019-05-30 08:15:22.000,134,2019-05-30 08:24:24.204,0.25,90,-180,90,0,1
103,0,545.893,0,90,1,0.25,2,3,0.0,1.0,12,48.0,20.0,3,0.826,1.0,547.464,0.0,0,2019-05-30 08:15:22.000,134,2019-05-30 08:24:27.893,0.25,-90,-180,90,-180,1
106,0,567.643,0,90,1,0.25,2,3,0.0,1.0,12,48.0,20.0,3,0.951,0.0,568.394,0.15,1,2019-05-30 08:15:22.000,134,2019-05-30 08:24:49.643,0.25,90,-180,90,0,1
107,0,576.258,0,90,1,0.25,2,9,0.0,1.0,6,48.0,20.0,9,0.701,1.0,576.5319999999999,0.15,1,2019-05-30 08:15:22.000,134,2019-05-30 08:24:58.258,0.25,-90,0,-90,-180,1
108,0,581.2769999999999,0,90,1,0.25,2,3,0.0,1.0,12,48.0,20.0,3,0.826,0.0,581.4069999999999,0.15,1,2019-05-30 08:15:22.000,134,2019-05-30 08:25:03.277,0.25,90,-180,90,0,1
109,0,589.7819999999999,0,90,1,0.25,2,3,0.0,1.0,12,48.0,20.0,3,0.888,0.0,590.23,0.15,1,2019-05-30 08:15:22.000,134,2019-05-30 08:25:11.782,0.25,90,-180,90,0,1
110,0,595.056,1,90,1,0.25,2,3,0.0,1.0,12,48.0,20.0,3,0.763,0.0,595.377,0.15,1,2019-05-30 08:15:22.000,134,2019-05-30 08:25:17.056,0.25,90,-180,90,0,1
111,0,597.645,1,90,1,0.25,2,3,0.0,1.0,12,48.0,20.0,3,0.951,0.0,599.109,0.15,1,2019-05-30 08:15:22.000,134,2019-05-30 08:25:19.645,0.25,90,-180,90,0,1
112,0,600.742,1,90,1,0.25,2,3,0.0,1.0,12,48.0,20.0,3,0.888,0.0,602.3530000000001,0.15,1,2019-05-30 08:15:22.000,134,2019-05-30 08:25:22.742,0.25,90,-180,90,0,1
113,0,604.221,0,90,1,0.25,2,3,0.0,1.0,12,48.0,20.0,3,0.826,1.0,606.641,0.0,0,2019-05-30 08:15:22.000,134,2019-05-30 08:25:26.221,0.25,-90,-180,90,-180,1
116,0,622.004,0,90,1,0.25,2,9,0.0,1.0,6,48.0,20.0,9,0.763,0.0,622.254,0.0,0,2019-05-30 08:15:22.000,134,2019-05-30 08:25:44.004,0.25,90,0,-90,0,1
118,0,630.164,1,90,1,0.25,2,9,0.0,1.0,6,48.0,20.0,9,0.701,1.0,630.822,0.15,1,2019-05-30 08:15:22.000,134,2019-05-30 08:25:52.164,0.25,-90,0,-90,-180,1
119,0,632.345,0,90,1,0.25,2,9,0.0,1.0,6,48.0,20.0,9,0.951,1.0,633.644,0.15,1,2019-05-30 08:15:22.000,134,2019-05-30 08:25:54.345,0.25,-90,0,-90,-180,1
120,0,637.06,1,90,1,0.25,2,3,0.0,1.0,12,48.0,20.0,3,0.763,0.0,637.4730000000001,0.15,1,2019-05-30 08:15:22.000,134,2019-05-30 08:25:59.060,0.25,90,-180,90,0,1
121,0,642.815,0,90,1,0.25,2,9,0.0,1.0,6,48.0,20.0,9,0.701,1.0,644.258,0.15,1,2019-05-30 08:15:22.000,134,2019-05-30 08:26:04.815,0.25,-90,0,-90,-180,1
122,0,647.715,0,90,1,0.25,2,9,0.0,1.0,6,48.0,20.0,9,0.826,1.0,648.258,0.15,1,2019-05-30 08:15:22.000,134,2019-05-30 08:26:09.715,0.25,-90,0,-90,-180,1
123,0,651.614,0,90,1,0.25,2,9,0.0,1.0,6,48.0,20.0,9,0.888,1.0,652.741,0.15,1,2019-05-30 08:15:22.000,134,2019-05-30 08:26:13.614,0.25,-90,0,-90,-180,1
124,0,656.923,0,90,1,0.25,2,9,0.0,1.0,6,48.0,20.0,9,0.888,0.0,659.051,0.0,0,2019-05-30 08:15:22.000,134,2019-05-30 08:26:18.923,0.25,90,0,-90,0,1
126,0,668.9580000000001,0,90,1,0.25,2,3,0.0,1.0,12,48.0,20.0,3,0.951,0.0,669.336,0.15,1,2019-05-30 08:15:22.000,134,2019-05-30 08:26:30.958,0.25,90,-180,90,0,1
127,0,675.075,0,90,1,0.25,2,9,0.0,1.0,6,48.0,20.0,9,0.826,1.0,675.65,0.15,1,2019-05-30 08:15:22.000,134,2019-05-30 08:26:37.075,0.25,-90,0,-90,-180,1
128,0,679.428,0,90,1,0.25,2,3,0.0,1.0,12,48.0,20.0,3,0.701,0.0,681.8,0.15,1,2019-05-30 08:15:22.000,134,2019-05-30 08:26:41.428,0.25,90,-180,90,0,1
129,0,685.802,0,90,1,0.25,2,9,0.0,1.0,6,48.0,20.0,9,0.763,1.0,686.429,0.15,1,2019-05-30 08:15:22.000,134,2019-05-30 08:26:47.802,0.25,-90,0,-90,-180,1
130,0,689.873,0,90,1,0.25,2,9,0.0,1.0,6,48.0,20.0,9,0.701,0.0,690.283,0.0,0,2019-05-30 08:15:22.000,134,2019-05-30 08:26:51.873,0.25,90,0,-90,0,1
132,0,697.329,0,90,1,0.25,2,3,0.0,1.0,12,48.0,20.0,3,0.888,1.0,699.173,0.0,0,2019-05-30 08:15:22.000,134,2019-05-30 08:26:59.329,0.25,-90,-180,90,-180,1
134,0,711.268,1,90,1,0.25,2,3,0.0,1.0,12,48.0,20.0,3,0.763,0.0,711.302,0.15,1,2019-05-30 08:15:22.000,134,2019-05-30 08:27:13.268,0.25,90,-180,90,0,1
135,0,718.465,1,90,1,0.25,2,9,0.0,1.0,6,48.0,20.0,9,0.951,1.0,718.903,0.15,1,2019-05-30 08:15:22.000,134,2019-05-30 08:27:20.465,0.25,-90,0,-90,-180,1
136,0,720.5310000000001,1,90,1,0.25,2,3,0.0,1.0,12,48.0,20.0,3,0.826,0.0,722.79,0.15,1,2019-05-30 08:15:22.000,134,2019-05-30 08:27:22.531,0.25,90,-180,90,0,1
137,0,724.19,0,90,1,0.25,2,3,0.0,1.0,12,48.0,20.0,3,0.701,1.0,725.997,0.0,0,2019-05-30 08:15:22.000,134,2019-05-30 08:27:26.190,0.25,-90,-180,90,-180,1
139,0,736.493,0,90,1,0.25,2,9,0.0,1.0,6,48.0,20.0,9,0.763,0.0,738.087,0.0,0,2019-05-30 08:15:22.000,134,2019-05-30 08:27:38.493,0.25,90,0,-90,0,1
141,0,748.182,0,90,1,0.25,2,3,0.0,1.0,12,48.0,20.0,3,0.951,0.0,748.705,0.15,1,2019-05-30 08:15:22.000,134,2019-05-30 08:27:50.182,0.25,90,-180,90,0,1
142,0,755.882,0,90,1,0.25,2,9,0.0,1.0,6,48.0,20.0,9,0.826,1.0,756.317,0.15,1,2019-05-30 08:15:22.000,134,2019-05-30 08:27:57.882,0.25,-90,0,-90,-180,1
143,0,759.692,1,90,1,0.25,2,3,0.0,1.0,12,48.0,20.0,3,0.888,0.0,761.812,0.15,1,2019-05-30 08:15:22.000,134,2019-05-30 08:28:01.692,0.25,90,-180,90,0,1
144,0,763.503,0,90,1,0.25,2,3,0.0,1.0,12,48.0,20.0,3,0.888,1.0,765.632,0.0,0,2019-05-30 08:15:22.000,134,2019-05-30 08:28:05.503,0.25,-90,-180,90,-180,1
146,0,777.54,1,90,1,0.25,2,9,0.0,1.0,6,48.0,20.0,9,0.951,1.0,777.8480000000001,0.15,1,2019-05-30 08:15:22.000,134,2019-05-30 08:28:19.540,0.25,-90,0,-90,-180,1
147,0,779.471,0,90,1,0.25,2,9,0.0,1.0,6,48.0,20.0,9,0.701,1.0,781.252,0.15,1,2019-05-30 08:15:22.000,134,2019-05-30 08:28:21.471,0.25,-90,0,-90,-180,1
148,0,784.997,1,90,1,0.25,2,3,0.0,1.0,12,48.0,20.0,3,0.763,0.0,786.306,0.15,1,2019-05-30 08:15:22.000,134,2019-05-30 08:28:26.997,0.25,90,-180,90,0,1
149,0,787.915,1,90,1,0.25,2,9,0.0,1.0,6,48.0,20.0,9,0.826,1.0,789.6080000000001,0.15,1,2019-05-30 08:15:22.000,134,2019-05-30 08:28:29.915,0.25,-90,0,-90,-180,1
150,0,791.247,0,90,1,0.25,2,3,0.0,1.0,12,48.0,20.0,3,0.888,1.0,792.9860000000001,0.0,0,2019-05-30 08:15:22.000,134,2019-05-30 08:28:33.247,0.25,-90,-180,90,-180,1
152,0,804.334,0,90,1,0.25,2,3,0.0,1.0,12,48.0,20.0,3,0.951,0.0,804.6469999999999,0.15,1,2019-05-30 08:15:22.000,134,2019-05-30 08:28:46.334,0.25,90,-180,90,0,1
153,0,808.243,1,90,1,0.25,2,9,0.0,1.0,6,48.0,20.0,9,0.763,1.0,808.982,0.15,1,2019-05-30 08:15:22.000,134,2019-05-30 08:28:50.243,0.25,-90,0,-90,-180,1
154,0,810.447,0,90,1,0.25,2,3,0.0,1.0,12,48.0,20.0,3,0.701,1.0,812.4789999999999,0.0,0,2019-05-30 08:15:22.000,134,2019-05-30 08:28:52.447,0.25,-90,-180,90,-180,1
156,0,826.732,1,90,1,0.25,2,9,0.0,1.0,6,48.0,20.0,9,0.826,1.0,827.291,0.15,1,2019-05-30 08:15:22.000,134,2019-05-30 08:29:08.732,0.25,-90,0,-90,-180,1
157,0,832.757,1,90,1,0.25,2,9,0.0,1.0,6,48.0,20.0,9,0.701,1.0,833.128,0.15,1,2019-05-30 08:15:22.000,134,2019-05-30 08:29:14.757,0.25,-90,0,-90,-180,1
158,0,842.925,0,90,1,0.25,2,3,0.0,1.0,12,48.0,20.0,3,0.951,0.0,843.37,0.15,1,2019-05-30 08:15:22.000,134,2019-05-30 08:29:24.925,0.25,90,-180,90,0,1
159,0,851.307,1,90,1,0.25,2,9,0.0,1.0,6,48.0,20.0,9,0.888,1.0,852.347,0.15,1,2019-05-30 08:15:22.000,134,2019-05-30 08:29:33.307,0.25,-90,0,-90,-180,1
160,0,854.1239999999999,0,90,1,0.25,2,9,0.0,1.0,6,48.0,20.0,9,0.826,0.0,856.541,0.0,0,2019-05-30 08:15:22.000,134,2019-05-30 08:29:36.124,0.25,90,0,-90,0,1
162,0,868.75,0,90,1,0.25,2,9,0.0,1.0,6,48.0,20.0,9,0.763,0.0,869.875,0.0,0,2019-05-30 08:15:22.000,134,2019-05-30 08:29:50.750,0.25,90,0,-90,0,1
164,0,880.301,0,90,1,0.25,2,9,0.0,1.0,6,48.0,20.0,9,0.951,0.0,881.623,0.0,0,2019-05-30 08:15:22.000,134,2019-05-30 08:30:02.301,0.25,90,0,-90,0,1
166,0,894.735,0,90,1,0.25,2,9,0.0,1.0,6,48.0,20.0,9,0.763,0.0,895.005,0.0,0,2019-05-30 08:15:22.000,134,2019-05-30 08:30:16.735,0.25,90,0,-90,0,1
169,0,914.7289999999999,0,90,1,0.25,2,3,0.0,1.0,12,48.0,20.0,3,0.826,0.0,915.2,0.15,1,2019-05-30 08:15:22.000,134,2019-05-30 08:30:36.729,0.25,90,-180,90,0,1
170,0,921.867,1,90,1,0.25,2,9,0.0,1.0,6,48.0,20.0,9,0.701,1.0,922.3939999999999,0.15,1,2019-05-30 08:15:22.000,134,2019-05-30 08:30:43.867,0.25,-90,0,-90,-180,1
171,0,923.959,0,90,1,0.25,2,3,0.0,1.0,12,48.0,20.0,3,0.888,0.0,926.074,0.15,1,2019-05-30 08:15:22.000,134,2019-05-30 08:30:45.959,0.25,90,-180,90,0,1
172,0,932.1560000000001,0,90,1,0.25,2,3,0.0,1.0,12,48.0,20.0,3,0.701,0.0,932.331,0.15,1,2019-05-30 08:15:22.000,134,2019-05-30 08:30:54.156,0.25,90,-180,90,0,1
173,0,936.322,1,90,1,0.25,2,9,0.0,1.0,6,48.0,20.0,9,0.826,1.0,936.93,0.15,1,2019-05-30 08:15:22.000,134,2019-05-30 08:30:58.322,0.25,-90,0,-90,-180,1
174,0,938.5039999999999,0,90,1,0.25,2,3,0.0,1.0,12,48.0,20.0,3,0.888,0.0,940.034,0.15,1,2019-05-30 08:15:22.000,134,2019-05-30 08:31:00.504,0.25,90,-180,90,0,1
175,0,947.102,0,90,1,0.25,2,3,0.0,1.0,12,48.0,20.0,3,0.951,0.0,947.684,0.15,1,2019-05-30 08:15:22.000,134,2019-05-30 08:31:09.102,0.25,90,-180,90,0,1
176,0,951.6,0,90,1,0.25,2,3,0.0,1.0,12,48.0,20.0,3,0.763,0.0,952.6030000000001,0.15,1,2019-05-30 08:15:22.000,134,2019-05-30 08:31:13.600,0.25,90,-180,90,0,1
177,0,956.03,0,90,1,0.25,2,9,0.0,1.0,6,48.0,20.0,9,0.701,1.0,956.395,0.15,1,2019-05-30 08:15:22.000,134,2019-05-30 08:31:18.030,0.25,-90,0,-90,-180,1
178,0,961.5110000000001,1,90,1,0.25,2,3,0.0,1.0,12,48.0,20.0,3,0.951,0.0,962.5160000000001,0.15,1,2019-05-30 08:15:22.000,134,2019-05-30 08:31:23.511,0.25,90,-180,90,0,1
179,0,967.451,1,90,1,0.25,2,3,0.0,1.0,12,48.0,20.0,3,0.888,0.0,967.87,0.15,1,2019-05-30 08:15:22.000,134,2019-05-30 08:31:29.451,0.25,90,-180,90,0,1
180,0,969.586,0,90,1,0.25,2,9,0.0,1.0,6,48.0,20.0,9,0.763,1.0,972.421,0.15,1,2019-05-30 08:15:22.000,134,2019-05-30 08:31:31.586,0.25,-90,0,-90,-180,1
181,0,976.168,1,90,1,0.25,2,3,0.0,1.0,12,48.0,20.0,3,0.826,0.0,976.705,0.15,1,2019-05-30 08:15:22.000,134,2019-05-30 08:31:38.168,0.25,90,-180,90,0,1
182,0,978.298,0,90,1,0.25,2,3,0.0,1.0,12,48.0,20.0,3,0.763,1.0,981.051,0.0,0,2019-05-30 08:15:22.000,134,2019-05-30 08:31:40.298,0.25,-90,-180,90,-180,1
184,0,988.002,0,90,1,0.25,2,3,0.0,1.0,12,48.0,20.0,3,0.888,0.0,989.6030000000001,0.15,1,2019-05-30 08:15:22.000,134,2019-05-30 08:31:50.002,0.25,90,-180,90,0,1
185,0,994.3919999999999,0,90,1,0.25,2,3,0.0,1.0,12,48.0,20.0,3,0.826,0.0,996.1030000000001,0.15,1,2019-05-30 08:15:22.000,134,2019-05-30 08:31:56.392,0.25,90,-180,90,0,1
186,0,1001.117,1,90,1,0.25,2,3,0.0,1.0,12,48.0,20.0,3,0.951,0.0,1001.758,0.15,1,2019-05-30 08:15:22.000,134,2019-05-30 08:32:03.117,0.25,90,-180,90,0,1
187,0,1003.655,0,90,1,0.25,2,9,0.0,1.0,6,48.0,20.0,9,0.701,0.0,1005.415,0.0,0,2019-05-30 08:15:22.000,134,2019-05-30 08:32:05.655,0.25,90,0,-90,0,1
189,0,1012.4069999999999,0,90,1,0.25,2,3,0.0,1.0,12,48.0,20.0,3,0.951,1.0,1014.122,0.0,0,2019-05-30 08:15:22.000,134,2019-05-30 08:32:14.407,0.25,-90,-180,90,-180,1
191,0,1022.2289999999999,1,90,1,0.25,2,9,0.0,1.0,6,48.0,20.0,9,0.826,1.0,1023.9680000000001,0.15,1,2019-05-30 08:15:22.000,134,2019-05-30 08:32:24.229,0.25,-90,0,-90,-180,1
192,0,1025.557,1,90,1,0.25,2,9,0.0,1.0,6,48.0,20.0,9,0.888,1.0,1027.309,0.15,1,2019-05-30 08:15:22.000,134,2019-05-30 08:32:27.557,0.25,-90,0,-90,-180,1
193,0,1028.725,1,90,1,0.25,2,3,0.0,1.0,12,48.0,20.0,3,0.763,0.0,1030.45,0.15,1,2019-05-30 08:15:22.000,134,2019-05-30 08:32:30.725,0.25,90,-180,90,0,1
194,0,1032.094,0,90,1,0.25,2,9,0.0,1.0,6,48.0,20.0,9,0.701,0.0,1034.738,0.0,0,2019-05-30 08:15:22.000,134,2019-05-30 08:32:34.094,0.25,90,0,-90,0,1
196,0,1044.999,1,90,1,0.25,2,9,0.0,1.0,6,48.0,20.0,9,0.826,1.0,1046.691,0.15,1,2019-05-30 08:15:22.000,134,2019-05-30 08:32:46.999,0.25,-90,0,-90,-180,1
197,0,1048.134,0,90,1,0.25,2,9,0.0,1.0,6,48.0,20.0,9,0.701,0.0,1050.119,0.0,0,2019-05-30 08:15:22.000,134,2019-05-30 08:32:50.134,0.25,90,0,-90,0,1
199,0,1056.863,0,90,1,0.25,2,9,0.0,1.0,6,48.0,20.0,9,0.951,1.0,1058.087,0.15,1,2019-05-30 08:15:22.000,134,2019-05-30 08:32:58.863,0.25,-90,0,-90,-180,1
200,0,1062.201,0,90,1,0.25,2,9,0.0,1.0,6,48.0,20.0,9,0.763,1.0,1062.875,0.15,1,2019-05-30 08:15:22.000,134,2019-05-30 08:33:04.201,0.25,-90,0,-90,-180,1
201,0,1066.253,0,90,1,0.25,2,3,0.0,1.0,12,48.0,20.0,3,0.888,0.0,1066.59,0.15,1,2019-05-30 08:15:22.000,134,2019-05-30 08:33:08.253,0.25,90,-180,90,0,1
202,0,1072.529,1,90,1,0.25,2,3,0.0,1.0,12,48.0,20.0,3,0.951,0.0,1073.245,0.15,1,2019-05-30 08:15:22.000,134,2019-05-30 08:33:14.529,0.25,90,-180,90,0,1
203,0,1074.924,0,90,1,0.25,2,3,0.0,1.0,12,48.0,20.0,3,0.826,1.0,1076.587,0.0,0,2019-05-30 08:15:22.000,134,2019-05-30 08:33:16.924,0.25,-90,-180,90,-180,1
205,0,1088.495,0,90,1,0.25,2,9,0.0,1.0,6,48.0,20.0,9,0.888,0.0,1089.047,0.0,0,2019-05-30 08:15:22.000,134,2019-05-30 08:33:30.495,0.25,90,0,-90,0,1
207,0,1104.4189999999999,1,90,1,0.25,2,9,0.0,1.0,6,48.0,20.0,9,0.701,1.0,1106.134,0.15,1,2019-05-30 08:15:22.000,134,2019-05-30 08:33:46.419,0.25,-90,0,-90,-180,1
208,0,1111.121,0,90,1,0.25,2,3,0.0,1.0,12,48.0,20.0,3,0.763,0.0,1111.848,0.15,1,2019-05-30 08:15:22.000,134,2019-05-30 08:33:53.121,0.25,90,-180,90,0,1
209,0,1115.022,1,90,1,0.25,2,9,0.0,1.0,6,48.0,20.0,9,0.888,1.0,1115.496,0.15,1,2019-05-30 08:15:22.000,134,2019-05-30 08:33:57.022,0.25,-90,0,-90,-180,1
210,0,1116.941,0,90,1,0.25,2,9,0.0,1.0,6,48.0,20.0,9,0.826,1.0,1118.222,0.15,1,2019-05-30 08:15:22.000,134,2019-05-30 08:33:58.941,0.25,-90,0,-90,-180,1
211,0,1121.692,0,90,1,0.25,2,3,0.0,1.0,12,48.0,20.0,3,0.951,0.0,1122.055,0.15,1,2019-05-30 08:15:22.000,134,2019-05-30 08:34:03.692,0.25,90,-180,90,0,1
212,0,1128.35,1,90,1,0.25,2,3,0.0,1.0,12,48.0,20.0,3,0.763,0.0,1129.357,0.15,1,2019-05-30 08:15:22.000,134,2019-05-30 08:34:10.350,0.25,90,-180,90,0,1
213,0,1130.661,0,90,1,0.25,2,3,0.0,1.0,12,48.0,20.0,3,0.701,0.0,1134.598,0.15,1,2019-05-30 08:15:22.000,134,2019-05-30 08:34:12.661,0.25,90,-180,90,0,1
214,0,1147.1689999999999,0,90,1,0.25,2,9,0.0,1.0,6,48.0,20.0,9,0.951,1.0,1147.484,0.15,1,2019-05-30 08:15:22.000,134,2019-05-30 08:34:29.169,0.25,-90,0,-90,-180,1
215,0,1150.378,0,90,1,0.25,2,9,0.0,1.0,6,48.0,20.0,9,0.763,1.0,1151.0919999999999,0.15,1,2019-05-30 08:15:22.000,134,2019-05-30 08:34:32.378,0.25,-90,0,-90,-180,1
216,0,1154.108,1,90,1,0.25,2,3,0.0,1.0,12,48.0,20.0,3,0.826,0.0,1154.64,0.15,1,2019-05-30 08:15:22.000,134,2019-05-30 08:34:36.108,0.25,90,-180,90,0,1
217,0,1156.976,1,90,1,0.25,2,3,0.0,1.0,12,48.0,20.0,3,0.701,0.0,1157.922,0.15,1,2019-05-30 08:15:22.000,134,2019-05-30 08:34:38.976,0.25,90,-180,90,0,1
218,0,1161.063,0,90,1,0.25,2,9,0.0,1.0,6,48.0,20.0,9,0.888,1.0,1163.17,0.15,1,2019-05-30 08:15:22.000,134,2019-05-30 08:34:43.063,0.25,-90,0,-90,-180,1
219,0,1169.434,1,90,1,0.25,2,3,0.0,1.0,12,48.0,20.0,3,0.763,0.0,1170.031,0.15,1,2019-05-30 08:15:22.000,134,2019-05-30 08:34:51.434,0.25,90,-180,90,0,1
220,0,1175.411,0,90,1,0.25,2,3,0.0,1.0,12,48.0,20.0,3,0.701,0.0,1175.5839999999998,0.15,1,2019-05-30 08:15:22.000,134,2019-05-30 08:34:57.411,0.25,90,-180,90,0,1
1,0,24.666,0,90,1,0.25,2,3,0.0,1.0,12,48.0,20.0,3,0.763,0.0,25.135,0.15,1,2019-05-30 14:14:04.000,175,2019-05-30 14:14:28.666,0.25,90,-180,90,0,1
2,0,30.363000000000003,1,90,1,0.25,2,3,0.0,1.0,12,48.0,20.0,3,0.951,0.0,31.682,0.15,1,2019-05-30 14:14:04.000,175,2019-05-30 14:14:34.363,0.25,90,-180,90,0,1
3,0,40.464,0,90,1,0.25,2,3,0.0,1.0,12,48.0,20.0,3,0.701,0.0,41.147,0.15,1,2019-05-30 14:14:04.000,175,2019-05-30 14:14:44.464,0.25,90,-180,90,0,1
4,0,52.231,0,90,1,0.25,2,9,0.0,1.0,6,48.0,20.0,9,0.826,1.0,52.547,0.15,1,2019-05-30 14:14:04.000,175,2019-05-30 14:14:56.231,0.25,-90,0,-90,-180,1
5,0,57.152,0,90,1,0.25,2,3,0.0,1.0,12,48.0,20.0,3,0.888,0.0,59.256,0.15,1,2019-05-30 14:14:04.000,175,2019-05-30 14:15:01.152,0.25,90,-180,90,0,1
6,0,65.513,1,90,1,0.25,2,3,0.0,1.0,12,48.0,20.0,3,0.763,0.0,65.868,0.15,1,2019-05-30 14:14:04.000,175,2019-05-30 14:15:09.513,0.25,90,-180,90,0,1
7,0,67.515,0,90,1,0.25,2,9,0.0,1.0,6,48.0,20.0,9,0.826,0.0,69.861,0.0,0,2019-05-30 14:14:04.000,175,2019-05-30 14:15:11.515,0.25,90,0,-90,0,1
9,0,76.915,0,90,1,0.25,2,9,0.0,1.0,6,48.0,20.0,9,0.951,0.0,78.357,0.0,0,2019-05-30 14:14:04.000,175,2019-05-30 14:15:20.915,0.25,90,0,-90,0,1
11,0,89.259,1,90,1,0.25,2,3,0.0,1.0,12,48.0,20.0,3,0.888,0.0,90.26299999999999,0.15,1,2019-05-30 14:14:04.000,175,2019-05-30 14:15:33.259,0.25,90,-180,90,0,1
12,0,91.725,0,90,1,0.25,2,3,0.0,1.0,12,48.0,20.0,3,0.701,1.0,93.74700000000001,0.0,0,2019-05-30 14:14:04.000,175,2019-05-30 14:15:35.725,0.25,-90,-180,90,-180,1
14,0,106.28,1,90,1,0.25,2,9,0.0,1.0,6,48.0,20.0,9,0.701,1.0,106.848,0.15,1,2019-05-30 14:14:04.000,175,2019-05-30 14:15:50.280,0.25,-90,0,-90,-180,1
15,0,109.333,0,90,1,0.25,2,9,0.0,1.0,6,48.0,20.0,9,0.888,0.0,111.75299999999999,0.0,0,2019-05-30 14:14:04.000,175,2019-05-30 14:15:53.333,0.25,90,0,-90,0,1
17,0,126.484,0,90,1,0.25,2,9,0.0,1.0,6,48.0,20.0,9,0.826,1.0,126.89299999999999,0.15,1,2019-05-30 14:14:04.000,175,2019-05-30 14:16:10.484,0.25,-90,0,-90,-180,1
18,0,131.969,1,90,1,0.25,2,3,0.0,1.0,12,48.0,20.0,3,0.951,0.0,132.153,0.15,1,2019-05-30 14:14:04.000,175,2019-05-30 14:16:15.969,0.25,90,-180,90,0,1
19,0,140.92,1,90,1,0.25,2,9,0.0,1.0,6,48.0,20.0,9,0.763,1.0,141.33,0.15,1,2019-05-30 14:14:04.000,175,2019-05-30 14:16:24.920,0.25,-90,0,-90,-180,1
20,0,142.781,0,90,1,0.25,2,9,0.0,1.0,6,48.0,20.0,9,0.763,0.0,145.352,0.0,0,2019-05-30 14:14:04.000,175,2019-05-30 14:16:26.781,0.25,90,0,-90,0,1
22,0,154.188,0,90,1,0.25,2,3,0.0,1.0,12,48.0,20.0,3,0.701,0.0,156.405,0.15,1,2019-05-30 14:14:04.000,175,2019-05-30 14:16:38.188,0.25,90,-180,90,0,1
23,0,163.949,1,90,1,0.25,2,3,0.0,1.0,12,48.0,20.0,3,0.826,0.0,164.21599999999998,0.15,1,2019-05-30 14:14:04.000,175,2019-05-30 14:16:47.949,0.25,90,-180,90,0,1
24,0,169.672,0,90,1,0.25,2,9,0.0,1.0,6,48.0,20.0,9,0.951,1.0,170.74400000000003,0.15,1,2019-05-30 14:14:04.000,175,2019-05-30 14:16:53.672,0.25,-90,0,-90,-180,1
25,0,174.933,0,90,1,0.25,2,9,0.0,1.0,6,48.0,20.0,9,0.888,0.0,175.08900000000003,0.0,0,2019-05-30 14:14:04.000,175,2019-05-30 14:16:58.933,0.25,90,0,-90,0,1
27,0,182.615,0,90,1,0.25,2,3,0.0,1.0,12,48.0,20.0,3,0.888,0.0,184.518,0.15,1,2019-05-30 14:14:04.000,175,2019-05-30 14:17:06.615,0.25,90,-180,90,0,1
28,0,189.166,0,90,1,0.25,2,9,0.0,1.0,6,48.0,20.0,9,0.763,0.0,189.604,0.0,0,2019-05-30 14:14:04.000,175,2019-05-30 14:17:13.166,0.25,90,0,-90,0,1
30,0,198.69299999999998,0,90,1,0.25,2,9,0.0,1.0,6,48.0,20.0,9,0.701,1.0,199.43900000000002,0.15,1,2019-05-30 14:14:04.000,175,2019-05-30 14:17:22.693,0.25,-90,0,-90,-180,1
31,0,203.808,1,90,1,0.25,2,3,0.0,1.0,12,48.0,20.0,3,0.826,0.0,204.49,0.15,1,2019-05-30 14:14:04.000,175,2019-05-30 14:17:27.808,0.25,90,-180,90,0,1
32,0,206.05200000000002,0,90,1,0.25,2,9,0.0,1.0,6,48.0,20.0,9,0.951,0.0,205.976,0.0,0,2019-05-30 14:14:04.000,175,2019-05-30 14:17:30.052,0.25,90,0,-90,0,1
34,0,214.05,1,90,1,0.25,2,9,0.0,1.0,6,48.0,20.0,9,0.888,1.0,215.612,0.15,1,2019-05-30 14:14:04.000,175,2019-05-30 14:17:38.050,0.25,-90,0,-90,-180,1
35,0,217.048,0,90,1,0.25,2,3,0.0,1.0,12,48.0,20.0,3,0.826,1.0,219.102,0.0,0,2019-05-30 14:14:04.000,175,2019-05-30 14:17:41.048,0.25,-90,-180,90,-180,1
37,0,226.208,0,90,1,0.25,2,9,0.0,1.0,6,48.0,20.0,9,0.951,1.0,227.365,0.15,1,2019-05-30 14:14:04.000,175,2019-05-30 14:17:50.208,0.25,-90,0,-90,-180,1
38,0,230.363,1,90,1,0.25,2,9,0.0,1.0,6,48.0,20.0,9,0.701,1.0,231.016,0.15,1,2019-05-30 14:14:04.000,175,2019-05-30 14:17:54.363,0.25,-90,0,-90,-180,1
39,0,232.377,1,90,1,0.25,2,3,0.0,1.0,12,48.0,20.0,3,0.763,0.0,234.83599999999998,0.15,1,2019-05-30 14:14:04.000,175,2019-05-30 14:17:56.377,0.25,90,-180,90,0,1
40,0,236.533,1,90,1,0.25,2,9,0.0,1.0,6,48.0,20.0,9,0.888,1.0,238.685,0.15,1,2019-05-30 14:14:04.000,175,2019-05-30 14:18:00.533,0.25,-90,0,-90,-180,1
41,0,240.146,1,90,1,0.25,2,3,0.0,1.0,12,48.0,20.0,3,0.763,0.0,242.62900000000002,0.15,1,2019-05-30 14:14:04.000,175,2019-05-30 14:18:04.146,0.25,90,-180,90,0,1
42,0,248.793,1,90,1,0.25,2,3,0.0,1.0,12,48.0,20.0,3,0.826,0.0,254.55599999999998,0.15,1,2019-05-30 14:14:04.000,175,2019-05-30 14:18:12.793,0.25,90,-180,90,0,1
43,0,255.862,1,90,1,0.25,2,9,0.0,1.0,6,48.0,20.0,9,0.701,1.0,257.574,0.15,1,2019-05-30 14:14:04.000,175,2019-05-30 14:18:19.862,0.25,-90,0,-90,-180,1
44,0,259.235,1,90,1,0.25,2,3,0.0,1.0,12,48.0,20.0,3,0.951,0.0,261.478,0.15,1,2019-05-30 14:14:04.000,175,2019-05-30 14:18:23.235,0.25,90,-180,90,0,1
45,0,263.14799999999997,0,90,1,0.25,2,3,0.0,1.0,12,48.0,20.0,3,0.888,1.0,264.586,0.0,0,2019-05-30 14:14:04.000,175,2019-05-30 14:18:27.148,0.25,-90,-180,90,-180,1
47,0,272.611,1,90,1,0.25,2,9,0.0,1.0,6,48.0,20.0,9,0.763,1.0,273.841,0.15,1,2019-05-30 14:14:04.000,175,2019-05-30 14:18:36.611,0.25,-90,0,-90,-180,1
48,0,275.452,1,90,1,0.25,2,3,0.0,1.0,12,48.0,20.0,3,0.951,0.0,277.368,0.15,1,2019-05-30 14:14:04.000,175,2019-05-30 14:18:39.452,0.25,90,-180,90,0,1
49,0,278.849,0,90,1,0.25,2,3,0.0,1.0,12,48.0,20.0,3,0.701,1.0,280.665,0.0,0,2019-05-30 14:14:04.000,175,2019-05-30 14:18:42.849,0.25,-90,-180,90,-180,1
51,0,291.676,1,90,1,0.25,2,9,0.0,1.0,6,48.0,20.0,9,0.826,1.0,292.33299999999997,0.15,1,2019-05-30 14:14:04.000,175,2019-05-30 14:18:55.676,0.25,-90,0,-90,-180,1
52,0,293.77,0,90,1,0.25,2,9,0.0,1.0,6,48.0,20.0,9,0.826,1.0,295.603,0.15,1,2019-05-30 14:14:04.000,175,2019-05-30 14:18:57.770,0.25,-90,0,-90,-180,1
53,0,298.785,1,90,1,0.25,2,9,0.0,1.0,6,48.0,20.0,9,0.763,1.0,299.501,0.15,1,2019-05-30 14:14:04.000,175,2019-05-30 14:19:02.785,0.25,-90,0,-90,-180,1
54,0,300.805,1,90,1,0.25,2,9,0.0,1.0,6,48.0,20.0,9,0.701,1.0,302.79400000000004,0.15,1,2019-05-30 14:14:04.000,175,2019-05-30 14:19:04.805,0.25,-90,0,-90,-180,1
55,0,304.43,0,90,1,0.25,2,3,0.0,1.0,12,48.0,20.0,3,0.888,0.0,306.509,0.15,1,2019-05-30 14:14:04.000,175,2019-05-30 14:19:08.430,0.25,90,-180,90,0,1
56,0,311.421,0,90,1,0.25,2,9,0.0,1.0,6,48.0,20.0,9,0.951,1.0,312.062,0.15,1,2019-05-30 14:14:04.000,175,2019-05-30 14:19:15.421,0.25,-90,0,-90,-180,1
57,0,316.455,0,90,1,0.25,2,9,0.0,1.0,6,48.0,20.0,9,0.763,1.0,316.765,0.15,1,2019-05-30 14:14:04.000,175,2019-05-30 14:19:20.455,0.25,-90,0,-90,-180,1
58,0,321.135,1,90,1,0.25,2,9,0.0,1.0,6,48.0,20.0,9,0.701,1.0,321.836,0.15,1,2019-05-30 14:14:04.000,175,2019-05-30 14:19:25.135,0.25,-90,0,-90,-180,1
59,0,323.29400000000004,0,90,1,0.25,2,3,0.0,1.0,12,48.0,20.0,3,0.826,0.0,325.41700000000003,0.15,1,2019-05-30 14:14:04.000,175,2019-05-30 14:19:27.294,0.25,90,-180,90,0,1
60,0,328.824,1,90,1,0.25,2,9,0.0,1.0,6,48.0,20.0,9,0.951,1.0,329.37199999999996,0.15,1,2019-05-30 14:14:04.000,175,2019-05-30 14:19:32.824,0.25,-90,0,-90,-180,1
61,0,330.97900000000004,0,90,1,0.25,2,9,0.0,1.0,6,48.0,20.0,9,0.888,1.0,333.00199999999995,0.15,1,2019-05-30 14:14:04.000,175,2019-05-30 14:19:34.979,0.25,-90,0,-90,-180,1
62,0,336.30400000000003,1,90,1,0.25,2,3,0.0,1.0,12,48.0,20.0,3,0.701,0.0,337.131,0.15,1,2019-05-30 14:14:04.000,175,2019-05-30 14:19:40.304,0.25,90,-180,90,0,1
63,0,343.221,1,90,1,0.25,2,3,0.0,1.0,12,48.0,20.0,3,0.888,0.0,343.755,0.15,1,2019-05-30 14:14:04.000,175,2019-05-30 14:19:47.221,0.25,90,-180,90,0,1
64,0,350.918,1,90,1,0.25,2,3,0.0,1.0,12,48.0,20.0,3,0.951,0.0,352.663,0.15,1,2019-05-30 14:14:04.000,175,2019-05-30 14:19:54.918,0.25,90,-180,90,0,1
65,0,354.111,0,90,1,0.25,2,9,0.0,1.0,6,48.0,20.0,9,0.763,1.0,355.477,0.15,1,2019-05-30 14:14:04.000,175,2019-05-30 14:19:58.111,0.25,-90,0,-90,-180,1
66,0,359.025,1,90,1,0.25,2,3,0.0,1.0,12,48.0,20.0,3,0.826,0.0,361.11199999999997,0.15,1,2019-05-30 14:14:04.000,175,2019-05-30 14:20:03.025,0.25,90,-180,90,0,1
67,0,362.68,0,90,1,0.25,2,3,0.0,1.0,12,48.0,20.0,3,0.951,0.0,364.869,0.15,1,2019-05-30 14:14:04.000,175,2019-05-30 14:20:06.680,0.25,90,-180,90,0,1
68,0,368.61,0,90,1,0.25,2,3,0.0,1.0,12,48.0,20.0,3,0.826,0.0,369.029,0.15,1,2019-05-30 14:14:04.000,175,2019-05-30 14:20:12.610,0.25,90,-180,90,0,1
69,0,374.73900000000003,0,90,1,0.25,2,9,0.0,1.0,6,48.0,20.0,9,0.888,1.0,375.32599999999996,0.15,1,2019-05-30 14:14:04.000,175,2019-05-30 14:20:18.739,0.25,-90,0,-90,-180,1
70,0,380.69800000000004,0,90,1,0.25,2,3,0.0,1.0,12,48.0,20.0,3,0.763,1.0,382.728,0.0,0,2019-05-30 14:14:04.000,175,2019-05-30 14:20:24.698,0.25,-90,-180,90,-180,1
72,0,395.00300000000004,1,90,1,0.25,2,3,0.0,1.0,12,48.0,20.0,3,0.701,0.0,395.55300000000005,0.15,1,2019-05-30 14:14:04.000,175,2019-05-30 14:20:39.003,0.25,90,-180,90,0,1
73,0,397.031,1,90,1,0.25,2,9,0.0,1.0,6,48.0,20.0,9,0.826,1.0,398.32,0.15,1,2019-05-30 14:14:04.000,175,2019-05-30 14:20:41.031,0.25,-90,0,-90,-180,1
74,0,399.903,0,90,1,0.25,2,9,0.0,1.0,6,48.0,20.0,9,0.763,1.0,401.914,0.15,1,2019-05-30 14:14:04.000,175,2019-05-30 14:20:43.903,0.25,-90,0,-90,-180,1
75,0,407.86800000000005,0,90,1,0.25,2,3,0.0,1.0,12,48.0,20.0,3,0.888,1.0,408.626,0.0,0,2019-05-30 14:14:04.000,175,2019-05-30 14:20:51.868,0.25,-90,-180,90,-180,1
77,0,415.466,0,90,1,0.25,2,9,0.0,1.0,6,48.0,20.0,9,0.701,0.0,419.36699999999996,0.0,0,2019-05-30 14:14:04.000,175,2019-05-30 14:20:59.466,0.25,90,0,-90,0,1
79,0,427.264,0,90,1,0.25,2,9,0.0,1.0,6,48.0,20.0,9,0.951,0.0,427.389,0.0,0,2019-05-30 14:14:04.000,175,2019-05-30 14:21:11.264,0.25,90,0,-90,0,1
81,0,444.51599999999996,1,90,1,0.25,2,3,0.0,1.0,12,48.0,20.0,3,0.763,0.0,445.24199999999996,0.15,1,2019-05-30 14:14:04.000,175,2019-05-30 14:21:28.516,0.25,90,-180,90,0,1
82,0,446.726,1,90,1,0.25,2,9,0.0,1.0,6,48.0,20.0,9,0.701,1.0,448.55699999999996,0.15,1,2019-05-30 14:14:04.000,175,2019-05-30 14:21:30.726,0.25,-90,0,-90,-180,1
83,0,449.995,0,90,1,0.25,2,3,0.0,1.0,12,48.0,20.0,3,0.826,0.0,452.029,0.15,1,2019-05-30 14:14:04.000,175,2019-05-30 14:21:33.995,0.25,90,-180,90,0,1
84,0,457.66900000000004,0,90,1,0.25,2,9,0.0,1.0,6,48.0,20.0,9,0.888,1.0,458.709,0.15,1,2019-05-30 14:14:04.000,175,2019-05-30 14:21:41.669,0.25,-90,0,-90,-180,1
85,0,462.12699999999995,0,90,1,0.25,2,9,0.0,1.0,6,48.0,20.0,9,0.951,0.0,462.025,0.0,0,2019-05-30 14:14:04.000,175,2019-05-30 14:21:46.127,0.25,90,0,-90,0,1
87,0,472.584,1,90,1,0.25,2,3,0.0,1.0,12,48.0,20.0,3,0.951,0.0,473.09,0.15,1,2019-05-30 14:14:04.000,175,2019-05-30 14:21:56.584,0.25,90,-180,90,0,1
88,0,474.68800000000005,0,90,1,0.25,2,3,0.0,1.0,12,48.0,20.0,3,0.826,1.0,477.095,0.0,0,2019-05-30 14:14:04.000,175,2019-05-30 14:21:58.688,0.25,-90,-180,90,-180,1
90,0,491.49199999999996,1,90,1,0.25,2,9,0.0,1.0,6,48.0,20.0,9,0.888,1.0,492.07800000000003,0.15,1,2019-05-30 14:14:04.000,175,2019-05-30 14:22:15.492,0.25,-90,0,-90,-180,1
91,0,493.30699999999996,0,90,1,0.25,2,3,0.0,1.0,12,48.0,20.0,3,0.701,0.0,495.38800000000003,0.15,1,2019-05-30 14:14:04.000,175,2019-05-30 14:22:17.307,0.25,90,-180,90,0,1
92,0,501.034,0,90,1,0.25,2,3,0.0,1.0,12,48.0,20.0,3,0.763,0.0,501.74199999999996,0.15,1,2019-05-30 14:14:04.000,175,2019-05-30 14:22:25.034,0.25,90,-180,90,0,1
93,0,507.05400000000003,1,90,1,0.25,2,9,0.0,1.0,6,48.0,20.0,9,0.701,1.0,507.376,0.15,1,2019-05-30 14:14:04.000,175,2019-05-30 14:22:31.054,0.25,-90,0,-90,-180,1
94,0,508.73199999999997,0,90,1,0.25,2,3,0.0,1.0,12,48.0,20.0,3,0.763,1.0,511.61699999999996,0.0,0,2019-05-30 14:14:04.000,175,2019-05-30 14:22:32.732,0.25,-90,-180,90,-180,1
96,0,518.965,1,90,1,0.25,2,9,0.0,1.0,6,48.0,20.0,9,0.826,1.0,520.153,0.15,1,2019-05-30 14:14:04.000,175,2019-05-30 14:22:42.965,0.25,-90,0,-90,-180,1
97,0,521.8,1,90,1,0.25,2,3,0.0,1.0,12,48.0,20.0,3,0.951,0.0,523.849,0.15,1,2019-05-30 14:14:04.000,175,2019-05-30 14:22:45.800,0.25,90,-180,90,0,1
98,0,525.387,1,90,1,0.25,2,3,0.0,1.0,12,48.0,20.0,3,0.888,0.0,527.366,0.15,1,2019-05-30 14:14:04.000,175,2019-05-30 14:22:49.387,0.25,90,-180,90,0,1
99,0,528.929,1,90,1,0.25,2,9,0.0,1.0,6,48.0,20.0,9,0.888,1.0,530.534,0.15,1,2019-05-30 14:14:04.000,175,2019-05-30 14:22:52.929,0.25,-90,0,-90,-180,1
