Trial,CorrectionTrial,StartTime,CenterReward,CenterSpoutRotation,nStimReps,Duration,Modality,LED Location,LED_trial_V,LED_bgnd_V,Speaker Location,Speaker_trial_V,Speaker_bgnd_V,TargetSpout,HoldTime,Response,RespTime,ValveTime,Correct,SessionDate,SessionID,StartDateTime,StimulusTotalDuration,response_angle_world,speaker_angle_world,speaker_angle_platform,response_angle_platform,not_probe
1,0,41.792,0,0,1,0.25,2,9,0.0,1.0,6,45.0,20.0,9,0.501,0.0,0.0,0.0,0,2019-11-25 09:45:38.000,40,2019-11-25 09:46:19.792,0.25,90,0,0,90,1
4,0,87.852,0,0,1,0.25,2,3,0.0,1.0,12,45.0,20.0,3,0.601,1.0,89.74,0.0,0,2019-11-25 09:45:38.000,40,2019-11-25 09:47:05.852,0.25,-90,-180,-180,-90,1
7,0,124.07700000000001,0,0,1,0.25,2,3,0.0,1.0,12,45.0,20.0,3,0.701,0.0,0.0,0.15,1,2019-11-25 09:45:38.000,40,2019-11-25 09:47:42.077,0.25,90,-180,-180,90,1
8,0,133.034,0,0,1,0.25,2,9,0.0,1.0,6,45.0,20.0,9,0.6509999999999999,0.0,0.0,0.0,0,2019-11-25 09:45:38.000,40,2019-11-25 09:47:51.034,0.25,90,0,0,90,1
10,0,149.345,0,0,1,0.25,2,3,0.0,1.0,12,45.0,20.0,3,0.551,1.0,150.974,0.0,0,2019-11-25 09:45:38.000,40,2019-11-25 09:48:07.345,0.25,-90,-180,-180,-90,1
12,0,170.82299999999998,0,0,1,0.25,2,3,0.0,1.0,12,45.0,20.0,3,0.501,0.0,0.0,0.15,1,2019-11-25 09:45:38.000,40,2019-11-25 09:48:28.823,0.25,90,-180,-180,90,1
13,0,177.78099999999998,0,0,1,0.25,2,3,0.0,1.0,12,45.0,20.0,3,0.701,0.0,0.0,0.15,1,2019-11-25 09:45:38.000,40,2019-11-25 09:48:35.781,0.25,90,-180,-180,90,1
14,0,185.63,0,0,1,0.25,2,3,0.0,1.0,12,45.0,20.0,3,0.601,0.0,0.0,0.15,1,2019-11-25 09:45:38.000,40,2019-11-25 09:48:43.630,0.25,90,-180,-180,90,1
15,0,191.93200000000002,0,0,1,0.25,2,9,0.0,1.0,6,45.0,20.0,9,0.551,1.0,195.641,0.15,1,2019-11-25 09:45:38.000,40,2019-11-25 09:48:49.932,0.25,-90,0,0,-90,1
16,0,202.18099999999998,0,0,1,0.25,2,3,0.0,1.0,12,45.0,20.0,3,0.6509999999999999,0.0,0.0,0.15,1,2019-11-25 09:45:38.000,40,2019-11-25 09:49:00.181,0.25,90,-180,-180,90,1
17,0,208.321,0,0,1,0.25,2,3,0.0,1.0,12,45.0,20.0,3,0.701,0.0,0.0,0.15,1,2019-11-25 09:45:38.000,40,2019-11-25 09:49:06.321,0.25,90,-180,-180,90,1
18,0,214.555,0,0,1,0.25,2,9,0.0,1.0,6,45.0,20.0,9,0.551,1.0,220.321,0.15,1,2019-11-25 09:45:38.000,40,2019-11-25 09:49:12.555,0.25,-90,0,0,-90,1
19,0,227.662,1,0,1,0.25,2,9,0.0,1.0,6,45.0,20.0,9,0.501,1.0,231.435,0.15,1,2019-11-25 09:45:38.000,40,2019-11-25 09:49:25.662,0.25,-90,0,0,-90,1
20,0,237.247,1,0,1,0.25,2,3,0.0,1.0,12,45.0,20.0,3,0.6509999999999999,1.0,240.457,0.0,0,2019-11-25 09:45:38.000,40,2019-11-25 09:49:35.247,0.25,-90,-180,-180,-90,1
22,0,252.158,0,0,1,0.25,2,9,0.0,1.0,6,45.0,20.0,9,0.601,1.0,253.96,0.15,1,2019-11-25 09:45:38.000,40,2019-11-25 09:49:50.158,0.25,-90,0,0,-90,1
23,0,260.497,0,0,1,0.25,2,9,0.0,1.0,6,45.0,20.0,9,0.601,1.0,262.531,0.15,1,2019-11-25 09:45:38.000,40,2019-11-25 09:49:58.497,0.25,-90,0,0,-90,1
24,0,268.617,0,0,1,0.25,2,9,0.0,1.0,6,45.0,20.0,9,0.501,0.0,0.0,0.0,0,2019-11-25 09:45:38.000,40,2019-11-25 09:50:06.617,0.25,90,0,0,90,1
26,0,287.784,0,0,1,0.25,2,9,0.0,1.0,6,45.0,20.0,9,0.551,1.0,289.57599999999996,0.15,1,2019-11-25 09:45:38.000,40,2019-11-25 09:50:25.784,0.25,-90,0,0,-90,1
27,0,294.856,0,0,1,0.25,2,3,0.0,1.0,12,45.0,20.0,3,0.701,1.0,296.509,0.0,0,2019-11-25 09:45:38.000,40,2019-11-25 09:50:32.856,0.25,-90,-180,-180,-90,1
29,0,317.21299999999997,0,0,1,0.25,2,9,0.0,1.0,6,45.0,20.0,9,0.6509999999999999,1.0,318.873,0.15,1,2019-11-25 09:45:38.000,40,2019-11-25 09:50:55.213,0.25,-90,0,0,-90,1
30,0,324.18,0,0,1,0.25,2,9,0.0,1.0,6,45.0,20.0,9,0.501,1.0,326.286,0.15,1,2019-11-25 09:45:38.000,40,2019-11-25 09:51:02.180,0.25,-90,0,0,-90,1
31,0,330.767,0,0,1,0.25,2,9,0.0,1.0,6,45.0,20.0,9,0.551,1.0,332.42900000000003,0.15,1,2019-11-25 09:45:38.000,40,2019-11-25 09:51:08.767,0.25,-90,0,0,-90,1
32,0,338.588,0,0,1,0.25,2,3,0.0,1.0,12,45.0,20.0,3,0.6509999999999999,1.0,340.37199999999996,0.0,0,2019-11-25 09:45:38.000,40,2019-11-25 09:51:16.588,0.25,-90,-180,-180,-90,1
34,0,353.841,0,0,1,0.25,2,9,0.0,1.0,6,45.0,20.0,9,0.701,1.0,355.142,0.15,1,2019-11-25 09:45:38.000,40,2019-11-25 09:51:31.841,0.25,-90,0,0,-90,1
35,0,360.54400000000004,0,0,1,0.25,2,9,0.0,1.0,6,45.0,20.0,9,0.601,1.0,362.522,0.15,1,2019-11-25 09:45:38.000,40,2019-11-25 09:51:38.544,0.25,-90,0,0,-90,1
36,0,366.85699999999997,0,0,1,0.25,2,9,0.0,1.0,6,45.0,20.0,9,0.601,1.0,368.832,0.15,1,2019-11-25 09:45:38.000,40,2019-11-25 09:51:44.857,0.25,-90,0,0,-90,1
37,0,373.347,0,0,1,0.25,2,3,0.0,1.0,12,45.0,20.0,3,0.551,1.0,375.712,0.0,0,2019-11-25 09:45:38.000,40,2019-11-25 09:51:51.347,0.25,-90,-180,-180,-90,1
39,0,390.87,0,0,1,0.25,2,9,0.0,1.0,6,45.0,20.0,9,0.501,1.0,392.29699999999997,0.15,1,2019-11-25 09:45:38.000,40,2019-11-25 09:52:08.870,0.25,-90,0,0,-90,1
40,0,399.51599999999996,0,0,1,0.25,2,9,0.0,1.0,6,45.0,20.0,9,0.6509999999999999,1.0,401.347,0.15,1,2019-11-25 09:45:38.000,40,2019-11-25 09:52:17.516,0.25,-90,0,0,-90,1
41,0,405.875,0,0,1,0.25,2,3,0.0,1.0,12,45.0,20.0,3,0.701,1.0,408.19,0.0,0,2019-11-25 09:45:38.000,40,2019-11-25 09:52:23.875,0.25,-90,-180,-180,-90,1
43,0,438.962,0,0,1,0.25,2,3,0.0,1.0,12,45.0,20.0,3,0.6509999999999999,1.0,442.02,0.0,0,2019-11-25 09:45:38.000,40,2019-11-25 09:52:56.962,0.25,-90,-180,-180,-90,1
45,0,460.079,0,0,1,0.25,2,3,0.0,1.0,12,45.0,20.0,3,0.501,0.0,0.0,0.15,1,2019-11-25 09:45:38.000,40,2019-11-25 09:53:18.079,0.25,90,-180,-180,90,1
46,0,486.35400000000004,0,0,1,0.25,2,9,0.0,1.0,6,45.0,20.0,9,0.701,1.0,487.968,0.15,1,2019-11-25 09:45:38.000,40,2019-11-25 09:53:44.354,0.25,-90,0,0,-90,1
47,0,493.329,0,0,1,0.25,2,3,0.0,1.0,12,45.0,20.0,3,0.601,0.0,0.0,0.15,1,2019-11-25 09:45:38.000,40,2019-11-25 09:53:51.329,0.25,90,-180,-180,90,1
48,0,518.6519999999999,0,0,1,0.25,2,3,0.0,1.0,12,45.0,20.0,3,0.551,1.0,520.034,0.0,0,2019-11-25 09:45:38.000,40,2019-11-25 09:54:16.652,0.25,-90,-180,-180,-90,1
50,0,543.178,0,0,1,0.25,2,3,0.0,1.0,12,45.0,20.0,3,0.601,0.0,0.0,0.15,1,2019-11-25 09:45:38.000,40,2019-11-25 09:54:41.178,0.25,90,-180,-180,90,1
51,0,573.214,0,0,1,0.25,2,9,0.0,1.0,6,45.0,20.0,9,0.701,1.0,574.992,0.15,1,2019-11-25 09:45:38.000,40,2019-11-25 09:55:11.214,0.25,-90,0,0,-90,1
52,0,597.763,0,0,1,0.25,2,3,0.0,1.0,12,45.0,20.0,3,0.551,0.0,0.0,0.15,1,2019-11-25 09:45:38.000,40,2019-11-25 09:55:35.763,0.25,90,-180,-180,90,1
53,0,603.631,0,0,1,0.25,2,3,0.0,1.0,12,45.0,20.0,3,0.501,0.0,0.0,0.15,1,2019-11-25 09:45:38.000,40,2019-11-25 09:55:41.631,0.25,90,-180,-180,90,1
54,0,609.862,0,0,1,0.25,2,9,0.0,1.0,6,45.0,20.0,9,0.6509999999999999,1.0,611.322,0.15,1,2019-11-25 09:45:38.000,40,2019-11-25 09:55:47.862,0.25,-90,0,0,-90,1
55,0,616.601,0,0,1,0.25,2,9,0.0,1.0,6,45.0,20.0,9,0.551,1.0,618.8,0.15,1,2019-11-25 09:45:38.000,40,2019-11-25 09:55:54.601,0.25,-90,0,0,-90,1
56,0,623.96,0,0,1,0.25,2,9,0.0,1.0,6,45.0,20.0,9,0.6509999999999999,1.0,626.0419999999999,0.15,1,2019-11-25 09:45:38.000,40,2019-11-25 09:56:01.960,0.25,-90,0,0,-90,1
1,0,29.122,0,0,1,0.25,2,9,0.0,1.0,6,45.0,20.0,9,0.551,1.0,30.761999999999997,0.15,1,2019-11-25 16:40:36.000,90,2019-11-25 16:41:05.122,0.25,-90,0,0,-90,1
2,0,38.317,0,0,1,0.25,2,9,0.0,1.0,6,45.0,20.0,9,0.501,0.0,0.0,0.0,0,2019-11-25 16:40:36.000,90,2019-11-25 16:41:14.317,0.25,90,0,0,90,1
5,0,72.67699999999999,0,0,1,0.25,2,3,0.0,1.0,12,45.0,20.0,3,0.701,0.0,0.0,0.15,1,2019-11-25 16:40:36.000,90,2019-11-25 16:41:48.677,0.25,90,-180,-180,90,1
6,0,79.13600000000001,0,0,1,0.25,2,3,0.0,1.0,12,45.0,20.0,3,0.6509999999999999,0.0,0.0,0.15,1,2019-11-25 16:40:36.000,90,2019-11-25 16:41:55.136,0.25,90,-180,-180,90,1
7,0,85.95,0,0,1,0.25,2,9,0.0,1.0,6,45.0,20.0,9,0.601,1.0,87.22,0.15,1,2019-11-25 16:40:36.000,90,2019-11-25 16:42:01.950,0.25,-90,0,0,-90,1
8,0,92.855,0,0,1,0.25,2,3,0.0,1.0,12,45.0,20.0,3,0.551,0.0,0.0,0.15,1,2019-11-25 16:40:36.000,90,2019-11-25 16:42:08.855,0.25,90,-180,-180,90,1
9,0,110.896,0,0,1,0.25,2,3,0.0,1.0,12,45.0,20.0,3,0.701,0.0,0.0,0.15,1,2019-11-25 16:40:36.000,90,2019-11-25 16:42:26.896,0.25,90,-180,-180,90,1
10,0,125.25,0,0,1,0.25,2,9,0.0,1.0,6,45.0,20.0,9,0.6509999999999999,1.0,126.801,0.15,1,2019-11-25 16:40:36.000,90,2019-11-25 16:42:41.250,0.25,-90,0,0,-90,1
11,0,134.444,0,0,1,0.25,2,3,0.0,1.0,12,45.0,20.0,3,0.601,0.0,0.0,0.15,1,2019-11-25 16:40:36.000,90,2019-11-25 16:42:50.444,0.25,90,-180,-180,90,1
12,0,147.631,0,0,1,0.25,2,3,0.0,1.0,12,45.0,20.0,3,0.501,1.0,150.661,0.0,0,2019-11-25 16:40:36.000,90,2019-11-25 16:43:03.631,0.25,-90,-180,-180,-90,1
14,0,168.31599999999997,0,0,1,0.25,2,3,0.0,1.0,12,45.0,20.0,3,0.501,0.0,0.0,0.15,1,2019-11-25 16:40:36.000,90,2019-11-25 16:43:24.316,0.25,90,-180,-180,90,1
15,0,186.78900000000002,0,0,1,0.25,2,3,0.0,1.0,12,45.0,20.0,3,0.701,1.0,188.29,0.0,0,2019-11-25 16:40:36.000,90,2019-11-25 16:43:42.789,0.25,-90,-180,-180,-90,1
17,0,230.195,0,0,1,0.25,2,9,0.0,1.0,6,45.0,20.0,9,0.6509999999999999,1.0,232.1,0.15,1,2019-11-25 16:40:36.000,90,2019-11-25 16:44:26.195,0.25,-90,0,0,-90,1
18,0,241.768,0,0,1,0.25,2,9,0.0,1.0,6,45.0,20.0,9,0.601,1.0,244.046,0.15,1,2019-11-25 16:40:36.000,90,2019-11-25 16:44:37.768,0.25,-90,0,0,-90,1
19,0,261.32099999999997,0,0,1,0.25,2,3,0.0,1.0,12,45.0,20.0,3,0.551,0.0,0.0,0.15,1,2019-11-25 16:40:36.000,90,2019-11-25 16:44:57.321,0.25,90,-180,-180,90,1
20,0,274.79400000000004,0,0,1,0.25,2,9,0.0,1.0,6,45.0,20.0,9,0.501,1.0,276.546,0.15,1,2019-11-25 16:40:36.000,90,2019-11-25 16:45:10.794,0.25,-90,0,0,-90,1
21,0,285.615,0,0,1,0.25,2,9,0.0,1.0,6,45.0,20.0,9,0.601,0.0,0.0,0.0,0,2019-11-25 16:40:36.000,90,2019-11-25 16:45:21.615,0.25,90,0,0,90,1
23,0,304.981,0,0,1,0.25,2,3,0.0,1.0,12,45.0,20.0,3,0.701,0.0,0.0,0.15,1,2019-11-25 16:40:36.000,90,2019-11-25 16:45:40.981,0.25,90,-180,-180,90,1
24,0,327.137,0,0,1,0.25,2,9,0.0,1.0,6,45.0,20.0,9,0.551,1.0,329.38300000000004,0.15,1,2019-11-25 16:40:36.000,90,2019-11-25 16:46:03.137,0.25,-90,0,0,-90,1
25,0,363.04900000000004,0,0,1,0.25,2,9,0.0,1.0,6,45.0,20.0,9,0.6509999999999999,1.0,364.9,0.15,1,2019-11-25 16:40:36.000,90,2019-11-25 16:46:39.049,0.25,-90,0,0,-90,1
26,0,372.74300000000005,0,0,1,0.25,2,3,0.0,1.0,12,45.0,20.0,3,0.501,0.0,0.0,0.15,1,2019-11-25 16:40:36.000,90,2019-11-25 16:46:48.743,0.25,90,-180,-180,90,1
27,0,393.147,0,0,1,0.25,2,3,0.0,1.0,12,45.0,20.0,3,0.551,0.0,0.0,0.15,1,2019-11-25 16:40:36.000,90,2019-11-25 16:47:09.147,0.25,90,-180,-180,90,1
28,0,413.13300000000004,0,0,1,0.25,2,9,0.0,1.0,6,45.0,20.0,9,0.601,1.0,415.195,0.15,1,2019-11-25 16:40:36.000,90,2019-11-25 16:47:29.133,0.25,-90,0,0,-90,1
29,0,420.74300000000005,0,0,1,0.25,2,3,0.0,1.0,12,45.0,20.0,3,0.6509999999999999,0.0,0.0,0.15,1,2019-11-25 16:40:36.000,90,2019-11-25 16:47:36.743,0.25,90,-180,-180,90,1
30,0,436.517,0,0,1,0.25,2,9,0.0,1.0,6,45.0,20.0,9,0.701,1.0,438.25699999999995,0.15,1,2019-11-25 16:40:36.000,90,2019-11-25 16:47:52.517,0.25,-90,0,0,-90,1
31,0,443.333,0,0,1,0.25,2,3,0.0,1.0,12,45.0,20.0,3,0.501,0.0,0.0,0.15,1,2019-11-25 16:40:36.000,90,2019-11-25 16:47:59.333,0.25,90,-180,-180,90,1
32,0,460.26800000000003,0,0,1,0.25,2,9,0.0,1.0,6,45.0,20.0,9,0.6509999999999999,1.0,462.208,0.15,1,2019-11-25 16:40:36.000,90,2019-11-25 16:48:16.268,0.25,-90,0,0,-90,1
33,0,467.851,0,0,1,0.25,2,9,0.0,1.0,6,45.0,20.0,9,0.551,0.0,0.0,0.0,0,2019-11-25 16:40:36.000,90,2019-11-25 16:48:23.851,0.25,90,0,0,90,1
35,0,500.085,0,0,1,0.25,2,3,0.0,1.0,12,45.0,20.0,3,0.601,0.0,0.0,0.15,1,2019-11-25 16:40:36.000,90,2019-11-25 16:48:56.085,0.25,90,-180,-180,90,1
36,0,515.2,0,0,1,0.25,2,9,0.0,1.0,6,45.0,20.0,9,0.701,1.0,517.7819999999999,0.15,1,2019-11-25 16:40:36.000,90,2019-11-25 16:49:11.200,0.25,-90,0,0,-90,1
37,0,522.567,0,0,1,0.25,2,9,0.0,1.0,6,45.0,20.0,9,0.701,1.0,524.991,0.15,1,2019-11-25 16:40:36.000,90,2019-11-25 16:49:18.567,0.25,-90,0,0,-90,1
38,0,530.452,0,0,1,0.25,2,9,0.0,1.0,6,45.0,20.0,9,0.551,1.0,532.837,0.15,1,2019-11-25 16:40:36.000,90,2019-11-25 16:49:26.452,0.25,-90,0,0,-90,1
39,0,544.831,0,0,1,0.25,2,3,0.0,1.0,12,45.0,20.0,3,0.601,0.0,0.0,0.15,1,2019-11-25 16:40:36.000,90,2019-11-25 16:49:40.831,0.25,90,-180,-180,90,1
40,0,565.0740000000001,0,0,1,0.25,2,9,0.0,1.0,6,45.0,20.0,9,0.6509999999999999,1.0,567.138,0.15,1,2019-11-25 16:40:36.000,90,2019-11-25 16:50:01.074,0.25,-90,0,0,-90,1
41,0,572.018,0,0,1,0.25,2,3,0.0,1.0,12,45.0,20.0,3,0.501,0.0,0.0,0.15,1,2019-11-25 16:40:36.000,90,2019-11-25 16:50:08.018,0.25,90,-180,-180,90,1
42,0,586.374,0,0,1,0.25,2,9,0.0,1.0,6,45.0,20.0,9,0.551,1.0,588.684,0.15,1,2019-11-25 16:40:36.000,90,2019-11-25 16:50:22.374,0.25,-90,0,0,-90,1
43,0,593.556,0,0,1,0.25,2,3,0.0,1.0,12,45.0,20.0,3,0.601,0.0,0.0,0.15,1,2019-11-25 16:40:36.000,90,2019-11-25 16:50:29.556,0.25,90,-180,-180,90,1
44,0,599.935,0,0,1,0.25,2,3,0.0,1.0,12,45.0,20.0,3,0.501,0.0,0.0,0.15,1,2019-11-25 16:40:36.000,90,2019-11-25 16:50:35.935,0.25,90,-180,-180,90,1
45,0,606.957,0,0,1,0.25,2,9,0.0,1.0,6,45.0,20.0,9,0.701,1.0,608.508,0.15,1,2019-11-25 16:40:36.000,90,2019-11-25 16:50:42.957,0.25,-90,0,0,-90,1
46,0,613.201,0,0,1,0.25,2,3,0.0,1.0,12,45.0,20.0,3,0.6509999999999999,0.0,0.0,0.15,1,2019-11-25 16:40:36.000,90,2019-11-25 16:50:49.201,0.25,90,-180,-180,90,1
47,0,620.865,0,0,1,0.25,2,9,0.0,1.0,6,45.0,20.0,9,0.6509999999999999,0.0,0.0,0.0,0,2019-11-25 16:40:36.000,90,2019-11-25 16:50:56.865,0.25,90,0,0,90,1
49,0,653.2180000000001,0,0,1,0.25,2,3,0.0,1.0,12,45.0,20.0,3,0.551,0.0,0.0,0.15,1,2019-11-25 16:40:36.000,90,2019-11-25 16:51:29.218,0.25,90,-180,-180,90,1
50,0,669.327,0,0,1,0.25,2,9,0.0,1.0,6,45.0,20.0,9,0.701,1.0,671.507,0.15,1,2019-11-25 16:40:36.000,90,2019-11-25 16:51:45.327,0.25,-90,0,0,-90,1
51,0,677.572,0,0,1,0.25,2,3,0.0,1.0,12,45.0,20.0,3,0.501,1.0,680.5,0.0,0,2019-11-25 16:40:36.000,90,2019-11-25 16:51:53.572,0.25,-90,-180,-180,-90,1
53,0,701.8589999999999,0,0,1,0.25,2,3,0.0,1.0,12,45.0,20.0,3,0.601,0.0,0.0,0.15,1,2019-11-25 16:40:36.000,90,2019-11-25 16:52:17.859,0.25,90,-180,-180,90,1
54,0,711.422,0,0,1,0.25,2,9,0.0,1.0,6,45.0,20.0,9,0.551,1.0,713.052,0.15,1,2019-11-25 16:40:36.000,90,2019-11-25 16:52:27.422,0.25,-90,0,0,-90,1
55,0,720.455,0,0,1,0.25,2,3,0.0,1.0,12,45.0,20.0,3,0.601,0.0,0.0,0.15,1,2019-11-25 16:40:36.000,90,2019-11-25 16:52:36.455,0.25,90,-180,-180,90,1
56,0,752.431,0,0,1,0.25,2,3,0.0,1.0,12,45.0,20.0,3,0.701,1.0,754.1410000000001,0.0,0,2019-11-25 16:40:36.000,90,2019-11-25 16:53:08.431,0.25,-90,-180,-180,-90,1
58,0,800.362,0,0,1,0.25,2,3,0.0,1.0,12,45.0,20.0,3,0.6509999999999999,0.0,0.0,0.15,1,2019-11-25 16:40:36.000,90,2019-11-25 16:53:56.362,0.25,90,-180,-180,90,1
59,0,806.9689999999999,0,0,1,0.25,2,9,0.0,1.0,6,45.0,20.0,9,0.501,1.0,808.6030000000001,0.15,1,2019-11-25 16:40:36.000,90,2019-11-25 16:54:02.969,0.25,-90,0,0,-90,1
60,0,813.957,0,0,1,0.25,2,3,0.0,1.0,12,45.0,20.0,3,0.551,1.0,816.372,0.0,0,2019-11-25 16:40:36.000,90,2019-11-25 16:54:09.957,0.25,-90,-180,-180,-90,1
1,0,15.533,0,0,1,0.25,2,9,0.0,1.0,6,45.0,20.0,9,0.701,0.0,0.0,0.0,0,2019-11-26 10:00:47.000,86,2019-11-26 10:01:02.533,0.25,90,0,0,90,1
6,0,90.711,0,0,1,0.25,2,9,0.0,1.0,6,45.0,20.0,9,0.601,1.0,92.686,0.15,1,2019-11-26 10:00:47.000,86,2019-11-26 10:02:17.711,0.25,-90,0,0,-90,1
7,0,105.238,0,0,1,0.25,2,3,0.0,1.0,12,45.0,20.0,3,0.551,0.0,0.0,0.15,1,2019-11-26 10:00:47.000,86,2019-11-26 10:02:32.238,0.25,90,-180,-180,90,1
8,0,113.046,0,0,1,0.25,2,9,0.0,1.0,6,45.0,20.0,9,0.6509999999999999,1.0,114.586,0.15,1,2019-11-26 10:00:47.000,86,2019-11-26 10:02:40.046,0.25,-90,0,0,-90,1
9,0,122.38799999999999,0,0,1,0.25,2,9,0.0,1.0,6,45.0,20.0,9,0.501,1.0,124.476,0.15,1,2019-11-26 10:00:47.000,86,2019-11-26 10:02:49.388,0.25,-90,0,0,-90,1
10,0,139.086,0,0,1,0.25,2,9,0.0,1.0,6,45.0,20.0,9,0.601,0.0,0.0,0.0,0,2019-11-26 10:00:47.000,86,2019-11-26 10:03:06.086,0.25,90,0,0,90,1
14,0,205.072,0,0,1,0.25,2,3,0.0,1.0,12,45.0,20.0,3,0.551,0.0,0.0,0.15,1,2019-11-26 10:00:47.000,86,2019-11-26 10:04:12.072,0.25,90,-180,-180,90,1
15,0,211.549,0,0,1,0.25,2,3,0.0,1.0,12,45.0,20.0,3,0.701,0.0,0.0,0.15,1,2019-11-26 10:00:47.000,86,2019-11-26 10:04:18.549,0.25,90,-180,-180,90,1
16,0,218.907,0,0,1,0.25,2,3,0.0,1.0,12,45.0,20.0,3,0.501,0.0,0.0,0.15,1,2019-11-26 10:00:47.000,86,2019-11-26 10:04:25.907,0.25,90,-180,-180,90,1
17,0,226.643,0,0,1,0.25,2,3,0.0,1.0,12,45.0,20.0,3,0.6509999999999999,0.0,0.0,0.15,1,2019-11-26 10:00:47.000,86,2019-11-26 10:04:33.643,0.25,90,-180,-180,90,1
18,0,233.485,0,0,1,0.25,2,3,0.0,1.0,12,45.0,20.0,3,0.501,0.0,0.0,0.15,1,2019-11-26 10:00:47.000,86,2019-11-26 10:04:40.485,0.25,90,-180,-180,90,1
19,0,240.565,0,0,1,0.25,2,3,0.0,1.0,12,45.0,20.0,3,0.551,0.0,0.0,0.15,1,2019-11-26 10:00:47.000,86,2019-11-26 10:04:47.565,0.25,90,-180,-180,90,1
20,0,248.021,0,0,1,0.25,2,9,0.0,1.0,6,45.0,20.0,9,0.6509999999999999,0.0,0.0,0.0,0,2019-11-26 10:00:47.000,86,2019-11-26 10:04:55.021,0.25,90,0,0,90,1
23,0,276.777,0,0,1,0.25,2,3,0.0,1.0,12,45.0,20.0,3,0.601,0.0,0.0,0.15,1,2019-11-26 10:00:47.000,86,2019-11-26 10:05:23.777,0.25,90,-180,-180,90,1
24,0,288.741,0,0,1,0.25,2,3,0.0,1.0,12,45.0,20.0,3,0.701,0.0,0.0,0.15,1,2019-11-26 10:00:47.000,86,2019-11-26 10:05:35.741,0.25,90,-180,-180,90,1
25,0,307.365,0,0,1,0.25,2,3,0.0,1.0,12,45.0,20.0,3,0.701,1.0,309.135,0.0,0,2019-11-26 10:00:47.000,86,2019-11-26 10:05:54.365,0.25,-90,-180,-180,-90,1
27,0,322.704,0,0,1,0.25,2,9,0.0,1.0,6,45.0,20.0,9,0.6509999999999999,0.0,0.0,0.0,0,2019-11-26 10:00:47.000,86,2019-11-26 10:06:09.704,0.25,90,0,0,90,1
29,0,340.165,0,0,1,0.25,2,9,0.0,1.0,6,45.0,20.0,9,0.601,1.0,342.135,0.15,1,2019-11-26 10:00:47.000,86,2019-11-26 10:06:27.165,0.25,-90,0,0,-90,1
30,0,364.67800000000005,0,0,1,0.25,2,9,0.0,1.0,6,45.0,20.0,9,0.501,1.0,367.25300000000004,0.15,1,2019-11-26 10:00:47.000,86,2019-11-26 10:06:51.678,0.25,-90,0,0,-90,1
31,0,377.961,1,0,1,0.25,2,9,0.0,1.0,6,45.0,20.0,9,0.551,1.0,383.204,0.15,1,2019-11-26 10:00:47.000,86,2019-11-26 10:07:04.961,0.25,-90,0,0,-90,1
32,0,387.11800000000005,0,0,1,0.25,2,3,0.0,1.0,12,45.0,20.0,3,0.501,0.0,0.0,0.15,1,2019-11-26 10:00:47.000,86,2019-11-26 10:07:14.118,0.25,90,-180,-180,90,1
33,0,395.194,0,0,1,0.25,2,9,0.0,1.0,6,45.0,20.0,9,0.551,0.0,0.0,0.0,0,2019-11-26 10:00:47.000,86,2019-11-26 10:07:22.194,0.25,90,0,0,90,1
35,0,413.092,0,0,1,0.25,2,3,0.0,1.0,12,45.0,20.0,3,0.6509999999999999,0.0,0.0,0.15,1,2019-11-26 10:00:47.000,86,2019-11-26 10:07:40.092,0.25,90,-180,-180,90,1
36,0,419.725,0,0,1,0.25,2,9,0.0,1.0,6,45.0,20.0,9,0.701,0.0,0.0,0.0,0,2019-11-26 10:00:47.000,86,2019-11-26 10:07:46.725,0.25,90,0,0,90,1
38,0,440.62199999999996,0,0,1,0.25,2,9,0.0,1.0,6,45.0,20.0,9,0.601,1.0,443.17199999999997,0.15,1,2019-11-26 10:00:47.000,86,2019-11-26 10:08:07.622,0.25,-90,0,0,-90,1
39,0,451.039,0,0,1,0.25,2,3,0.0,1.0,12,45.0,20.0,3,0.601,0.0,0.0,0.15,1,2019-11-26 10:00:47.000,86,2019-11-26 10:08:18.039,0.25,90,-180,-180,90,1
40,0,457.594,0,0,1,0.25,2,3,0.0,1.0,12,45.0,20.0,3,0.701,0.0,0.0,0.15,1,2019-11-26 10:00:47.000,86,2019-11-26 10:08:24.594,0.25,90,-180,-180,90,1
41,0,464.444,0,0,1,0.25,2,9,0.0,1.0,6,45.0,20.0,9,0.6509999999999999,1.0,466.343,0.15,1,2019-11-26 10:00:47.000,86,2019-11-26 10:08:31.444,0.25,-90,0,0,-90,1
42,0,475.43699999999995,0,0,1,0.25,2,3,0.0,1.0,12,45.0,20.0,3,0.551,0.0,0.0,0.15,1,2019-11-26 10:00:47.000,86,2019-11-26 10:08:42.437,0.25,90,-180,-180,90,1
43,0,482.559,0,0,1,0.25,2,9,0.0,1.0,6,45.0,20.0,9,0.501,1.0,485.205,0.15,1,2019-11-26 10:00:47.000,86,2019-11-26 10:08:49.559,0.25,-90,0,0,-90,1
44,0,496.49800000000005,0,0,1,0.25,2,9,0.0,1.0,6,45.0,20.0,9,0.501,1.0,499.19800000000004,0.15,1,2019-11-26 10:00:47.000,86,2019-11-26 10:09:03.498,0.25,-90,0,0,-90,1
45,0,504.846,0,0,1,0.25,2,3,0.0,1.0,12,45.0,20.0,3,0.701,1.0,507.61,0.0,0,2019-11-26 10:00:47.000,86,2019-11-26 10:09:11.846,0.25,-90,-180,-180,-90,1
47,0,520.49,0,0,1,0.25,2,9,0.0,1.0,6,45.0,20.0,9,0.6509999999999999,1.0,522.202,0.15,1,2019-11-26 10:00:47.000,86,2019-11-26 10:09:27.490,0.25,-90,0,0,-90,1
48,0,531.56,0,0,1,0.25,2,3,0.0,1.0,12,45.0,20.0,3,0.551,0.0,0.0,0.15,1,2019-11-26 10:00:47.000,86,2019-11-26 10:09:38.560,0.25,90,-180,-180,90,1
49,0,538.21,0,0,1,0.25,2,3,0.0,1.0,12,45.0,20.0,3,0.601,1.0,540.217,0.0,0,2019-11-26 10:00:47.000,86,2019-11-26 10:09:45.210,0.25,-90,-180,-180,-90,1
51,0,553.876,0,0,1,0.25,2,9,0.0,1.0,6,45.0,20.0,9,0.501,1.0,555.6709999999999,0.15,1,2019-11-26 10:00:47.000,86,2019-11-26 10:10:00.876,0.25,-90,0,0,-90,1
52,0,560.638,0,0,1,0.25,2,9,0.0,1.0,6,45.0,20.0,9,0.6509999999999999,1.0,562.835,0.15,1,2019-11-26 10:00:47.000,86,2019-11-26 10:10:07.638,0.25,-90,0,0,-90,1
53,0,568.5830000000001,0,0,1,0.25,2,3,0.0,1.0,12,45.0,20.0,3,0.601,1.0,571.857,0.0,0,2019-11-26 10:00:47.000,86,2019-11-26 10:10:15.583,0.25,-90,-180,-180,-90,1
55,0,586.336,0,0,1,0.25,2,9,0.0,1.0,6,45.0,20.0,9,0.551,1.0,588.128,0.15,1,2019-11-26 10:00:47.000,86,2019-11-26 10:10:33.336,0.25,-90,0,0,-90,1
56,0,593.855,0,0,1,0.25,2,3,0.0,1.0,12,45.0,20.0,3,0.701,1.0,596.4019999999999,0.0,0,2019-11-26 10:00:47.000,86,2019-11-26 10:10:40.855,0.25,-90,-180,-180,-90,1
58,0,621.377,0,0,1,0.25,2,9,0.0,1.0,6,45.0,20.0,9,0.701,1.0,623.549,0.15,1,2019-11-26 10:00:47.000,86,2019-11-26 10:11:08.377,0.25,-90,0,0,-90,1
59,0,628.026,0,0,1,0.25,2,9,0.0,1.0,6,45.0,20.0,9,0.501,1.0,630.25,0.15,1,2019-11-26 10:00:47.000,86,2019-11-26 10:11:15.026,0.25,-90,0,0,-90,1
60,0,635.8240000000001,1,0,1,0.25,2,9,0.0,1.0,6,45.0,20.0,9,0.6509999999999999,1.0,640.325,0.15,1,2019-11-26 10:00:47.000,86,2019-11-26 10:11:22.824,0.25,-90,0,0,-90,1
61,0,662.551,0,0,1,0.25,2,9,0.0,1.0,6,45.0,20.0,9,0.551,1.0,665.0169999999999,0.15,1,2019-11-26 10:00:47.000,86,2019-11-26 10:11:49.551,0.25,-90,0,0,-90,1
62,0,671.512,1,0,1,0.25,2,3,0.0,1.0,12,45.0,20.0,3,0.601,1.0,676.8530000000001,0.0,0,2019-11-26 10:00:47.000,86,2019-11-26 10:11:58.512,0.25,-90,-180,-180,-90,1
65,0,704.7639999999999,1,0,1,0.25,2,9,0.0,1.0,6,45.0,20.0,9,0.551,1.0,713.383,0.15,1,2019-11-26 10:00:47.000,86,2019-11-26 10:12:31.764,0.25,-90,0,0,-90,1
66,0,718.0369999999999,0,0,1,0.25,2,9,0.0,1.0,6,45.0,20.0,9,0.501,1.0,720.0310000000001,0.15,1,2019-11-26 10:00:47.000,86,2019-11-26 10:12:45.037,0.25,-90,0,0,-90,1
67,0,725.377,0,0,1,0.25,2,3,0.0,1.0,12,45.0,20.0,3,0.601,0.0,0.0,0.15,1,2019-11-26 10:00:47.000,86,2019-11-26 10:12:52.377,0.25,90,-180,-180,90,1
68,0,735.691,0,0,1,0.25,2,9,0.0,1.0,6,45.0,20.0,9,0.701,1.0,737.5889999999999,0.15,1,2019-11-26 10:00:47.000,86,2019-11-26 10:13:02.691,0.25,-90,0,0,-90,1
69,0,742.4739999999999,0,0,1,0.25,2,9,0.0,1.0,6,45.0,20.0,9,0.6509999999999999,1.0,744.3689999999999,0.15,1,2019-11-26 10:00:47.000,86,2019-11-26 10:13:09.474,0.25,-90,0,0,-90,1
70,0,749.752,0,0,1,0.25,2,3,0.0,1.0,12,45.0,20.0,3,0.501,0.0,0.0,0.15,1,2019-11-26 10:00:47.000,86,2019-11-26 10:13:16.752,0.25,90,-180,-180,90,1
71,0,776.0110000000001,0,0,1,0.25,2,3,0.0,1.0,12,45.0,20.0,3,0.701,0.0,0.0,0.15,1,2019-11-26 10:00:47.000,86,2019-11-26 10:13:43.011,0.25,90,-180,-180,90,1
72,0,782.677,0,0,1,0.25,2,3,0.0,1.0,12,45.0,20.0,3,0.551,0.0,0.0,0.15,1,2019-11-26 10:00:47.000,86,2019-11-26 10:13:49.677,0.25,90,-180,-180,90,1
73,0,795.529,0,0,1,0.25,2,3,0.0,1.0,12,45.0,20.0,3,0.601,0.0,0.0,0.15,1,2019-11-26 10:00:47.000,86,2019-11-26 10:14:02.529,0.25,90,-180,-180,90,1
74,0,809.9810000000001,0,0,1,0.25,2,9,0.0,1.0,6,45.0,20.0,9,0.6509999999999999,1.0,811.965,0.15,1,2019-11-26 10:00:47.000,86,2019-11-26 10:14:16.981,0.25,-90,0,0,-90,1
75,0,816.797,0,0,1,0.25,2,3,0.0,1.0,12,45.0,20.0,3,0.551,0.0,0.0,0.15,1,2019-11-26 10:00:47.000,86,2019-11-26 10:14:23.797,0.25,90,-180,-180,90,1
76,0,832.54,0,0,1,0.25,2,3,0.0,1.0,12,45.0,20.0,3,0.601,0.0,0.0,0.15,1,2019-11-26 10:00:47.000,86,2019-11-26 10:14:39.540,0.25,90,-180,-180,90,1
77,0,838.829,0,0,1,0.25,2,9,0.0,1.0,6,45.0,20.0,9,0.501,1.0,840.539,0.15,1,2019-11-26 10:00:47.000,86,2019-11-26 10:14:45.829,0.25,-90,0,0,-90,1
78,0,845.7410000000001,0,0,1,0.25,2,3,0.0,1.0,12,45.0,20.0,3,0.6509999999999999,0.0,0.0,0.15,1,2019-11-26 10:00:47.000,86,2019-11-26 10:14:52.741,0.25,90,-180,-180,90,1
79,0,852.659,0,0,1,0.25,2,3,0.0,1.0,12,45.0,20.0,3,0.701,0.0,0.0,0.15,1,2019-11-26 10:00:47.000,86,2019-11-26 10:14:59.659,0.25,90,-180,-180,90,1
80,0,860.753,0,0,1,0.25,2,9,0.0,1.0,6,45.0,20.0,9,0.701,1.0,862.562,0.15,1,2019-11-26 10:00:47.000,86,2019-11-26 10:15:07.753,0.25,-90,0,0,-90,1
81,0,867.211,0,0,1,0.25,2,3,0.0,1.0,12,45.0,20.0,3,0.501,0.0,0.0,0.15,1,2019-11-26 10:00:47.000,86,2019-11-26 10:15:14.211,0.25,90,-180,-180,90,1
82,0,882.73,0,0,1,0.25,2,9,0.0,1.0,6,45.0,20.0,9,0.6509999999999999,1.0,884.3589999999999,0.15,1,2019-11-26 10:00:47.000,86,2019-11-26 10:15:29.730,0.25,-90,0,0,-90,1
83,0,889.554,0,0,1,0.25,2,9,0.0,1.0,6,45.0,20.0,9,0.601,1.0,891.845,0.15,1,2019-11-26 10:00:47.000,86,2019-11-26 10:15:36.554,0.25,-90,0,0,-90,1
84,0,906.934,0,0,1,0.25,2,9,0.0,1.0,6,45.0,20.0,9,0.551,1.0,908.87,0.15,1,2019-11-26 10:00:47.000,86,2019-11-26 10:15:53.934,0.25,-90,0,0,-90,1
85,0,914.2719999999999,0,0,1,0.25,2,9,0.0,1.0,6,45.0,20.0,9,0.701,1.0,916.3689999999999,0.15,1,2019-11-26 10:00:47.000,86,2019-11-26 10:16:01.272,0.25,-90,0,0,-90,1
86,0,921.798,0,0,1,0.25,2,3,0.0,1.0,12,45.0,20.0,3,0.551,0.0,0.0,0.15,1,2019-11-26 10:00:47.000,86,2019-11-26 10:16:08.798,0.25,90,-180,-180,90,1
87,0,930.2,0,0,1,0.25,2,9,0.0,1.0,6,45.0,20.0,9,0.601,1.0,931.872,0.15,1,2019-11-26 10:00:47.000,86,2019-11-26 10:16:17.200,0.25,-90,0,0,-90,1
88,0,937.885,0,0,1,0.25,2,3,0.0,1.0,12,45.0,20.0,3,0.6509999999999999,0.0,0.0,0.15,1,2019-11-26 10:00:47.000,86,2019-11-26 10:16:24.885,0.25,90,-180,-180,90,1
89,0,945.319,0,0,1,0.25,2,3,0.0,1.0,12,45.0,20.0,3,0.501,0.0,0.0,0.15,1,2019-11-26 10:00:47.000,86,2019-11-26 10:16:32.319,0.25,90,-180,-180,90,1
90,0,955.02,0,0,1,0.25,2,3,0.0,1.0,12,45.0,20.0,3,0.6509999999999999,0.0,0.0,0.15,1,2019-11-26 10:00:47.000,86,2019-11-26 10:16:42.020,0.25,90,-180,-180,90,1
91,0,961.939,0,0,1,0.25,2,9,0.0,1.0,6,45.0,20.0,9,0.701,1.0,963.553,0.15,1,2019-11-26 10:00:47.000,86,2019-11-26 10:16:48.939,0.25,-90,0,0,-90,1
92,0,968.913,0,0,1,0.25,2,3,0.0,1.0,12,45.0,20.0,3,0.551,0.0,0.0,0.15,1,2019-11-26 10:00:47.000,86,2019-11-26 10:16:55.913,0.25,90,-180,-180,90,1
93,0,975.4580000000001,0,0,1,0.25,2,3,0.0,1.0,12,45.0,20.0,3,0.501,0.0,0.0,0.15,1,2019-11-26 10:00:47.000,86,2019-11-26 10:17:02.458,0.25,90,-180,-180,90,1
94,0,991.831,0,0,1,0.25,2,3,0.0,1.0,12,45.0,20.0,3,0.601,1.0,993.4069999999999,0.0,0,2019-11-26 10:00:47.000,86,2019-11-26 10:17:18.831,0.25,-90,-180,-180,-90,1
96,0,1014.179,0,0,1,0.25,2,3,0.0,1.0,12,45.0,20.0,3,0.501,1.0,1016.1560000000001,0.0,0,2019-11-26 10:00:47.000,86,2019-11-26 10:17:41.179,0.25,-90,-180,-180,-90,1
98,0,1050.527,0,0,1,0.25,2,9,0.0,1.0,6,45.0,20.0,9,0.6509999999999999,1.0,1052.245,0.15,1,2019-11-26 10:00:47.000,86,2019-11-26 10:18:17.527,0.25,-90,0,0,-90,1
99,0,1057.032,0,0,1,0.25,2,3,0.0,1.0,12,45.0,20.0,3,0.601,0.0,0.0,0.15,1,2019-11-26 10:00:47.000,86,2019-11-26 10:18:24.032,0.25,90,-180,-180,90,1
100,0,1080.39,0,0,1,0.25,2,9,0.0,1.0,6,45.0,20.0,9,0.701,1.0,1081.848,0.15,1,2019-11-26 10:00:47.000,86,2019-11-26 10:18:47.390,0.25,-90,0,0,-90,1
101,0,1093.86,0,0,1,0.25,2,9,0.0,1.0,6,45.0,20.0,9,0.551,1.0,1095.529,0.15,1,2019-11-26 10:00:47.000,86,2019-11-26 10:19:00.860,0.25,-90,0,0,-90,1
102,0,1101.383,0,0,1,0.25,2,3,0.0,1.0,12,45.0,20.0,3,0.601,0.0,0.0,0.15,1,2019-11-26 10:00:47.000,86,2019-11-26 10:19:08.383,0.25,90,-180,-180,90,1
103,0,1109.141,0,0,1,0.25,2,3,0.0,1.0,12,45.0,20.0,3,0.501,0.0,0.0,0.15,1,2019-11-26 10:00:47.000,86,2019-11-26 10:19:16.141,0.25,90,-180,-180,90,1
104,0,1127.527,0,0,1,0.25,2,9,0.0,1.0,6,45.0,20.0,9,0.701,1.0,1129.767,0.15,1,2019-11-26 10:00:47.000,86,2019-11-26 10:19:34.527,0.25,-90,0,0,-90,1
105,0,1135.839,0,0,1,0.25,2,9,0.0,1.0,6,45.0,20.0,9,0.551,1.0,1138.093,0.15,1,2019-11-26 10:00:47.000,86,2019-11-26 10:19:42.839,0.25,-90,0,0,-90,1
106,0,1150.942,0,0,1,0.25,2,3,0.0,1.0,12,45.0,20.0,3,0.6509999999999999,0.0,0.0,0.15,1,2019-11-26 10:00:47.000,86,2019-11-26 10:19:57.942,0.25,90,-180,-180,90,1
107,0,1159.443,0,0,1,0.25,2,3,0.0,1.0,12,45.0,20.0,3,0.551,1.0,1161.5710000000001,0.0,0,2019-11-26 10:00:47.000,86,2019-11-26 10:20:06.443,0.25,-90,-180,-180,-90,1
109,0,1185.433,0,0,1,0.25,2,9,0.0,1.0,6,45.0,20.0,9,0.701,0.0,0.0,0.0,0,2019-11-26 10:00:47.000,86,2019-11-26 10:20:32.433,0.25,90,0,0,90,1
1,0,51.172,0,180,1,0.25,2,9,0.0,1.0,6,45.0,20.0,9,0.551,1.0,52.733000000000004,0.15,1,2019-11-26 15:04:52.000,84,2019-11-26 15:05:43.172,0.25,-90,0,-180,90,1
2,0,74.766,0,180,1,0.25,2,9,0.0,1.0,6,45.0,20.0,9,0.701,1.0,76.365,0.15,1,2019-11-26 15:04:52.000,84,2019-11-26 15:06:06.766,0.25,-90,0,-180,90,1
3,0,88.01799999999999,0,180,1,0.25,2,3,0.0,1.0,12,45.0,20.0,3,0.501,0.0,0.0,0.15,1,2019-11-26 15:04:52.000,84,2019-11-26 15:06:20.018,0.25,90,-180,0,-90,1
4,0,95.789,0,180,1,0.25,2,9,0.0,1.0,6,45.0,20.0,9,0.601,1.0,97.685,0.15,1,2019-11-26 15:04:52.000,84,2019-11-26 15:06:27.789,0.25,-90,0,-180,90,1
5,0,105.464,0,180,1,0.25,2,3,0.0,1.0,12,45.0,20.0,3,0.6509999999999999,0.0,0.0,0.15,1,2019-11-26 15:04:52.000,84,2019-11-26 15:06:37.464,0.25,90,-180,0,-90,1
6,0,113.455,0,180,1,0.25,2,9,0.0,1.0,6,45.0,20.0,9,0.551,1.0,115.412,0.15,1,2019-11-26 15:04:52.000,84,2019-11-26 15:06:45.455,0.25,-90,0,-180,90,1
7,0,124.041,0,180,1,0.25,2,3,0.0,1.0,12,45.0,20.0,3,0.501,1.0,125.594,0.0,0,2019-11-26 15:04:52.000,84,2019-11-26 15:06:56.041,0.25,-90,-180,0,90,1
9,0,140.88,0,180,1,0.25,2,3,0.0,1.0,12,45.0,20.0,3,0.701,1.0,142.799,0.0,0,2019-11-26 15:04:52.000,84,2019-11-26 15:07:12.880,0.25,-90,-180,0,90,1
11,0,163.417,0,180,1,0.25,2,9,0.0,1.0,6,45.0,20.0,9,0.6509999999999999,1.0,165.658,0.15,1,2019-11-26 15:04:52.000,84,2019-11-26 15:07:35.417,0.25,-90,0,-180,90,1
12,0,173.92700000000002,0,180,1,0.25,2,9,0.0,1.0,6,45.0,20.0,9,0.601,1.0,175.532,0.15,1,2019-11-26 15:04:52.000,84,2019-11-26 15:07:45.927,0.25,-90,0,-180,90,1
13,0,185.106,0,180,1,0.25,2,3,0.0,1.0,12,45.0,20.0,3,0.6509999999999999,0.0,0.0,0.15,1,2019-11-26 15:04:52.000,84,2019-11-26 15:07:57.106,0.25,90,-180,0,-90,1
14,0,192.842,0,180,1,0.25,2,3,0.0,1.0,12,45.0,20.0,3,0.701,0.0,0.0,0.15,1,2019-11-26 15:04:52.000,84,2019-11-26 15:08:04.842,0.25,90,-180,0,-90,1
15,0,199.8,0,180,1,0.25,2,9,0.0,1.0,6,45.0,20.0,9,0.501,1.0,201.797,0.15,1,2019-11-26 15:04:52.000,84,2019-11-26 15:08:11.800,0.25,-90,0,-180,90,1
16,0,210.66099999999997,0,180,1,0.25,2,3,0.0,1.0,12,45.0,20.0,3,0.601,0.0,0.0,0.15,1,2019-11-26 15:04:52.000,84,2019-11-26 15:08:22.661,0.25,90,-180,0,-90,1
17,0,217.49200000000002,0,180,1,0.25,2,9,0.0,1.0,6,45.0,20.0,9,0.551,0.0,0.0,0.0,0,2019-11-26 15:04:52.000,84,2019-11-26 15:08:29.492,0.25,90,0,-180,-90,1
19,0,242.102,0,180,1,0.25,2,3,0.0,1.0,12,45.0,20.0,3,0.501,0.0,0.0,0.15,1,2019-11-26 15:04:52.000,84,2019-11-26 15:08:54.102,0.25,90,-180,0,-90,1
20,0,249.115,0,180,1,0.25,2,9,0.0,1.0,6,45.0,20.0,9,0.6509999999999999,1.0,250.942,0.15,1,2019-11-26 15:04:52.000,84,2019-11-26 15:09:01.115,0.25,-90,0,-180,90,1
21,0,257.34,0,180,1,0.25,2,9,0.0,1.0,6,45.0,20.0,9,0.551,0.0,0.0,0.0,0,2019-11-26 15:04:52.000,84,2019-11-26 15:09:09.340,0.25,90,0,-180,-90,1
23,0,289.155,0,180,1,0.25,2,3,0.0,1.0,12,45.0,20.0,3,0.701,0.0,0.0,0.15,1,2019-11-26 15:04:52.000,84,2019-11-26 15:09:41.155,0.25,90,-180,0,-90,1
24,0,296.473,0,180,1,0.25,2,3,0.0,1.0,12,45.0,20.0,3,0.601,1.0,298.611,0.0,0,2019-11-26 15:04:52.000,84,2019-11-26 15:09:48.473,0.25,-90,-180,0,90,1
26,0,320.88599999999997,0,180,1,0.25,2,3,0.0,1.0,12,45.0,20.0,3,0.601,0.0,0.0,0.15,1,2019-11-26 15:04:52.000,84,2019-11-26 15:10:12.886,0.25,90,-180,0,-90,1
27,0,330.94,0,180,1,0.25,2,9,0.0,1.0,6,45.0,20.0,9,0.6509999999999999,1.0,332.814,0.15,1,2019-11-26 15:04:52.000,84,2019-11-26 15:10:22.940,0.25,-90,0,-180,90,1
28,0,339.17,0,180,1,0.25,2,3,0.0,1.0,12,45.0,20.0,3,0.551,0.0,0.0,0.15,1,2019-11-26 15:04:52.000,84,2019-11-26 15:10:31.170,0.25,90,-180,0,-90,1
29,0,345.825,0,180,1,0.25,2,9,0.0,1.0,6,45.0,20.0,9,0.501,1.0,348.23900000000003,0.15,1,2019-11-26 15:04:52.000,84,2019-11-26 15:10:37.825,0.25,-90,0,-180,90,1
30,0,354.75699999999995,1,180,1,0.25,2,3,0.0,1.0,12,45.0,20.0,3,0.701,0.0,0.0,0.15,1,2019-11-26 15:04:52.000,84,2019-11-26 15:10:46.757,0.25,90,-180,0,-90,1
31,0,370.319,0,180,1,0.25,2,3,0.0,1.0,12,45.0,20.0,3,0.701,0.0,0.0,0.15,1,2019-11-26 15:04:52.000,84,2019-11-26 15:11:02.319,0.25,90,-180,0,-90,1
32,0,378.659,0,180,1,0.25,2,9,0.0,1.0,6,45.0,20.0,9,0.6509999999999999,1.0,380.954,0.15,1,2019-11-26 15:04:52.000,84,2019-11-26 15:11:10.659,0.25,-90,0,-180,90,1
33,0,387.985,0,180,1,0.25,2,9,0.0,1.0,6,45.0,20.0,9,0.601,0.0,0.0,0.0,0,2019-11-26 15:04:52.000,84,2019-11-26 15:11:19.985,0.25,90,0,-180,-90,1
35,0,407.148,0,180,1,0.25,2,9,0.0,1.0,6,45.0,20.0,9,0.501,0.0,0.0,0.0,0,2019-11-26 15:04:52.000,84,2019-11-26 15:11:39.148,0.25,90,0,-180,-90,1
37,0,434.569,0,180,1,0.25,2,9,0.0,1.0,6,45.0,20.0,9,0.551,1.0,436.094,0.15,1,2019-11-26 15:04:52.000,84,2019-11-26 15:12:06.569,0.25,-90,0,-180,90,1
38,0,444.51300000000003,0,180,1,0.25,2,9,0.0,1.0,6,45.0,20.0,9,0.501,0.0,0.0,0.0,0,2019-11-26 15:04:52.000,84,2019-11-26 15:12:16.513,0.25,90,0,-180,-90,1
41,0,488.926,0,180,1,0.25,2,3,0.0,1.0,12,45.0,20.0,3,0.701,1.0,491.469,0.0,0,2019-11-26 15:04:52.000,84,2019-11-26 15:13:00.926,0.25,-90,-180,0,90,1
43,0,509.19199999999995,0,180,1,0.25,2,9,0.0,1.0,6,45.0,20.0,9,0.6509999999999999,1.0,511.18699999999995,0.15,1,2019-11-26 15:04:52.000,84,2019-11-26 15:13:21.192,0.25,-90,0,-180,90,1
44,0,517.339,0,180,1,0.25,2,3,0.0,1.0,12,45.0,20.0,3,0.551,0.0,0.0,0.15,1,2019-11-26 15:04:52.000,84,2019-11-26 15:13:29.339,0.25,90,-180,0,-90,1
45,0,523.476,0,180,1,0.25,2,9,0.0,1.0,6,45.0,20.0,9,0.601,0.0,0.0,0.0,0,2019-11-26 15:04:52.000,84,2019-11-26 15:13:35.476,0.25,90,0,-180,-90,1
47,0,551.015,0,180,1,0.25,2,9,0.0,1.0,6,45.0,20.0,9,0.6509999999999999,1.0,552.448,0.15,1,2019-11-26 15:04:52.000,84,2019-11-26 15:14:03.015,0.25,-90,0,-180,90,1
48,0,559.33,0,180,1,0.25,2,3,0.0,1.0,12,45.0,20.0,3,0.601,0.0,0.0,0.15,1,2019-11-26 15:04:52.000,84,2019-11-26 15:14:11.330,0.25,90,-180,0,-90,1
49,0,568.102,0,180,1,0.25,2,3,0.0,1.0,12,45.0,20.0,3,0.501,0.0,0.0,0.15,1,2019-11-26 15:04:52.000,84,2019-11-26 15:14:20.102,0.25,90,-180,0,-90,1
50,0,575.512,0,180,1,0.25,2,3,0.0,1.0,12,45.0,20.0,3,0.551,0.0,0.0,0.15,1,2019-11-26 15:04:52.000,84,2019-11-26 15:14:27.512,0.25,90,-180,0,-90,1
51,0,584.105,0,180,1,0.25,2,3,0.0,1.0,12,45.0,20.0,3,0.701,1.0,586.554,0.0,0,2019-11-26 15:04:52.000,84,2019-11-26 15:14:36.105,0.25,-90,-180,0,90,1
53,0,611.27,0,180,1,0.25,2,9,0.0,1.0,6,45.0,20.0,9,0.6509999999999999,1.0,613.264,0.15,1,2019-11-26 15:04:52.000,84,2019-11-26 15:15:03.270,0.25,-90,0,-180,90,1
54,0,623.298,0,180,1,0.25,2,9,0.0,1.0,6,45.0,20.0,9,0.551,1.0,625.064,0.15,1,2019-11-26 15:04:52.000,84,2019-11-26 15:15:15.298,0.25,-90,0,-180,90,1
55,0,634.643,0,180,1,0.25,2,3,0.0,1.0,12,45.0,20.0,3,0.701,0.0,0.0,0.15,1,2019-11-26 15:04:52.000,84,2019-11-26 15:15:26.643,0.25,90,-180,0,-90,1
56,0,643.924,0,180,1,0.25,2,9,0.0,1.0,6,45.0,20.0,9,0.601,1.0,645.8,0.15,1,2019-11-26 15:04:52.000,84,2019-11-26 15:15:35.924,0.25,-90,0,-180,90,1
57,0,652.825,0,180,1,0.25,2,9,0.0,1.0,6,45.0,20.0,9,0.501,0.0,0.0,0.0,0,2019-11-26 15:04:52.000,84,2019-11-26 15:15:44.825,0.25,90,0,-180,-90,1
59,0,684.212,0,180,1,0.25,2,9,0.0,1.0,6,45.0,20.0,9,0.601,1.0,685.7560000000001,0.15,1,2019-11-26 15:04:52.000,84,2019-11-26 15:16:16.212,0.25,-90,0,-180,90,1
60,0,691.248,0,180,1,0.25,2,3,0.0,1.0,12,45.0,20.0,3,0.501,1.0,693.175,0.0,0,2019-11-26 15:04:52.000,84,2019-11-26 15:16:23.248,0.25,-90,-180,0,90,1
62,0,716.7760000000001,0,180,1,0.25,2,3,0.0,1.0,12,45.0,20.0,3,0.701,0.0,0.0,0.15,1,2019-11-26 15:04:52.000,84,2019-11-26 15:16:48.776,0.25,90,-180,0,-90,1
63,0,725.9110000000001,0,180,1,0.25,2,3,0.0,1.0,12,45.0,20.0,3,0.6509999999999999,0.0,0.0,0.15,1,2019-11-26 15:04:52.000,84,2019-11-26 15:16:57.911,0.25,90,-180,0,-90,1
64,0,732.87,0,180,1,0.25,2,3,0.0,1.0,12,45.0,20.0,3,0.551,0.0,0.0,0.15,1,2019-11-26 15:04:52.000,84,2019-11-26 15:17:04.870,0.25,90,-180,0,-90,1
65,0,743.9830000000001,0,180,1,0.25,2,3,0.0,1.0,12,45.0,20.0,3,0.551,1.0,745.954,0.0,0,2019-11-26 15:04:52.000,84,2019-11-26 15:17:15.983,0.25,-90,-180,0,90,1
67,0,759.053,0,180,1,0.25,2,3,0.0,1.0,12,45.0,20.0,3,0.601,1.0,760.926,0.0,0,2019-11-26 15:04:52.000,84,2019-11-26 15:17:31.053,0.25,-90,-180,0,90,1
69,0,784.85,0,180,1,0.25,2,9,0.0,1.0,6,45.0,20.0,9,0.501,1.0,786.32,0.15,1,2019-11-26 15:04:52.000,84,2019-11-26 15:17:56.850,0.25,-90,0,-180,90,1
70,0,792.702,0,180,1,0.25,2,3,0.0,1.0,12,45.0,20.0,3,0.701,0.0,0.0,0.15,1,2019-11-26 15:04:52.000,84,2019-11-26 15:18:04.702,0.25,90,-180,0,-90,1
71,0,800.4730000000001,0,180,1,0.25,2,3,0.0,1.0,12,45.0,20.0,3,0.6509999999999999,0.0,0.0,0.15,1,2019-11-26 15:04:52.000,84,2019-11-26 15:18:12.473,0.25,90,-180,0,-90,1
72,0,807.5310000000001,0,180,1,0.25,2,3,0.0,1.0,12,45.0,20.0,3,0.601,0.0,0.0,0.15,1,2019-11-26 15:04:52.000,84,2019-11-26 15:18:19.531,0.25,90,-180,0,-90,1
73,0,814.612,0,180,1,0.25,2,9,0.0,1.0,6,45.0,20.0,9,0.501,1.0,816.112,0.15,1,2019-11-26 15:04:52.000,84,2019-11-26 15:18:26.612,0.25,-90,0,-180,90,1
74,0,822.3889999999999,1,180,1,0.25,2,9,0.0,1.0,6,45.0,20.0,9,0.6509999999999999,1.0,827.8380000000001,0.15,1,2019-11-26 15:04:52.000,84,2019-11-26 15:18:34.389,0.25,-90,0,-180,90,1
75,0,833.357,0,180,1,0.25,2,9,0.0,1.0,6,45.0,20.0,9,0.551,1.0,835.757,0.15,1,2019-11-26 15:04:52.000,84,2019-11-26 15:18:45.357,0.25,-90,0,-180,90,1
76,0,850.3,0,180,1,0.25,2,9,0.0,1.0,6,45.0,20.0,9,0.701,1.0,852.055,0.15,1,2019-11-26 15:04:52.000,84,2019-11-26 15:19:02.300,0.25,-90,0,-180,90,1
77,0,857.4789999999999,0,180,1,0.25,2,3,0.0,1.0,12,45.0,20.0,3,0.701,0.0,0.0,0.15,1,2019-11-26 15:04:52.000,84,2019-11-26 15:19:09.479,0.25,90,-180,0,-90,1
78,0,864.0010000000001,0,180,1,0.25,2,9,0.0,1.0,6,45.0,20.0,9,0.601,1.0,865.985,0.15,1,2019-11-26 15:04:52.000,84,2019-11-26 15:19:16.001,0.25,-90,0,-180,90,1
79,0,872.7639999999999,0,180,1,0.25,2,3,0.0,1.0,12,45.0,20.0,3,0.501,0.0,0.0,0.15,1,2019-11-26 15:04:52.000,84,2019-11-26 15:19:24.764,0.25,90,-180,0,-90,1
80,0,879.4910000000001,0,180,1,0.25,2,9,0.0,1.0,6,45.0,20.0,9,0.6509999999999999,1.0,881.362,0.15,1,2019-11-26 15:04:52.000,84,2019-11-26 15:19:31.491,0.25,-90,0,-180,90,1
81,0,887.115,1,180,1,0.25,2,9,0.0,1.0,6,45.0,20.0,9,0.551,1.0,893.186,0.15,1,2019-11-26 15:04:52.000,84,2019-11-26 15:19:39.115,0.25,-90,0,-180,90,1
82,0,899.107,0,180,1,0.25,2,3,0.0,1.0,12,45.0,20.0,3,0.601,1.0,902.055,0.0,0,2019-11-26 15:04:52.000,84,2019-11-26 15:19:51.107,0.25,-90,-180,0,90,1
85,0,925.377,0,180,1,0.25,2,9,0.0,1.0,6,45.0,20.0,9,0.501,1.0,927.3560000000001,0.15,1,2019-11-26 15:04:52.000,84,2019-11-26 15:20:17.377,0.25,-90,0,-180,90,1
86,0,933.0319999999999,0,180,1,0.25,2,9,0.0,1.0,6,45.0,20.0,9,0.701,1.0,935.263,0.15,1,2019-11-26 15:04:52.000,84,2019-11-26 15:20:25.032,0.25,-90,0,-180,90,1
87,0,952.3480000000001,0,180,1,0.25,2,9,0.0,1.0,6,45.0,20.0,9,0.551,1.0,953.806,0.15,1,2019-11-26 15:04:52.000,84,2019-11-26 15:20:44.348,0.25,-90,0,-180,90,1
88,0,960.467,0,180,1,0.25,2,3,0.0,1.0,12,45.0,20.0,3,0.6509999999999999,1.0,963.16,0.0,0,2019-11-26 15:04:52.000,84,2019-11-26 15:20:52.467,0.25,-90,-180,0,90,1
90,0,977.335,0,180,1,0.25,2,9,0.0,1.0,6,45.0,20.0,9,0.501,1.0,979.518,0.15,1,2019-11-26 15:04:52.000,84,2019-11-26 15:21:09.335,0.25,-90,0,-180,90,1
91,0,989.707,0,180,1,0.25,2,3,0.0,1.0,12,45.0,20.0,3,0.6509999999999999,0.0,0.0,0.15,1,2019-11-26 15:04:52.000,84,2019-11-26 15:21:21.707,0.25,90,-180,0,-90,1
92,0,995.804,0,180,1,0.25,2,9,0.0,1.0,6,45.0,20.0,9,0.701,1.0,997.755,0.15,1,2019-11-26 15:04:52.000,84,2019-11-26 15:21:27.804,0.25,-90,0,-180,90,1
93,0,1005.449,0,180,1,0.25,2,3,0.0,1.0,12,45.0,20.0,3,0.551,1.0,1007.306,0.0,0,2019-11-26 15:04:52.000,84,2019-11-26 15:21:37.449,0.25,-90,-180,0,90,1
95,0,1026.803,0,180,1,0.25,2,3,0.0,1.0,12,45.0,20.0,3,0.601,1.0,1028.825,0.0,0,2019-11-26 15:04:52.000,84,2019-11-26 15:21:58.803,0.25,-90,-180,0,90,1
97,0,1047.985,0,180,1,0.25,2,9,0.0,1.0,6,45.0,20.0,9,0.701,1.0,1049.611,0.15,1,2019-11-26 15:04:52.000,84,2019-11-26 15:22:19.985,0.25,-90,0,-180,90,1
98,0,1055.018,0,180,1,0.25,2,3,0.0,1.0,12,45.0,20.0,3,0.551,0.0,0.0,0.15,1,2019-11-26 15:04:52.000,84,2019-11-26 15:22:27.018,0.25,90,-180,0,-90,1
99,0,1061.317,0,180,1,0.25,2,3,0.0,1.0,12,45.0,20.0,3,0.6509999999999999,0.0,0.0,0.15,1,2019-11-26 15:04:52.000,84,2019-11-26 15:22:33.317,0.25,90,-180,0,-90,1
100,0,1078.275,0,180,1,0.25,2,3,0.0,1.0,12,45.0,20.0,3,0.601,0.0,0.0,0.15,1,2019-11-26 15:04:52.000,84,2019-11-26 15:22:50.275,0.25,90,-180,0,-90,1
101,0,1084.947,0,180,1,0.25,2,9,0.0,1.0,6,45.0,20.0,9,0.501,1.0,1086.8339999999998,0.15,1,2019-11-26 15:04:52.000,84,2019-11-26 15:22:56.947,0.25,-90,0,-180,90,1
102,0,1093.642,0,180,1,0.25,2,3,0.0,1.0,12,45.0,20.0,3,0.551,1.0,1095.001,0.0,0,2019-11-26 15:04:52.000,84,2019-11-26 15:23:05.642,0.25,-90,-180,0,90,1
104,0,1108.479,0,180,1,0.25,2,3,0.0,1.0,12,45.0,20.0,3,0.501,0.0,0.0,0.15,1,2019-11-26 15:04:52.000,84,2019-11-26 15:23:20.479,0.25,90,-180,0,-90,1
105,0,1123.239,0,180,1,0.25,2,3,0.0,1.0,12,45.0,20.0,3,0.701,1.0,1124.89,0.0,0,2019-11-26 15:04:52.000,84,2019-11-26 15:23:35.239,0.25,-90,-180,0,90,1
107,0,1138.62,0,180,1,0.25,2,3,0.0,1.0,12,45.0,20.0,3,0.6509999999999999,0.0,0.0,0.15,1,2019-11-26 15:04:52.000,84,2019-11-26 15:23:50.620,0.25,90,-180,0,-90,1
108,0,1146.7089999999998,0,180,1,0.25,2,3,0.0,1.0,12,45.0,20.0,3,0.601,0.0,0.0,0.15,1,2019-11-26 15:04:52.000,84,2019-11-26 15:23:58.709,0.25,90,-180,0,-90,1
109,0,1163.896,0,180,1,0.25,2,9,0.0,1.0,6,45.0,20.0,9,0.701,1.0,1165.308,0.15,1,2019-11-26 15:04:52.000,84,2019-11-26 15:24:15.896,0.25,-90,0,-180,90,1
110,0,1171.119,0,180,1,0.25,2,9,0.0,1.0,6,45.0,20.0,9,0.6509999999999999,1.0,1172.673,0.15,1,2019-11-26 15:04:52.000,84,2019-11-26 15:24:23.119,0.25,-90,0,-180,90,1
111,0,1178.395,0,180,1,0.25,2,9,0.0,1.0,6,45.0,20.0,9,0.551,1.0,1179.984,0.15,1,2019-11-26 15:04:52.000,84,2019-11-26 15:24:30.395,0.25,-90,0,-180,90,1
112,0,1187.937,0,180,1,0.25,2,3,0.0,1.0,12,45.0,20.0,3,0.501,0.0,0.0,0.15,1,2019-11-26 15:04:52.000,84,2019-11-26 15:24:39.937,0.25,90,-180,0,-90,1
113,0,1194.137,0,180,1,0.25,2,3,0.0,1.0,12,45.0,20.0,3,0.601,0.0,0.0,0.15,1,2019-11-26 15:04:52.000,84,2019-11-26 15:24:46.137,0.25,90,-180,0,-90,1
114,0,1202.139,0,180,1,0.25,2,9,0.0,1.0,6,45.0,20.0,9,0.601,1.0,1203.621,0.15,1,2019-11-26 15:04:52.000,84,2019-11-26 15:24:54.139,0.25,-90,0,-180,90,1
115,0,1210.726,0,180,1,0.25,2,9,0.0,1.0,6,45.0,20.0,9,0.551,1.0,1212.202,0.15,1,2019-11-26 15:04:52.000,84,2019-11-26 15:25:02.726,0.25,-90,0,-180,90,1
116,0,1219.425,0,180,1,0.25,2,9,0.0,1.0,6,45.0,20.0,9,0.6509999999999999,1.0,1221.468,0.15,1,2019-11-26 15:04:52.000,84,2019-11-26 15:25:11.425,0.25,-90,0,-180,90,1
117,0,1226.745,0,180,1,0.25,2,9,0.0,1.0,6,45.0,20.0,9,0.501,1.0,1228.56,0.15,1,2019-11-26 15:04:52.000,84,2019-11-26 15:25:18.745,0.25,-90,0,-180,90,1
118,0,1237.02,0,180,1,0.25,2,9,0.0,1.0,6,45.0,20.0,9,0.701,1.0,1238.036,0.15,1,2019-11-26 15:04:52.000,84,2019-11-26 15:25:29.020,0.25,-90,0,-180,90,1
119,0,1243.3210000000001,0,180,1,0.25,2,3,0.0,1.0,12,45.0,20.0,3,0.6509999999999999,1.0,1244.997,0.0,0,2019-11-26 15:04:52.000,84,2019-11-26 15:25:35.321,0.25,-90,-180,0,90,1
121,0,1280.7930000000001,0,180,1,0.25,2,3,0.0,1.0,12,45.0,20.0,3,0.501,1.0,1282.596,0.0,0,2019-11-26 15:04:52.000,84,2019-11-26 15:26:12.793,0.25,-90,-180,0,90,1
123,0,1302.79,0,180,1,0.25,2,3,0.0,1.0,12,45.0,20.0,3,0.551,0.0,0.0,0.15,1,2019-11-26 15:04:52.000,84,2019-11-26 15:26:34.790,0.25,90,-180,0,-90,1
124,0,1309.854,0,180,1,0.25,2,9,0.0,1.0,6,45.0,20.0,9,0.701,0.0,0.0,0.0,0,2019-11-26 15:04:52.000,84,2019-11-26 15:26:41.854,0.25,90,0,-180,-90,1
126,0,1328.558,0,180,1,0.25,2,9,0.0,1.0,6,45.0,20.0,9,0.601,1.0,1329.9879999999998,0.15,1,2019-11-26 15:04:52.000,84,2019-11-26 15:27:00.558,0.25,-90,0,-180,90,1
127,0,1334.954,0,180,1,0.25,2,9,0.0,1.0,6,45.0,20.0,9,0.501,1.0,1336.611,0.15,1,2019-11-26 15:04:52.000,84,2019-11-26 15:27:06.954,0.25,-90,0,-180,90,1
128,0,1341.6029999999998,0,180,1,0.25,2,3,0.0,1.0,12,45.0,20.0,3,0.601,1.0,1343.181,0.0,0,2019-11-26 15:04:52.000,84,2019-11-26 15:27:13.603,0.25,-90,-180,0,90,1
130,0,1355.668,0,180,1,0.25,2,3,0.0,1.0,12,45.0,20.0,3,0.551,0.0,0.0,0.15,1,2019-11-26 15:04:52.000,84,2019-11-26 15:27:27.668,0.25,90,-180,0,-90,1
131,0,1372.069,0,180,1,0.25,2,9,0.0,1.0,6,45.0,20.0,9,0.701,1.0,1373.344,0.15,1,2019-11-26 15:04:52.000,84,2019-11-26 15:27:44.069,0.25,-90,0,-180,90,1
132,0,1378.267,0,180,1,0.25,2,3,0.0,1.0,12,45.0,20.0,3,0.6509999999999999,0.0,0.0,0.15,1,2019-11-26 15:04:52.000,84,2019-11-26 15:27:50.267,0.25,90,-180,0,-90,1
133,0,1385.025,0,180,1,0.25,2,9,0.0,1.0,6,45.0,20.0,9,0.501,1.0,1386.634,0.15,1,2019-11-26 15:04:52.000,84,2019-11-26 15:27:57.025,0.25,-90,0,-180,90,1
134,0,1396.0179999999998,0,180,1,0.25,2,3,0.0,1.0,12,45.0,20.0,3,0.551,1.0,1397.6789999999999,0.0,0,2019-11-26 15:04:52.000,84,2019-11-26 15:28:08.018,0.25,-90,-180,0,90,1
136,0,1425.991,0,180,1,0.25,2,9,0.0,1.0,6,45.0,20.0,9,0.601,1.0,1427.414,0.15,1,2019-11-26 15:04:52.000,84,2019-11-26 15:28:37.991,0.25,-90,0,-180,90,1
137,0,1433.0839999999998,0,180,1,0.25,2,9,0.0,1.0,6,45.0,20.0,9,0.6509999999999999,1.0,1435.025,0.15,1,2019-11-26 15:04:52.000,84,2019-11-26 15:28:45.084,0.25,-90,0,-180,90,1
138,0,1440.785,0,180,1,0.25,2,9,0.0,1.0,6,45.0,20.0,9,0.701,1.0,1442.7160000000001,0.15,1,2019-11-26 15:04:52.000,84,2019-11-26 15:28:52.785,0.25,-90,0,-180,90,1
139,0,1448.651,0,180,1,0.25,2,3,0.0,1.0,12,45.0,20.0,3,0.551,0.0,0.0,0.15,1,2019-11-26 15:04:52.000,84,2019-11-26 15:29:00.651,0.25,90,-180,0,-90,1
140,0,1455.141,0,180,1,0.25,2,9,0.0,1.0,6,45.0,20.0,9,0.601,0.0,0.0,0.0,0,2019-11-26 15:04:52.000,84,2019-11-26 15:29:07.141,0.25,90,0,-180,-90,1
142,0,1480.348,0,180,1,0.25,2,9,0.0,1.0,6,45.0,20.0,9,0.701,1.0,1481.594,0.15,1,2019-11-26 15:04:52.000,84,2019-11-26 15:29:32.348,0.25,-90,0,-180,90,1
143,0,1487.204,0,180,1,0.25,2,3,0.0,1.0,12,45.0,20.0,3,0.501,1.0,1488.997,0.0,0,2019-11-26 15:04:52.000,84,2019-11-26 15:29:39.204,0.25,-90,-180,0,90,1
145,0,1527.024,0,180,1,0.25,2,9,0.0,1.0,6,45.0,20.0,9,0.6509999999999999,1.0,1528.192,0.15,1,2019-11-26 15:04:52.000,84,2019-11-26 15:30:19.024,0.25,-90,0,-180,90,1
146,0,1534.41,0,180,1,0.25,2,3,0.0,1.0,12,45.0,20.0,3,0.701,1.0,1535.725,0.0,0,2019-11-26 15:04:52.000,84,2019-11-26 15:30:26.410,0.25,-90,-180,0,90,1
148,0,1556.899,0,180,1,0.25,2,9,0.0,1.0,6,45.0,20.0,9,0.601,1.0,1557.985,0.15,1,2019-11-26 15:04:52.000,84,2019-11-26 15:30:48.899,0.25,-90,0,-180,90,1
149,0,1563.892,0,180,1,0.25,2,3,0.0,1.0,12,45.0,20.0,3,0.6509999999999999,1.0,1565.4260000000002,0.0,0,2019-11-26 15:04:52.000,84,2019-11-26 15:30:55.892,0.25,-90,-180,0,90,1
151,0,1590.9,0,180,1,0.25,2,3,0.0,1.0,12,45.0,20.0,3,0.501,1.0,1592.864,0.0,0,2019-11-26 15:04:52.000,84,2019-11-26 15:31:22.900,0.25,-90,-180,0,90,1
153,0,1619.0529999999999,0,180,1,0.25,2,3,0.0,1.0,12,45.0,20.0,3,0.551,1.0,1620.61,0.0,0,2019-11-26 15:04:52.000,84,2019-11-26 15:31:51.053,0.25,-90,-180,0,90,1
1,0,21.78,0,0,1,0.25,2,9,0.0,1.0,6,45.0,20.0,9,0.551,0.0,0.0,0.0,0,2019-11-27 09:48:30.000,25,2019-11-27 09:48:51.780,0.25,90,0,0,90,1
3,0,52.38399999999999,0,0,1,0.25,2,3,0.0,1.0,12,45.0,20.0,3,0.501,0.0,0.0,0.15,1,2019-11-27 09:48:30.000,25,2019-11-27 09:49:22.384,0.25,90,-180,-180,90,1
4,0,60.04600000000001,0,0,1,0.25,2,9,0.0,1.0,6,45.0,20.0,9,0.6509999999999999,0.0,0.0,0.0,0,2019-11-27 09:48:30.000,25,2019-11-27 09:49:30.046,0.25,90,0,0,90,1
6,0,73.268,0,0,1,0.25,2,3,0.0,1.0,12,45.0,20.0,3,0.601,0.0,0.0,0.15,1,2019-11-27 09:48:30.000,25,2019-11-27 09:49:43.268,0.25,90,-180,-180,90,1
7,0,80.15100000000001,0,0,1,0.25,2,9,0.0,1.0,6,45.0,20.0,9,0.701,0.0,0.0,0.0,0,2019-11-27 09:48:30.000,25,2019-11-27 09:49:50.151,0.25,90,0,0,90,1
13,0,163.001,0,0,1,0.25,2,3,0.0,1.0,12,45.0,20.0,3,0.6509999999999999,0.0,0.0,0.15,1,2019-11-27 09:48:30.000,25,2019-11-27 09:51:13.001,0.25,90,-180,-180,90,1
14,0,170.368,0,0,1,0.25,2,9,0.0,1.0,6,45.0,20.0,9,0.701,0.0,0.0,0.0,0,2019-11-27 09:48:30.000,25,2019-11-27 09:51:20.368,0.25,90,0,0,90,1
17,0,208.747,0,0,1,0.25,2,3,0.0,1.0,12,45.0,20.0,3,0.601,0.0,0.0,0.15,1,2019-11-27 09:48:30.000,25,2019-11-27 09:51:58.747,0.25,90,-180,-180,90,1
18,0,217.472,0,0,1,0.25,2,3,0.0,1.0,12,45.0,20.0,3,0.501,0.0,0.0,0.15,1,2019-11-27 09:48:30.000,25,2019-11-27 09:52:07.472,0.25,90,-180,-180,90,1
19,0,224.17700000000002,1,0,1,0.25,2,9,0.0,1.0,6,45.0,20.0,9,0.551,0.0,0.0,0.0,0,2019-11-27 09:48:30.000,25,2019-11-27 09:52:14.177,0.25,90,0,0,90,1
21,0,256.737,0,0,1,0.25,2,3,0.0,1.0,12,45.0,20.0,3,0.6509999999999999,0.0,0.0,0.15,1,2019-11-27 09:48:30.000,25,2019-11-27 09:52:46.737,0.25,90,-180,-180,90,1
22,0,263.439,0,0,1,0.25,2,9,0.0,1.0,6,45.0,20.0,9,0.501,0.0,0.0,0.0,0,2019-11-27 09:48:30.000,25,2019-11-27 09:52:53.439,0.25,90,0,0,90,1
24,0,283.879,0,0,1,0.25,2,3,0.0,1.0,12,45.0,20.0,3,0.551,0.0,0.0,0.15,1,2019-11-27 09:48:30.000,25,2019-11-27 09:53:13.879,0.25,90,-180,-180,90,1
25,0,291.077,0,0,1,0.25,2,9,0.0,1.0,6,45.0,20.0,9,0.701,0.0,0.0,0.0,0,2019-11-27 09:48:30.000,25,2019-11-27 09:53:21.077,0.25,90,0,0,90,1
27,0,312.748,0,0,1,0.25,2,3,0.0,1.0,12,45.0,20.0,3,0.601,0.0,0.0,0.15,1,2019-11-27 09:48:30.000,25,2019-11-27 09:53:42.748,0.25,90,-180,-180,90,1
28,0,318.77099999999996,0,0,1,0.25,2,9,0.0,1.0,6,45.0,20.0,9,0.551,1.0,320.464,0.15,1,2019-11-27 09:48:30.000,25,2019-11-27 09:53:48.771,0.25,-90,0,0,-90,1
29,0,329.978,0,0,1,0.25,2,3,0.0,1.0,12,45.0,20.0,3,0.701,0.0,0.0,0.15,1,2019-11-27 09:48:30.000,25,2019-11-27 09:53:59.978,0.25,90,-180,-180,90,1
30,0,337.26300000000003,0,0,1,0.25,2,9,0.0,1.0,6,45.0,20.0,9,0.601,0.0,0.0,0.0,0,2019-11-27 09:48:30.000,25,2019-11-27 09:54:07.263,0.25,90,0,0,90,1
32,0,358.75800000000004,0,0,1,0.25,2,9,0.0,1.0,6,45.0,20.0,9,0.501,0.0,0.0,0.0,0,2019-11-27 09:48:30.000,25,2019-11-27 09:54:28.758,0.25,90,0,0,90,1
36,0,405.496,0,0,1,0.25,2,3,0.0,1.0,12,45.0,20.0,3,0.6509999999999999,0.0,0.0,0.15,1,2019-11-27 09:48:30.000,25,2019-11-27 09:55:15.496,0.25,90,-180,-180,90,1
37,0,411.861,0,0,1,0.25,2,9,0.0,1.0,6,45.0,20.0,9,0.701,0.0,0.0,0.0,0,2019-11-27 09:48:30.000,25,2019-11-27 09:55:21.861,0.25,90,0,0,90,1
41,0,471.472,0,0,1,0.25,2,3,0.0,1.0,12,45.0,20.0,3,0.501,1.0,473.462,0.0,0,2019-11-27 09:48:30.000,25,2019-11-27 09:56:21.472,0.25,-90,-180,-180,-90,1
43,0,489.24300000000005,0,0,1,0.25,2,3,0.0,1.0,12,45.0,20.0,3,0.601,0.0,0.0,0.15,1,2019-11-27 09:48:30.000,25,2019-11-27 09:56:39.243,0.25,90,-180,-180,90,1
44,0,496.15,0,0,1,0.25,2,3,0.0,1.0,12,45.0,20.0,3,0.6509999999999999,0.0,0.0,0.15,1,2019-11-27 09:48:30.000,25,2019-11-27 09:56:46.150,0.25,90,-180,-180,90,1
45,0,504.913,0,0,1,0.25,2,3,0.0,1.0,12,45.0,20.0,3,0.551,0.0,0.0,0.15,1,2019-11-27 09:48:30.000,25,2019-11-27 09:56:54.913,0.25,90,-180,-180,90,1
46,0,513.415,0,0,1,0.25,2,9,0.0,1.0,6,45.0,20.0,9,0.501,1.0,515.241,0.15,1,2019-11-27 09:48:30.000,25,2019-11-27 09:57:03.415,0.25,-90,0,0,-90,1
47,0,531.7090000000001,0,0,1,0.25,2,9,0.0,1.0,6,45.0,20.0,9,0.551,1.0,533.432,0.15,1,2019-11-27 09:48:30.000,25,2019-11-27 09:57:21.709,0.25,-90,0,0,-90,1
48,0,540.674,0,0,1,0.25,2,3,0.0,1.0,12,45.0,20.0,3,0.6509999999999999,0.0,0.0,0.15,1,2019-11-27 09:48:30.000,25,2019-11-27 09:57:30.674,0.25,90,-180,-180,90,1
49,0,563.492,0,0,1,0.25,2,9,0.0,1.0,6,45.0,20.0,9,0.701,1.0,565.581,0.15,1,2019-11-27 09:48:30.000,25,2019-11-27 09:57:53.492,0.25,-90,0,0,-90,1
50,0,572.33,0,0,1,0.25,2,9,0.0,1.0,6,45.0,20.0,9,0.601,1.0,573.966,0.15,1,2019-11-27 09:48:30.000,25,2019-11-27 09:58:02.330,0.25,-90,0,0,-90,1
51,0,582.663,0,0,1,0.25,2,3,0.0,1.0,12,45.0,20.0,3,0.701,0.0,0.0,0.15,1,2019-11-27 09:48:30.000,25,2019-11-27 09:58:12.663,0.25,90,-180,-180,90,1
52,0,589.27,0,0,1,0.25,2,9,0.0,1.0,6,45.0,20.0,9,0.551,1.0,590.915,0.15,1,2019-11-27 09:48:30.000,25,2019-11-27 09:58:19.270,0.25,-90,0,0,-90,1
53,0,603.242,0,0,1,0.25,2,9,0.0,1.0,6,45.0,20.0,9,0.501,1.0,604.948,0.15,1,2019-11-27 09:48:30.000,25,2019-11-27 09:58:33.242,0.25,-90,0,0,-90,1
54,0,614.187,0,0,1,0.25,2,9,0.0,1.0,6,45.0,20.0,9,0.6509999999999999,0.0,0.0,0.0,0,2019-11-27 09:48:30.000,25,2019-11-27 09:58:44.187,0.25,90,0,0,90,1
56,0,655.805,0,0,1,0.25,2,9,0.0,1.0,6,45.0,20.0,9,0.601,1.0,657.2289999999999,0.15,1,2019-11-27 09:48:30.000,25,2019-11-27 09:59:25.805,0.25,-90,0,0,-90,1
57,0,664.197,0,0,1,0.25,2,3,0.0,1.0,12,45.0,20.0,3,0.601,0.0,0.0,0.15,1,2019-11-27 09:48:30.000,25,2019-11-27 09:59:34.197,0.25,90,-180,-180,90,1
58,0,677.3919999999999,0,0,1,0.25,2,3,0.0,1.0,12,45.0,20.0,3,0.6509999999999999,0.0,0.0,0.15,1,2019-11-27 09:48:30.000,25,2019-11-27 09:59:47.392,0.25,90,-180,-180,90,1
59,0,684.02,0,0,1,0.25,2,9,0.0,1.0,6,45.0,20.0,9,0.551,1.0,685.791,0.15,1,2019-11-27 09:48:30.000,25,2019-11-27 09:59:54.020,0.25,-90,0,0,-90,1
60,0,693.671,0,0,1,0.25,2,3,0.0,1.0,12,45.0,20.0,3,0.501,0.0,0.0,0.15,1,2019-11-27 09:48:30.000,25,2019-11-27 10:00:03.671,0.25,90,-180,-180,90,1
61,0,700.533,0,0,1,0.25,2,3,0.0,1.0,12,45.0,20.0,3,0.701,0.0,0.0,0.15,1,2019-11-27 09:48:30.000,25,2019-11-27 10:00:10.533,0.25,90,-180,-180,90,1
62,0,727.299,0,0,1,0.25,2,3,0.0,1.0,12,45.0,20.0,3,0.701,0.0,0.0,0.15,1,2019-11-27 09:48:30.000,25,2019-11-27 10:00:37.299,0.25,90,-180,-180,90,1
63,0,734.439,0,0,1,0.25,2,3,0.0,1.0,12,45.0,20.0,3,0.551,0.0,0.0,0.15,1,2019-11-27 09:48:30.000,25,2019-11-27 10:00:44.439,0.25,90,-180,-180,90,1
64,0,741.26,0,0,1,0.25,2,3,0.0,1.0,12,45.0,20.0,3,0.501,0.0,0.0,0.15,1,2019-11-27 09:48:30.000,25,2019-11-27 10:00:51.260,0.25,90,-180,-180,90,1
65,0,747.8919999999999,0,0,1,0.25,2,3,0.0,1.0,12,45.0,20.0,3,0.601,1.0,749.523,0.0,0,2019-11-27 09:48:30.000,25,2019-11-27 10:00:57.892,0.25,-90,-180,-180,-90,1
67,0,770.865,0,0,1,0.25,2,3,0.0,1.0,12,45.0,20.0,3,0.6509999999999999,0.0,0.0,0.15,1,2019-11-27 09:48:30.000,25,2019-11-27 10:01:20.865,0.25,90,-180,-180,90,1
68,0,777.325,0,0,1,0.25,2,3,0.0,1.0,12,45.0,20.0,3,0.501,0.0,0.0,0.15,1,2019-11-27 09:48:30.000,25,2019-11-27 10:01:27.325,0.25,90,-180,-180,90,1
69,0,796.186,0,0,1,0.25,2,3,0.0,1.0,12,45.0,20.0,3,0.6509999999999999,1.0,797.955,0.0,0,2019-11-27 09:48:30.000,25,2019-11-27 10:01:46.186,0.25,-90,-180,-180,-90,1
71,0,818.691,0,0,1,0.25,2,3,0.0,1.0,12,45.0,20.0,3,0.551,1.0,820.681,0.0,0,2019-11-27 09:48:30.000,25,2019-11-27 10:02:08.691,0.25,-90,-180,-180,-90,1
73,0,855.625,0,0,1,0.25,2,3,0.0,1.0,12,45.0,20.0,3,0.701,1.0,857.319,0.0,0,2019-11-27 09:48:30.000,25,2019-11-27 10:02:45.625,0.25,-90,-180,-180,-90,1
75,0,881.65,0,0,1,0.25,2,9,0.0,1.0,6,45.0,20.0,9,0.601,1.0,883.567,0.15,1,2019-11-27 09:48:30.000,25,2019-11-27 10:03:11.650,0.25,-90,0,0,-90,1
76,0,889.075,0,0,1,0.25,2,9,0.0,1.0,6,45.0,20.0,9,0.701,1.0,890.442,0.15,1,2019-11-27 09:48:30.000,25,2019-11-27 10:03:19.075,0.25,-90,0,0,-90,1
77,0,898.3919999999999,0,0,1,0.25,2,9,0.0,1.0,6,45.0,20.0,9,0.6509999999999999,1.0,899.81,0.15,1,2019-11-27 09:48:30.000,25,2019-11-27 10:03:28.392,0.25,-90,0,0,-90,1
78,0,924.0189999999999,0,0,1,0.25,2,9,0.0,1.0,6,45.0,20.0,9,0.501,1.0,925.742,0.15,1,2019-11-27 09:48:30.000,25,2019-11-27 10:03:54.019,0.25,-90,0,0,-90,1
79,0,932.82,0,0,1,0.25,2,9,0.0,1.0,6,45.0,20.0,9,0.601,1.0,934.6260000000001,0.15,1,2019-11-27 09:48:30.000,25,2019-11-27 10:04:02.820,0.25,-90,0,0,-90,1
80,0,940.2769999999999,0,0,1,0.25,2,9,0.0,1.0,6,45.0,20.0,9,0.551,1.0,942.403,0.15,1,2019-11-27 09:48:30.000,25,2019-11-27 10:04:10.277,0.25,-90,0,0,-90,1
81,0,950.534,0,0,1,0.25,2,9,0.0,1.0,6,45.0,20.0,9,0.6509999999999999,1.0,952.331,0.15,1,2019-11-27 09:48:30.000,25,2019-11-27 10:04:20.534,0.25,-90,0,0,-90,1
82,0,957.096,0,0,1,0.25,2,9,0.0,1.0,6,45.0,20.0,9,0.551,1.0,959.445,0.15,1,2019-11-27 09:48:30.000,25,2019-11-27 10:04:27.096,0.25,-90,0,0,-90,1
83,0,965.2739999999999,0,0,1,0.25,2,9,0.0,1.0,6,45.0,20.0,9,0.701,1.0,967.377,0.15,1,2019-11-27 09:48:30.000,25,2019-11-27 10:04:35.274,0.25,-90,0,0,-90,1
84,0,1002.5419999999999,0,0,1,0.25,2,9,0.0,1.0,6,45.0,20.0,9,0.601,1.0,1004.755,0.15,1,2019-11-27 09:48:30.000,25,2019-11-27 10:05:12.542,0.25,-90,0,0,-90,1
85,0,1012.938,0,0,1,0.25,2,3,0.0,1.0,12,45.0,20.0,3,0.501,0.0,0.0,0.15,1,2019-11-27 09:48:30.000,25,2019-11-27 10:05:22.938,0.25,90,-180,-180,90,1
86,0,1020.9069999999999,0,0,1,0.25,2,9,0.0,1.0,6,45.0,20.0,9,0.601,0.0,0.0,0.0,0,2019-11-27 09:48:30.000,25,2019-11-27 10:05:30.907,0.25,90,0,0,90,1
88,0,1052.835,0,0,1,0.25,2,3,0.0,1.0,12,45.0,20.0,3,0.551,0.0,0.0,0.15,1,2019-11-27 09:48:30.000,25,2019-11-27 10:06:02.835,0.25,90,-180,-180,90,1
89,0,1076.857,0,0,1,0.25,2,9,0.0,1.0,6,45.0,20.0,9,0.6509999999999999,1.0,1078.504,0.15,1,2019-11-27 09:48:30.000,25,2019-11-27 10:06:26.857,0.25,-90,0,0,-90,1
90,0,1089.21,0,0,1,0.25,2,3,0.0,1.0,12,45.0,20.0,3,0.701,0.0,0.0,0.15,1,2019-11-27 09:48:30.000,25,2019-11-27 10:06:39.210,0.25,90,-180,-180,90,1
91,0,1095.33,0,0,1,0.25,2,9,0.0,1.0,6,45.0,20.0,9,0.501,1.0,1097.08,0.15,1,2019-11-27 09:48:30.000,25,2019-11-27 10:06:45.330,0.25,-90,0,0,-90,1
92,0,1105.899,0,0,1,0.25,2,9,0.0,1.0,6,45.0,20.0,9,0.501,1.0,1107.453,0.15,1,2019-11-27 09:48:30.000,25,2019-11-27 10:06:55.899,0.25,-90,0,0,-90,1
93,0,1113.521,0,0,1,0.25,2,9,0.0,1.0,6,45.0,20.0,9,0.551,1.0,1115.443,0.15,1,2019-11-27 09:48:30.000,25,2019-11-27 10:07:03.521,0.25,-90,0,0,-90,1
94,0,1121.851,0,0,1,0.25,2,9,0.0,1.0,6,45.0,20.0,9,0.6509999999999999,1.0,1123.483,0.15,1,2019-11-27 09:48:30.000,25,2019-11-27 10:07:11.851,0.25,-90,0,0,-90,1
95,0,1156.552,0,0,1,0.25,2,3,0.0,1.0,12,45.0,20.0,3,0.701,0.0,0.0,0.15,1,2019-11-27 09:48:30.000,25,2019-11-27 10:07:46.552,0.25,90,-180,-180,90,1
96,0,1164.548,0,0,1,0.25,2,3,0.0,1.0,12,45.0,20.0,3,0.601,0.0,0.0,0.15,1,2019-11-27 09:48:30.000,25,2019-11-27 10:07:54.548,0.25,90,-180,-180,90,1
97,0,1169.993,0,0,1,0.25,2,3,0.0,1.0,12,45.0,20.0,3,0.551,1.0,1171.687,0.0,0,2019-11-27 09:48:30.000,25,2019-11-27 10:07:59.993,0.25,-90,-180,-180,-90,1
99,0,1222.4389999999999,0,0,1,0.25,2,9,0.0,1.0,6,45.0,20.0,9,0.6509999999999999,0.0,0.0,0.0,0,2019-11-27 09:48:30.000,25,2019-11-27 10:08:52.439,0.25,90,0,0,90,1
101,0,1246.7,0,0,1,0.25,2,3,0.0,1.0,12,45.0,20.0,3,0.601,0.0,0.0,0.15,1,2019-11-27 09:48:30.000,25,2019-11-27 10:09:16.700,0.25,90,-180,-180,90,1
102,0,1252.539,0,0,1,0.25,2,9,0.0,1.0,6,45.0,20.0,9,0.701,1.0,1254.27,0.15,1,2019-11-27 09:48:30.000,25,2019-11-27 10:09:22.539,0.25,-90,0,0,-90,1
103,0,1259.106,0,0,1,0.25,2,3,0.0,1.0,12,45.0,20.0,3,0.501,1.0,1261.066,0.0,0,2019-11-27 09:48:30.000,25,2019-11-27 10:09:29.106,0.25,-90,-180,-180,-90,1
1,0,120.363,0,60,1,0.25,2,9,0.0,1.0,6,45.0,20.0,9,0.501,1.0,122.148,0.15,1,2019-11-27 15:26:14.000,13,2019-11-27 15:28:14.363,0.25,-90,0,-60,-150,1
2,0,125.568,0,60,1,0.25,2,9,0.0,1.0,6,45.0,20.0,9,0.6509999999999999,1.0,127.175,0.15,1,2019-11-27 15:26:14.000,13,2019-11-27 15:28:19.568,0.25,-90,0,-60,-150,1
3,0,152.286,0,60,1,0.25,2,9,0.0,1.0,6,45.0,20.0,9,0.551,1.0,154.261,0.15,1,2019-11-27 15:26:14.000,13,2019-11-27 15:28:46.286,0.25,-90,0,-60,-150,1
4,0,170.924,0,60,1,0.25,2,3,0.0,1.0,12,45.0,20.0,3,0.701,0.0,0.0,0.15,1,2019-11-27 15:26:14.000,13,2019-11-27 15:29:04.924,0.25,90,-180,120,30,1
5,0,181.924,0,60,1,0.25,2,3,0.0,1.0,12,45.0,20.0,3,0.601,0.0,0.0,0.15,1,2019-11-27 15:26:14.000,13,2019-11-27 15:29:15.924,0.25,90,-180,120,30,1
6,0,191.09400000000002,0,60,1,0.25,2,3,0.0,1.0,12,45.0,20.0,3,0.551,0.0,0.0,0.15,1,2019-11-27 15:26:14.000,13,2019-11-27 15:29:25.094,0.25,90,-180,120,30,1
7,0,198.208,0,60,1,0.25,2,3,0.0,1.0,12,45.0,20.0,3,0.601,0.0,0.0,0.15,1,2019-11-27 15:26:14.000,13,2019-11-27 15:29:32.208,0.25,90,-180,120,30,1
8,0,214.833,0,60,1,0.25,2,3,0.0,1.0,12,45.0,20.0,3,0.6509999999999999,0.0,0.0,0.15,1,2019-11-27 15:26:14.000,13,2019-11-27 15:29:48.833,0.25,90,-180,120,30,1
9,0,222.622,0,60,1,0.25,2,9,0.0,1.0,6,45.0,20.0,9,0.501,1.0,224.50099999999998,0.15,1,2019-11-27 15:26:14.000,13,2019-11-27 15:29:56.622,0.25,-90,0,-60,-150,1
10,0,235.887,0,60,1,0.25,2,3,0.0,1.0,12,45.0,20.0,3,0.701,0.0,0.0,0.15,1,2019-11-27 15:26:14.000,13,2019-11-27 15:30:09.887,0.25,90,-180,120,30,1
11,0,252.77900000000002,0,60,1,0.25,2,3,0.0,1.0,12,45.0,20.0,3,0.601,0.0,0.0,0.15,1,2019-11-27 15:26:14.000,13,2019-11-27 15:30:26.779,0.25,90,-180,120,30,1
12,0,261.221,0,60,1,0.25,2,3,0.0,1.0,12,45.0,20.0,3,0.701,0.0,0.0,0.15,1,2019-11-27 15:26:14.000,13,2019-11-27 15:30:35.221,0.25,90,-180,120,30,1
13,0,277.759,0,60,1,0.25,2,3,0.0,1.0,12,45.0,20.0,3,0.6509999999999999,0.0,0.0,0.15,1,2019-11-27 15:26:14.000,13,2019-11-27 15:30:51.759,0.25,90,-180,120,30,1
14,0,301.381,0,60,1,0.25,2,9,0.0,1.0,6,45.0,20.0,9,0.551,1.0,303.214,0.15,1,2019-11-27 15:26:14.000,13,2019-11-27 15:31:15.381,0.25,-90,0,-60,-150,1
15,0,329.001,0,60,1,0.25,2,9,0.0,1.0,6,45.0,20.0,9,0.501,1.0,331.37699999999995,0.15,1,2019-11-27 15:26:14.000,13,2019-11-27 15:31:43.001,0.25,-90,0,-60,-150,1
16,0,339.405,0,60,1,0.25,2,9,0.0,1.0,6,45.0,20.0,9,0.601,1.0,340.715,0.15,1,2019-11-27 15:26:14.000,13,2019-11-27 15:31:53.405,0.25,-90,0,-60,-150,1
17,0,359.043,0,60,1,0.25,2,9,0.0,1.0,6,45.0,20.0,9,0.551,1.0,360.694,0.15,1,2019-11-27 15:26:14.000,13,2019-11-27 15:32:13.043,0.25,-90,0,-60,-150,1
18,0,405.125,0,60,1,0.25,2,9,0.0,1.0,6,45.0,20.0,9,0.501,1.0,406.57,0.15,1,2019-11-27 15:26:14.000,13,2019-11-27 15:32:59.125,0.25,-90,0,-60,-150,1
19,0,474.077,0,60,1,0.25,2,3,0.0,1.0,12,45.0,20.0,3,0.701,0.0,0.0,0.15,1,2019-11-27 15:26:14.000,13,2019-11-27 15:34:08.077,0.25,90,-180,120,30,1
20,0,483.43800000000005,0,60,1,0.25,2,9,0.0,1.0,6,45.0,20.0,9,0.6509999999999999,1.0,485.409,0.15,1,2019-11-27 15:26:14.000,13,2019-11-27 15:34:17.438,0.25,-90,0,-60,-150,1
21,0,493.329,0,60,1,0.25,2,3,0.0,1.0,12,45.0,20.0,3,0.551,1.0,495.523,0.0,0,2019-11-27 15:26:14.000,13,2019-11-27 15:34:27.329,0.25,-90,-180,120,-150,1
23,0,522.145,0,60,1,0.25,2,9,0.0,1.0,6,45.0,20.0,9,0.701,1.0,524.49,0.15,1,2019-11-27 15:26:14.000,13,2019-11-27 15:34:56.145,0.25,-90,0,-60,-150,1
24,0,552.178,0,60,1,0.25,2,3,0.0,1.0,12,45.0,20.0,3,0.601,0.0,0.0,0.15,1,2019-11-27 15:26:14.000,13,2019-11-27 15:35:26.178,0.25,90,-180,120,30,1
25,0,560.591,0,60,1,0.25,2,3,0.0,1.0,12,45.0,20.0,3,0.501,0.0,0.0,0.15,1,2019-11-27 15:26:14.000,13,2019-11-27 15:35:34.591,0.25,90,-180,120,30,1
26,0,590.52,0,60,1,0.25,2,9,0.0,1.0,6,45.0,20.0,9,0.6509999999999999,1.0,592.491,0.15,1,2019-11-27 15:26:14.000,13,2019-11-27 15:36:04.520,0.25,-90,0,-60,-150,1
27,0,599.075,1,60,1,0.25,2,3,0.0,1.0,12,45.0,20.0,3,0.701,1.0,604.1519999999999,0.0,0,2019-11-27 15:26:14.000,13,2019-11-27 15:36:13.075,0.25,-90,-180,120,-150,1
30,0,652.981,0,60,1,0.25,2,3,0.0,1.0,12,45.0,20.0,3,0.601,0.0,0.0,0.15,1,2019-11-27 15:26:14.000,13,2019-11-27 15:37:06.981,0.25,90,-180,120,30,1
31,0,660.206,0,60,1,0.25,2,3,0.0,1.0,12,45.0,20.0,3,0.6509999999999999,1.0,662.273,0.0,0,2019-11-27 15:26:14.000,13,2019-11-27 15:37:14.206,0.25,-90,-180,120,-150,1
33,0,683.2439999999999,0,60,1,0.25,2,9,0.0,1.0,6,45.0,20.0,9,0.501,1.0,684.98,0.15,1,2019-11-27 15:26:14.000,13,2019-11-27 15:37:37.244,0.25,-90,0,-60,-150,1
34,0,690.559,0,60,1,0.25,2,3,0.0,1.0,12,45.0,20.0,3,0.551,1.0,692.823,0.0,0,2019-11-27 15:26:14.000,13,2019-11-27 15:37:44.559,0.25,-90,-180,120,-150,1
36,0,712.1139999999999,0,60,1,0.25,2,9,0.0,1.0,6,45.0,20.0,9,0.551,1.0,714.1080000000001,0.15,1,2019-11-27 15:26:14.000,13,2019-11-27 15:38:06.114,0.25,-90,0,-60,-150,1
37,0,724.58,0,60,1,0.25,2,3,0.0,1.0,12,45.0,20.0,3,0.501,0.0,0.0,0.15,1,2019-11-27 15:26:14.000,13,2019-11-27 15:38:18.580,0.25,90,-180,120,30,1
38,0,756.166,0,60,1,0.25,2,9,0.0,1.0,6,45.0,20.0,9,0.601,0.0,0.0,0.0,0,2019-11-27 15:26:14.000,13,2019-11-27 15:38:50.166,0.25,90,0,-60,30,1
40,0,788.1080000000001,0,60,1,0.25,2,9,0.0,1.0,6,45.0,20.0,9,0.6509999999999999,1.0,790.047,0.15,1,2019-11-27 15:26:14.000,13,2019-11-27 15:39:22.108,0.25,-90,0,-60,-150,1
41,0,798.933,0,60,1,0.25,2,3,0.0,1.0,12,45.0,20.0,3,0.701,1.0,801.3810000000001,0.0,0,2019-11-27 15:26:14.000,13,2019-11-27 15:39:32.933,0.25,-90,-180,120,-150,1
43,0,849.795,0,60,1,0.25,2,9,0.0,1.0,6,45.0,20.0,9,0.551,0.0,0.0,0.0,0,2019-11-27 15:26:14.000,13,2019-11-27 15:40:23.795,0.25,90,0,-60,30,1
45,0,893.07,0,60,1,0.25,2,9,0.0,1.0,6,45.0,20.0,9,0.601,1.0,895.3439999999999,0.15,1,2019-11-27 15:26:14.000,13,2019-11-27 15:41:07.070,0.25,-90,0,-60,-150,1
46,0,906.79,0,60,1,0.25,2,9,0.0,1.0,6,45.0,20.0,9,0.701,1.0,908.6669999999999,0.15,1,2019-11-27 15:26:14.000,13,2019-11-27 15:41:20.790,0.25,-90,0,-60,-150,1
47,0,914.945,0,60,1,0.25,2,3,0.0,1.0,12,45.0,20.0,3,0.501,1.0,916.936,0.0,0,2019-11-27 15:26:14.000,13,2019-11-27 15:41:28.945,0.25,-90,-180,120,-150,1
49,0,940.88,1,60,1,0.25,2,9,0.0,1.0,6,45.0,20.0,9,0.6509999999999999,0.0,0.0,0.0,0,2019-11-27 15:26:14.000,13,2019-11-27 15:41:54.880,0.25,90,0,-60,30,1
51,0,988.579,0,60,1,0.25,2,9,0.0,1.0,6,45.0,20.0,9,0.601,1.0,990.576,0.15,1,2019-11-27 15:26:14.000,13,2019-11-27 15:42:42.579,0.25,-90,0,-60,-150,1
52,0,998.1110000000001,0,60,1,0.25,2,3,0.0,1.0,12,45.0,20.0,3,0.6509999999999999,1.0,1000.528,0.0,0,2019-11-27 15:26:14.000,13,2019-11-27 15:42:52.111,0.25,-90,-180,120,-150,1
54,0,1029.277,0,60,1,0.25,2,3,0.0,1.0,12,45.0,20.0,3,0.551,0.0,0.0,0.15,1,2019-11-27 15:26:14.000,13,2019-11-27 15:43:23.277,0.25,90,-180,120,30,1
55,0,1037.288,0,60,1,0.25,2,3,0.0,1.0,12,45.0,20.0,3,0.701,0.0,0.0,0.15,1,2019-11-27 15:26:14.000,13,2019-11-27 15:43:31.288,0.25,90,-180,120,30,1
56,0,1044.816,0,60,1,0.25,2,3,0.0,1.0,12,45.0,20.0,3,0.501,0.0,0.0,0.15,1,2019-11-27 15:26:14.000,13,2019-11-27 15:43:38.816,0.25,90,-180,120,30,1
57,0,1070.725,0,60,1,0.25,2,3,0.0,1.0,12,45.0,20.0,3,0.601,0.0,0.0,0.15,1,2019-11-27 15:26:14.000,13,2019-11-27 15:44:04.725,0.25,90,-180,120,30,1
58,0,1078.354,0,60,1,0.25,2,3,0.0,1.0,12,45.0,20.0,3,0.701,0.0,0.0,0.15,1,2019-11-27 15:26:14.000,13,2019-11-27 15:44:12.354,0.25,90,-180,120,30,1
59,0,1086.017,0,60,1,0.25,2,3,0.0,1.0,12,45.0,20.0,3,0.551,0.0,0.0,0.15,1,2019-11-27 15:26:14.000,13,2019-11-27 15:44:20.017,0.25,90,-180,120,30,1
60,0,1092.722,0,60,1,0.25,2,9,0.0,1.0,6,45.0,20.0,9,0.501,1.0,1095.18,0.15,1,2019-11-27 15:26:14.000,13,2019-11-27 15:44:26.722,0.25,-90,0,-60,-150,1
61,0,1100.54,0,60,1,0.25,2,9,0.0,1.0,6,45.0,20.0,9,0.6509999999999999,1.0,1102.665,0.15,1,2019-11-27 15:26:14.000,13,2019-11-27 15:44:34.540,0.25,-90,0,-60,-150,1
62,0,1108.723,0,60,1,0.25,2,3,0.0,1.0,12,45.0,20.0,3,0.701,0.0,0.0,0.15,1,2019-11-27 15:26:14.000,13,2019-11-27 15:44:42.723,0.25,90,-180,120,30,1
63,0,1116.849,0,60,1,0.25,2,9,0.0,1.0,6,45.0,20.0,9,0.551,1.0,1118.865,0.15,1,2019-11-27 15:26:14.000,13,2019-11-27 15:44:50.849,0.25,-90,0,-60,-150,1
64,0,1124.799,0,60,1,0.25,2,9,0.0,1.0,6,45.0,20.0,9,0.501,1.0,1127.249,0.15,1,2019-11-27 15:26:14.000,13,2019-11-27 15:44:58.799,0.25,-90,0,-60,-150,1
65,0,1140.202,0,60,1,0.25,2,9,0.0,1.0,6,45.0,20.0,9,0.6509999999999999,1.0,1142.104,0.15,1,2019-11-27 15:26:14.000,13,2019-11-27 15:45:14.202,0.25,-90,0,-60,-150,1
66,0,1147.72,0,60,1,0.25,2,9,0.0,1.0,6,45.0,20.0,9,0.601,1.0,1149.9769999999999,0.15,1,2019-11-27 15:26:14.000,13,2019-11-27 15:45:21.720,0.25,-90,0,-60,-150,1
67,0,1159.559,0,60,1,0.25,2,9,0.0,1.0,6,45.0,20.0,9,0.551,0.0,0.0,0.0,0,2019-11-27 15:26:14.000,13,2019-11-27 15:45:33.559,0.25,90,0,-60,30,1
69,0,1183.999,0,60,1,0.25,2,9,0.0,1.0,6,45.0,20.0,9,0.701,0.0,0.0,0.0,0,2019-11-27 15:26:14.000,13,2019-11-27 15:45:57.999,0.25,90,0,-60,30,1
72,0,1394.3410000000001,0,60,1,0.25,2,9,0.0,1.0,6,45.0,20.0,9,0.6509999999999999,0.0,0.0,0.0,0,2019-11-27 15:26:14.000,13,2019-11-27 15:49:28.341,0.25,90,0,-60,30,1
74,0,1482.193,0,60,1,0.25,2,3,0.0,1.0,12,45.0,20.0,3,0.501,0.0,0.0,0.15,1,2019-11-27 15:26:14.000,13,2019-11-27 15:50:56.193,0.25,90,-180,120,30,1
75,0,1495.93,0,60,1,0.25,2,3,0.0,1.0,12,45.0,20.0,3,0.601,1.0,1497.7,0.0,0,2019-11-27 15:26:14.000,13,2019-11-27 15:51:09.930,0.25,-90,-180,120,-150,1
1,0,29.338,0,0,1,0.25,2,9,0.0,1.0,6,45.0,20.0,9,0.501,0.0,0.0,0.0,0,2019-11-28 09:23:03.000,21,2019-11-28 09:23:32.338,0.25,90,0,0,90,1
5,0,96.90799999999999,0,0,1,0.25,2,3,0.0,1.0,12,45.0,20.0,3,0.551,0.0,0.0,0.15,1,2019-11-28 09:23:03.000,21,2019-11-28 09:24:39.908,0.25,90,-180,-180,90,1
6,0,103.819,0,0,1,0.25,2,9,0.0,1.0,6,45.0,20.0,9,0.701,0.0,0.0,0.0,0,2019-11-28 09:23:03.000,21,2019-11-28 09:24:46.819,0.25,90,0,0,90,1
11,0,177.445,0,0,1,0.25,2,9,0.0,1.0,6,45.0,20.0,9,0.6509999999999999,0.0,0.0,0.0,0,2019-11-28 09:23:03.000,21,2019-11-28 09:26:00.445,0.25,90,0,0,90,1
14,0,222.199,0,0,1,0.25,2,3,0.0,1.0,12,45.0,20.0,3,0.601,0.0,0.0,0.15,1,2019-11-28 09:23:03.000,21,2019-11-28 09:26:45.199,0.25,90,-180,-180,90,1
15,0,229.33599999999998,0,0,1,0.25,2,3,0.0,1.0,12,45.0,20.0,3,0.701,0.0,0.0,0.15,1,2019-11-28 09:23:03.000,21,2019-11-28 09:26:52.336,0.25,90,-180,-180,90,1
16,0,236.442,0,0,1,0.25,2,9,0.0,1.0,6,45.0,20.0,9,0.601,0.0,0.0,0.0,0,2019-11-28 09:23:03.000,21,2019-11-28 09:26:59.442,0.25,90,0,0,90,1
18,0,280.932,0,0,1,0.25,2,9,0.0,1.0,6,45.0,20.0,9,0.501,0.0,0.0,0.0,0,2019-11-28 09:23:03.000,21,2019-11-28 09:27:43.932,0.25,90,0,0,90,1
20,0,309.325,0,0,1,0.25,2,3,0.0,1.0,12,45.0,20.0,3,0.551,0.0,0.0,0.15,1,2019-11-28 09:23:03.000,21,2019-11-28 09:28:12.325,0.25,90,-180,-180,90,1
21,0,315.684,0,0,1,0.25,2,9,0.0,1.0,6,45.0,20.0,9,0.6509999999999999,1.0,317.42900000000003,0.15,1,2019-11-28 09:23:03.000,21,2019-11-28 09:28:18.684,0.25,-90,0,0,-90,1
22,0,332.559,0,0,1,0.25,2,3,0.0,1.0,12,45.0,20.0,3,0.601,0.0,0.0,0.15,1,2019-11-28 09:23:03.000,21,2019-11-28 09:28:35.559,0.25,90,-180,-180,90,1
23,0,339.219,0,0,1,0.25,2,9,0.0,1.0,6,45.0,20.0,9,0.551,1.0,341.11300000000006,0.15,1,2019-11-28 09:23:03.000,21,2019-11-28 09:28:42.219,0.25,-90,0,0,-90,1
24,0,354.16,0,0,1,0.25,2,3,0.0,1.0,12,45.0,20.0,3,0.6509999999999999,0.0,0.0,0.15,1,2019-11-28 09:23:03.000,21,2019-11-28 09:28:57.160,0.25,90,-180,-180,90,1
25,0,360.44699999999995,0,0,1,0.25,2,3,0.0,1.0,12,45.0,20.0,3,0.501,0.0,0.0,0.15,1,2019-11-28 09:23:03.000,21,2019-11-28 09:29:03.447,0.25,90,-180,-180,90,1
26,0,389.477,0,0,1,0.25,2,9,0.0,1.0,6,45.0,20.0,9,0.701,1.0,391.163,0.15,1,2019-11-28 09:23:03.000,21,2019-11-28 09:29:32.477,0.25,-90,0,0,-90,1
27,0,430.009,0,0,1,0.25,2,9,0.0,1.0,6,45.0,20.0,9,0.6509999999999999,1.0,431.689,0.15,1,2019-11-28 09:23:03.000,21,2019-11-28 09:30:13.009,0.25,-90,0,0,-90,1
28,0,443.69300000000004,0,0,1,0.25,2,3,0.0,1.0,12,45.0,20.0,3,0.551,1.0,445.51300000000003,0.0,0,2019-11-28 09:23:03.000,21,2019-11-28 09:30:26.693,0.25,-90,-180,-180,-90,1
31,0,471.00699999999995,0,0,1,0.25,2,3,0.0,1.0,12,45.0,20.0,3,0.601,0.0,0.0,0.15,1,2019-11-28 09:23:03.000,21,2019-11-28 09:30:54.007,0.25,90,-180,-180,90,1
32,0,477.801,0,0,1,0.25,2,9,0.0,1.0,6,45.0,20.0,9,0.701,0.0,0.0,0.0,0,2019-11-28 09:23:03.000,21,2019-11-28 09:31:00.801,0.25,90,0,0,90,1
34,0,508.644,0,0,1,0.25,2,3,0.0,1.0,12,45.0,20.0,3,0.501,0.0,0.0,0.15,1,2019-11-28 09:23:03.000,21,2019-11-28 09:31:31.644,0.25,90,-180,-180,90,1
35,0,515.4019999999999,0,0,1,0.25,2,9,0.0,1.0,6,45.0,20.0,9,0.6509999999999999,0.0,0.0,0.0,0,2019-11-28 09:23:03.000,21,2019-11-28 09:31:38.402,0.25,90,0,0,90,1
37,0,551.151,0,0,1,0.25,2,9,0.0,1.0,6,45.0,20.0,9,0.601,1.0,552.993,0.15,1,2019-11-28 09:23:03.000,21,2019-11-28 09:32:14.151,0.25,-90,0,0,-90,1
38,0,558.024,0,0,1,0.25,2,3,0.0,1.0,12,45.0,20.0,3,0.501,0.0,0.0,0.15,1,2019-11-28 09:23:03.000,21,2019-11-28 09:32:21.024,0.25,90,-180,-180,90,1
39,0,564.804,0,0,1,0.25,2,9,0.0,1.0,6,45.0,20.0,9,0.551,1.0,566.7869999999999,0.15,1,2019-11-28 09:23:03.000,21,2019-11-28 09:32:27.804,0.25,-90,0,0,-90,1
40,0,581.27,0,0,1,0.25,2,9,0.0,1.0,6,45.0,20.0,9,0.701,1.0,582.922,0.15,1,2019-11-28 09:23:03.000,21,2019-11-28 09:32:44.270,0.25,-90,0,0,-90,1
41,0,589.872,0,0,1,0.25,2,9,0.0,1.0,6,45.0,20.0,9,0.601,1.0,592.013,0.15,1,2019-11-28 09:23:03.000,21,2019-11-28 09:32:52.872,0.25,-90,0,0,-90,1
42,0,604.5,1,0,1,0.25,2,3,0.0,1.0,12,45.0,20.0,3,0.701,1.0,612.258,0.0,0,2019-11-28 09:23:03.000,21,2019-11-28 09:33:07.500,0.25,-90,-180,-180,-90,1
45,0,644.064,0,0,1,0.25,2,9,0.0,1.0,6,45.0,20.0,9,0.6509999999999999,1.0,645.734,0.15,1,2019-11-28 09:23:03.000,21,2019-11-28 09:33:47.064,0.25,-90,0,0,-90,1
46,0,652.246,0,0,1,0.25,2,3,0.0,1.0,12,45.0,20.0,3,0.551,1.0,654.326,0.0,0,2019-11-28 09:23:03.000,21,2019-11-28 09:33:55.246,0.25,-90,-180,-180,-90,1
48,0,674.543,1,0,1,0.25,2,9,0.0,1.0,6,45.0,20.0,9,0.501,0.0,0.0,0.0,0,2019-11-28 09:23:03.000,21,2019-11-28 09:34:17.543,0.25,90,0,0,90,1
50,0,702.7239999999999,0,0,1,0.25,2,3,0.0,1.0,12,45.0,20.0,3,0.701,1.0,704.135,0.0,0,2019-11-28 09:23:03.000,21,2019-11-28 09:34:45.724,0.25,-90,-180,-180,-90,1
52,0,723.2389999999999,0,0,1,0.25,2,3,0.0,1.0,12,45.0,20.0,3,0.601,1.0,725.1060000000001,0.0,0,2019-11-28 09:23:03.000,21,2019-11-28 09:35:06.239,0.25,-90,-180,-180,-90,1
55,0,758.862,0,0,1,0.25,2,9,0.0,1.0,6,45.0,20.0,9,0.551,1.0,760.543,0.15,1,2019-11-28 09:23:03.000,21,2019-11-28 09:35:41.862,0.25,-90,0,0,-90,1
56,0,766.4730000000001,0,0,1,0.25,2,3,0.0,1.0,12,45.0,20.0,3,0.501,1.0,768.5219999999999,0.0,0,2019-11-28 09:23:03.000,21,2019-11-28 09:35:49.473,0.25,-90,-180,-180,-90,1
58,0,790.59,0,0,1,0.25,2,3,0.0,1.0,12,45.0,20.0,3,0.6509999999999999,0.0,0.0,0.15,1,2019-11-28 09:23:03.000,21,2019-11-28 09:36:13.590,0.25,90,-180,-180,90,1
59,0,796.888,0,0,1,0.25,2,3,0.0,1.0,12,45.0,20.0,3,0.501,0.0,0.0,0.15,1,2019-11-28 09:23:03.000,21,2019-11-28 09:36:19.888,0.25,90,-180,-180,90,1
60,0,804.039,0,0,1,0.25,2,9,0.0,1.0,6,45.0,20.0,9,0.601,1.0,811.694,0.15,1,2019-11-28 09:23:03.000,21,2019-11-28 09:36:27.039,0.25,-90,0,0,-90,1
61,0,817.192,0,0,1,0.25,2,3,0.0,1.0,12,45.0,20.0,3,0.701,0.0,0.0,0.15,1,2019-11-28 09:23:03.000,21,2019-11-28 09:36:40.192,0.25,90,-180,-180,90,1
62,0,824.177,0,0,1,0.25,2,9,0.0,1.0,6,45.0,20.0,9,0.6509999999999999,1.0,825.829,0.15,1,2019-11-28 09:23:03.000,21,2019-11-28 09:36:47.177,0.25,-90,0,0,-90,1
63,0,831.8,0,0,1,0.25,2,3,0.0,1.0,12,45.0,20.0,3,0.551,0.0,0.0,0.15,1,2019-11-28 09:23:03.000,21,2019-11-28 09:36:54.800,0.25,90,-180,-180,90,1
64,0,846.817,0,0,1,0.25,2,9,0.0,1.0,6,45.0,20.0,9,0.701,1.0,848.779,0.15,1,2019-11-28 09:23:03.000,21,2019-11-28 09:37:09.817,0.25,-90,0,0,-90,1
65,0,853.6439999999999,0,0,1,0.25,2,3,0.0,1.0,12,45.0,20.0,3,0.601,0.0,0.0,0.15,1,2019-11-28 09:23:03.000,21,2019-11-28 09:37:16.644,0.25,90,-180,-180,90,1
66,0,862.7510000000001,0,0,1,0.25,2,9,0.0,1.0,6,45.0,20.0,9,0.551,1.0,864.5210000000001,0.15,1,2019-11-28 09:23:03.000,21,2019-11-28 09:37:25.751,0.25,-90,0,0,-90,1
67,0,882.2760000000001,0,0,1,0.25,2,3,0.0,1.0,12,45.0,20.0,3,0.501,1.0,884.3889999999999,0.0,0,2019-11-28 09:23:03.000,21,2019-11-28 09:37:45.276,0.25,-90,-180,-180,-90,1
69,0,896.857,0,0,1,0.25,2,9,0.0,1.0,6,45.0,20.0,9,0.6509999999999999,1.0,898.3810000000001,0.15,1,2019-11-28 09:23:03.000,21,2019-11-28 09:37:59.857,0.25,-90,0,0,-90,1
70,0,903.596,0,0,1,0.25,2,9,0.0,1.0,6,45.0,20.0,9,0.701,1.0,905.566,0.15,1,2019-11-28 09:23:03.000,21,2019-11-28 09:38:06.596,0.25,-90,0,0,-90,1
71,0,910.435,0,0,1,0.25,2,9,0.0,1.0,6,45.0,20.0,9,0.601,1.0,912.755,0.15,1,2019-11-28 09:23:03.000,21,2019-11-28 09:38:13.435,0.25,-90,0,0,-90,1
72,0,938.793,0,0,1,0.25,2,9,0.0,1.0,6,45.0,20.0,9,0.501,1.0,940.69,0.15,1,2019-11-28 09:23:03.000,21,2019-11-28 09:38:41.793,0.25,-90,0,0,-90,1
73,0,950.59,1,0,1,0.25,2,9,0.0,1.0,6,45.0,20.0,9,0.551,1.0,952.0930000000001,0.15,1,2019-11-28 09:23:03.000,21,2019-11-28 09:38:53.590,0.25,-90,0,0,-90,1
74,0,966.0010000000001,0,0,1,0.25,2,3,0.0,1.0,12,45.0,20.0,3,0.6509999999999999,1.0,968.676,0.0,0,2019-11-28 09:23:03.000,21,2019-11-28 09:39:09.001,0.25,-90,-180,-180,-90,1
77,0,1025.144,1,0,1,0.25,2,3,0.0,1.0,12,45.0,20.0,3,0.701,1.0,1026.805,0.0,0,2019-11-28 09:23:03.000,21,2019-11-28 09:40:08.144,0.25,-90,-180,-180,-90,1
80,0,1066.9489999999998,0,0,1,0.25,2,9,0.0,1.0,6,45.0,20.0,9,0.501,1.0,1069.06,0.15,1,2019-11-28 09:23:03.000,21,2019-11-28 09:40:49.949,0.25,-90,0,0,-90,1
81,0,1074.678,0,0,1,0.25,2,3,0.0,1.0,12,45.0,20.0,3,0.601,1.0,1076.525,0.0,0,2019-11-28 09:23:03.000,21,2019-11-28 09:40:57.678,0.25,-90,-180,-180,-90,1
83,0,1106.519,0,0,1,0.25,2,9,0.0,1.0,6,45.0,20.0,9,0.551,1.0,1108.212,0.15,1,2019-11-28 09:23:03.000,21,2019-11-28 09:41:29.519,0.25,-90,0,0,-90,1
84,0,1137.861,0,0,1,0.25,2,3,0.0,1.0,12,45.0,20.0,3,0.6509999999999999,0.0,0.0,0.15,1,2019-11-28 09:23:03.000,21,2019-11-28 09:42:00.861,0.25,90,-180,-180,90,1
85,0,1158.224,0,0,1,0.25,2,3,0.0,1.0,12,45.0,20.0,3,0.6509999999999999,0.0,0.0,0.15,1,2019-11-28 09:23:03.000,21,2019-11-28 09:42:21.224,0.25,90,-180,-180,90,1
86,0,1164.77,0,0,1,0.25,2,3,0.0,1.0,12,45.0,20.0,3,0.601,1.0,1166.215,0.0,0,2019-11-28 09:23:03.000,21,2019-11-28 09:42:27.770,0.25,-90,-180,-180,-90,1
1,0,38.477,0,0,1,0.25,2,9,0.0,1.0,6,45.0,20.0,9,0.501,0.0,0.0,0.0,0,2019-11-28 16:50:52.000,19,2019-11-28 16:51:30.477,0.25,90,0,0,90,1
3,0,62.117,0,0,1,0.25,2,3,0.0,1.0,12,45.0,20.0,3,0.6509999999999999,0.0,0.0,0.15,1,2019-11-28 16:50:52.000,19,2019-11-28 16:51:54.117,0.25,90,-180,-180,90,1
4,0,71.423,0,0,1,0.25,2,9,0.0,1.0,6,45.0,20.0,9,0.701,0.0,0.0,0.0,0,2019-11-28 16:50:52.000,19,2019-11-28 16:52:03.423,0.25,90,0,0,90,1
6,0,104.30799999999999,0,0,1,0.25,2,3,0.0,1.0,12,45.0,20.0,3,0.601,0.0,0.0,0.15,1,2019-11-28 16:50:52.000,19,2019-11-28 16:52:36.308,0.25,90,-180,-180,90,1
7,0,111.314,0,0,1,0.25,2,3,0.0,1.0,12,45.0,20.0,3,0.551,0.0,0.0,0.15,1,2019-11-28 16:50:52.000,19,2019-11-28 16:52:43.314,0.25,90,-180,-180,90,1
8,0,118.226,0,0,1,0.25,2,3,0.0,1.0,12,45.0,20.0,3,0.551,0.0,0.0,0.15,1,2019-11-28 16:50:52.000,19,2019-11-28 16:52:50.226,0.25,90,-180,-180,90,1
9,0,126.84899999999999,0,0,1,0.25,2,3,0.0,1.0,12,45.0,20.0,3,0.601,0.0,0.0,0.15,1,2019-11-28 16:50:52.000,19,2019-11-28 16:52:58.849,0.25,90,-180,-180,90,1
10,0,152.246,0,0,1,0.25,2,9,0.0,1.0,6,45.0,20.0,9,0.6509999999999999,0.0,0.0,0.0,0,2019-11-28 16:50:52.000,19,2019-11-28 16:53:24.246,0.25,90,0,0,90,1
12,0,187.511,0,0,1,0.25,2,3,0.0,1.0,12,45.0,20.0,3,0.501,0.0,0.0,0.15,1,2019-11-28 16:50:52.000,19,2019-11-28 16:53:59.511,0.25,90,-180,-180,90,1
13,0,196.06900000000002,0,0,1,0.25,2,9,0.0,1.0,6,45.0,20.0,9,0.701,1.0,197.707,0.15,1,2019-11-28 16:50:52.000,19,2019-11-28 16:54:08.069,0.25,-90,0,0,-90,1
14,0,204.93599999999998,0,0,1,0.25,2,3,0.0,1.0,12,45.0,20.0,3,0.6509999999999999,0.0,0.0,0.15,1,2019-11-28 16:50:52.000,19,2019-11-28 16:54:16.936,0.25,90,-180,-180,90,1
15,0,211.99599999999998,0,0,1,0.25,2,9,0.0,1.0,6,45.0,20.0,9,0.501,1.0,213.525,0.15,1,2019-11-28 16:50:52.000,19,2019-11-28 16:54:23.996,0.25,-90,0,0,-90,1
16,0,221.595,0,0,1,0.25,2,3,0.0,1.0,12,45.0,20.0,3,0.601,0.0,0.0,0.15,1,2019-11-28 16:50:52.000,19,2019-11-28 16:54:33.595,0.25,90,-180,-180,90,1
17,0,229.192,0,0,1,0.25,2,9,0.0,1.0,6,45.0,20.0,9,0.551,0.0,0.0,0.0,0,2019-11-28 16:50:52.000,19,2019-11-28 16:54:41.192,0.25,90,0,0,90,1
19,0,275.08799999999997,0,0,1,0.25,2,9,0.0,1.0,6,45.0,20.0,9,0.701,1.0,276.596,0.15,1,2019-11-28 16:50:52.000,19,2019-11-28 16:55:27.088,0.25,-90,0,0,-90,1
20,0,284.621,0,0,1,0.25,2,9,0.0,1.0,6,45.0,20.0,9,0.501,1.0,286.85400000000004,0.15,1,2019-11-28 16:50:52.000,19,2019-11-28 16:55:36.621,0.25,-90,0,0,-90,1
21,0,294.533,0,0,1,0.25,2,9,0.0,1.0,6,45.0,20.0,9,0.6509999999999999,1.0,296.457,0.15,1,2019-11-28 16:50:52.000,19,2019-11-28 16:55:46.533,0.25,-90,0,0,-90,1
22,0,304.09,0,0,1,0.25,2,3,0.0,1.0,12,45.0,20.0,3,0.701,0.0,0.0,0.15,1,2019-11-28 16:50:52.000,19,2019-11-28 16:55:56.090,0.25,90,-180,-180,90,1
23,0,309.983,0,0,1,0.25,2,9,0.0,1.0,6,45.0,20.0,9,0.551,1.0,311.568,0.15,1,2019-11-28 16:50:52.000,19,2019-11-28 16:56:01.983,0.25,-90,0,0,-90,1
24,0,318.793,0,0,1,0.25,2,3,0.0,1.0,12,45.0,20.0,3,0.601,0.0,0.0,0.15,1,2019-11-28 16:50:52.000,19,2019-11-28 16:56:10.793,0.25,90,-180,-180,90,1
25,0,325.584,0,0,1,0.25,2,3,0.0,1.0,12,45.0,20.0,3,0.551,0.0,0.0,0.15,1,2019-11-28 16:50:52.000,19,2019-11-28 16:56:17.584,0.25,90,-180,-180,90,1
26,0,339.035,0,0,1,0.25,2,3,0.0,1.0,12,45.0,20.0,3,0.601,1.0,341.54,0.0,0,2019-11-28 16:50:52.000,19,2019-11-28 16:56:31.035,0.25,-90,-180,-180,-90,1
28,0,358.89099999999996,0,0,1,0.25,2,9,0.0,1.0,6,45.0,20.0,9,0.701,1.0,360.70599999999996,0.15,1,2019-11-28 16:50:52.000,19,2019-11-28 16:56:50.891,0.25,-90,0,0,-90,1
29,0,366.269,0,0,1,0.25,2,3,0.0,1.0,12,45.0,20.0,3,0.6509999999999999,0.0,0.0,0.15,1,2019-11-28 16:50:52.000,19,2019-11-28 16:56:58.269,0.25,90,-180,-180,90,1
30,0,372.034,0,0,1,0.25,2,9,0.0,1.0,6,45.0,20.0,9,0.501,1.0,373.565,0.15,1,2019-11-28 16:50:52.000,19,2019-11-28 16:57:04.034,0.25,-90,0,0,-90,1
31,0,380.671,0,0,1,0.25,2,3,0.0,1.0,12,45.0,20.0,3,0.601,0.0,0.0,0.15,1,2019-11-28 16:50:52.000,19,2019-11-28 16:57:12.671,0.25,90,-180,-180,90,1
32,0,403.022,0,0,1,0.25,2,3,0.0,1.0,12,45.0,20.0,3,0.6509999999999999,0.0,0.0,0.15,1,2019-11-28 16:50:52.000,19,2019-11-28 16:57:35.022,0.25,90,-180,-180,90,1
33,0,410.89099999999996,1,0,1,0.25,2,3,0.0,1.0,12,45.0,20.0,3,0.551,0.0,0.0,0.15,1,2019-11-28 16:50:52.000,19,2019-11-28 16:57:42.891,0.25,90,-180,-180,90,1
34,0,419.903,0,0,1,0.25,2,3,0.0,1.0,12,45.0,20.0,3,0.501,1.0,422.19300000000004,0.0,0,2019-11-28 16:50:52.000,19,2019-11-28 16:57:51.903,0.25,-90,-180,-180,-90,1
36,0,439.966,0,0,1,0.25,2,3,0.0,1.0,12,45.0,20.0,3,0.701,0.0,0.0,0.15,1,2019-11-28 16:50:52.000,19,2019-11-28 16:58:11.966,0.25,90,-180,-180,90,1
37,0,445.819,0,0,1,0.25,2,9,0.0,1.0,6,45.0,20.0,9,0.551,1.0,447.684,0.15,1,2019-11-28 16:50:52.000,19,2019-11-28 16:58:17.819,0.25,-90,0,0,-90,1
38,0,453.213,0,0,1,0.25,2,9,0.0,1.0,6,45.0,20.0,9,0.601,1.0,455.05699999999996,0.15,1,2019-11-28 16:50:52.000,19,2019-11-28 16:58:25.213,0.25,-90,0,0,-90,1
39,0,460.473,0,0,1,0.25,2,3,0.0,1.0,12,45.0,20.0,3,0.6509999999999999,0.0,0.0,0.15,1,2019-11-28 16:50:52.000,19,2019-11-28 16:58:32.473,0.25,90,-180,-180,90,1
40,0,486.254,0,0,1,0.25,2,9,0.0,1.0,6,45.0,20.0,9,0.701,1.0,488.08099999999996,0.15,1,2019-11-28 16:50:52.000,19,2019-11-28 16:58:58.254,0.25,-90,0,0,-90,1
41,0,502.723,0,0,1,0.25,2,3,0.0,1.0,12,45.0,20.0,3,0.501,1.0,504.741,0.0,0,2019-11-28 16:50:52.000,19,2019-11-28 16:59:14.723,0.25,-90,-180,-180,-90,1
43,0,525.9,0,0,1,0.25,2,9,0.0,1.0,6,45.0,20.0,9,0.551,1.0,527.867,0.15,1,2019-11-28 16:50:52.000,19,2019-11-28 16:59:37.900,0.25,-90,0,0,-90,1
44,0,535.266,0,0,1,0.25,2,9,0.0,1.0,6,45.0,20.0,9,0.601,1.0,537.069,0.15,1,2019-11-28 16:50:52.000,19,2019-11-28 16:59:47.266,0.25,-90,0,0,-90,1
45,0,542.711,0,0,1,0.25,2,9,0.0,1.0,6,45.0,20.0,9,0.6509999999999999,1.0,544.756,0.15,1,2019-11-28 16:50:52.000,19,2019-11-28 16:59:54.711,0.25,-90,0,0,-90,1
46,0,550.127,0,0,1,0.25,2,9,0.0,1.0,6,45.0,20.0,9,0.701,1.0,551.516,0.15,1,2019-11-28 16:50:52.000,19,2019-11-28 17:00:02.127,0.25,-90,0,0,-90,1
47,0,556.174,0,0,1,0.25,2,9,0.0,1.0,6,45.0,20.0,9,0.501,1.0,558.245,0.15,1,2019-11-28 16:50:52.000,19,2019-11-28 17:00:08.174,0.25,-90,0,0,-90,1
48,0,563.42,0,0,1,0.25,2,9,0.0,1.0,6,45.0,20.0,9,0.601,1.0,565.4780000000001,0.15,1,2019-11-28 16:50:52.000,19,2019-11-28 17:00:15.420,0.25,-90,0,0,-90,1
49,0,574.862,0,0,1,0.25,2,3,0.0,1.0,12,45.0,20.0,3,0.6509999999999999,0.0,0.0,0.15,1,2019-11-28 16:50:52.000,19,2019-11-28 17:00:26.862,0.25,90,-180,-180,90,1
50,0,580.844,1,0,1,0.25,2,9,0.0,1.0,6,45.0,20.0,9,0.501,0.0,0.0,0.0,0,2019-11-28 16:50:52.000,19,2019-11-28 17:00:32.844,0.25,90,0,0,90,1
52,0,612.57,0,0,1,0.25,2,9,0.0,1.0,6,45.0,20.0,9,0.701,1.0,614.07,0.15,1,2019-11-28 16:50:52.000,19,2019-11-28 17:01:04.570,0.25,-90,0,0,-90,1
53,0,619.089,0,0,1,0.25,2,3,0.0,1.0,12,45.0,20.0,3,0.551,0.0,0.0,0.15,1,2019-11-28 16:50:52.000,19,2019-11-28 17:01:11.089,0.25,90,-180,-180,90,1
54,0,624.826,0,0,1,0.25,2,9,0.0,1.0,6,45.0,20.0,9,0.551,1.0,626.553,0.15,1,2019-11-28 16:50:52.000,19,2019-11-28 17:01:16.826,0.25,-90,0,0,-90,1
55,0,633.068,0,0,1,0.25,2,9,0.0,1.0,6,45.0,20.0,9,0.601,1.0,634.863,0.15,1,2019-11-28 16:50:52.000,19,2019-11-28 17:01:25.068,0.25,-90,0,0,-90,1
56,0,639.5169999999999,0,0,1,0.25,2,9,0.0,1.0,6,45.0,20.0,9,0.501,1.0,641.29,0.15,1,2019-11-28 16:50:52.000,19,2019-11-28 17:01:31.517,0.25,-90,0,0,-90,1
57,0,650.82,0,0,1,0.25,2,9,0.0,1.0,6,45.0,20.0,9,0.701,0.0,0.0,0.0,0,2019-11-28 16:50:52.000,19,2019-11-28 17:01:42.820,0.25,90,0,0,90,1
60,0,681.1189999999999,0,0,1,0.25,2,9,0.0,1.0,6,45.0,20.0,9,0.6509999999999999,1.0,682.797,0.15,1,2019-11-28 16:50:52.000,19,2019-11-28 17:02:13.119,0.25,-90,0,0,-90,1
61,0,698.7189999999999,0,0,1,0.25,2,3,0.0,1.0,12,45.0,20.0,3,0.551,1.0,700.696,0.0,0,2019-11-28 16:50:52.000,19,2019-11-28 17:02:30.719,0.25,-90,-180,-180,-90,1
63,0,724.2739999999999,0,0,1,0.25,2,9,0.0,1.0,6,45.0,20.0,9,0.601,1.0,726.293,0.15,1,2019-11-28 16:50:52.000,19,2019-11-28 17:02:56.274,0.25,-90,0,0,-90,1
64,0,730.7460000000001,0,0,1,0.25,2,3,0.0,1.0,12,45.0,20.0,3,0.6509999999999999,0.0,0.0,0.15,1,2019-11-28 16:50:52.000,19,2019-11-28 17:03:02.746,0.25,90,-180,-180,90,1
65,0,762.502,0,0,1,0.25,2,3,0.0,1.0,12,45.0,20.0,3,0.701,0.0,0.0,0.15,1,2019-11-28 16:50:52.000,19,2019-11-28 17:03:34.502,0.25,90,-180,-180,90,1
66,0,773.304,0,0,1,0.25,2,9,0.0,1.0,6,45.0,20.0,9,0.501,1.0,775.227,0.15,1,2019-11-28 16:50:52.000,19,2019-11-28 17:03:45.304,0.25,-90,0,0,-90,1
67,0,779.919,0,0,1,0.25,2,3,0.0,1.0,12,45.0,20.0,3,0.601,0.0,0.0,0.15,1,2019-11-28 16:50:52.000,19,2019-11-28 17:03:51.919,0.25,90,-180,-180,90,1
68,0,786.2710000000001,0,0,1,0.25,2,3,0.0,1.0,12,45.0,20.0,3,0.6509999999999999,1.0,787.922,0.0,0,2019-11-28 16:50:52.000,19,2019-11-28 17:03:58.271,0.25,-90,-180,-180,-90,1
70,0,802.57,0,0,1,0.25,2,3,0.0,1.0,12,45.0,20.0,3,0.501,0.0,0.0,0.15,1,2019-11-28 16:50:52.000,19,2019-11-28 17:04:14.570,0.25,90,-180,-180,90,1
71,0,808.5210000000001,0,0,1,0.25,2,3,0.0,1.0,12,45.0,20.0,3,0.701,0.0,0.0,0.15,1,2019-11-28 16:50:52.000,19,2019-11-28 17:04:20.521,0.25,90,-180,-180,90,1
72,0,814.7860000000001,0,0,1,0.25,2,3,0.0,1.0,12,45.0,20.0,3,0.551,1.0,817.22,0.0,0,2019-11-28 16:50:52.000,19,2019-11-28 17:04:26.786,0.25,-90,-180,-180,-90,1
74,0,834.273,0,0,1,0.25,2,3,0.0,1.0,12,45.0,20.0,3,0.501,0.0,0.0,0.15,1,2019-11-28 16:50:52.000,19,2019-11-28 17:04:46.273,0.25,90,-180,-180,90,1
75,0,841.268,0,0,1,0.25,2,3,0.0,1.0,12,45.0,20.0,3,0.701,0.0,0.0,0.15,1,2019-11-28 16:50:52.000,19,2019-11-28 17:04:53.268,0.25,90,-180,-180,90,1
76,0,848.696,0,0,1,0.25,2,9,0.0,1.0,6,45.0,20.0,9,0.551,1.0,850.3910000000001,0.15,1,2019-11-28 16:50:52.000,19,2019-11-28 17:05:00.696,0.25,-90,0,0,-90,1
77,0,896.8580000000001,0,0,1,0.25,2,9,0.0,1.0,6,45.0,20.0,9,0.6509999999999999,1.0,898.554,0.15,1,2019-11-28 16:50:52.000,19,2019-11-28 17:05:48.858,0.25,-90,0,0,-90,1
78,0,903.863,0,0,1,0.25,2,9,0.0,1.0,6,45.0,20.0,9,0.601,1.0,905.928,0.15,1,2019-11-28 16:50:52.000,19,2019-11-28 17:05:55.863,0.25,-90,0,0,-90,1
79,0,915.056,1,0,1,0.25,2,3,0.0,1.0,12,45.0,20.0,3,0.551,0.0,0.0,0.15,1,2019-11-28 16:50:52.000,19,2019-11-28 17:06:07.056,0.25,90,-180,-180,90,1
80,0,935.3480000000001,0,0,1,0.25,2,3,0.0,1.0,12,45.0,20.0,3,0.501,0.0,0.0,0.15,1,2019-11-28 16:50:52.000,19,2019-11-28 17:06:27.348,0.25,90,-180,-180,90,1
81,0,941.998,0,0,1,0.25,2,9,0.0,1.0,6,45.0,20.0,9,0.601,1.0,943.8689999999999,0.15,1,2019-11-28 16:50:52.000,19,2019-11-28 17:06:33.998,0.25,-90,0,0,-90,1
82,0,955.8989999999999,0,0,1,0.25,2,3,0.0,1.0,12,45.0,20.0,3,0.6509999999999999,0.0,0.0,0.15,1,2019-11-28 16:50:52.000,19,2019-11-28 17:06:47.899,0.25,90,-180,-180,90,1
83,0,962.1289999999999,0,0,1,0.25,2,9,0.0,1.0,6,45.0,20.0,9,0.701,1.0,964.5939999999999,0.15,1,2019-11-28 16:50:52.000,19,2019-11-28 17:06:54.129,0.25,-90,0,0,-90,1
84,0,981.949,0,0,1,0.25,2,9,0.0,1.0,6,45.0,20.0,9,0.601,1.0,984.22,0.15,1,2019-11-28 16:50:52.000,19,2019-11-28 17:07:13.949,0.25,-90,0,0,-90,1
85,0,993.185,0,0,1,0.25,2,9,0.0,1.0,6,45.0,20.0,9,0.501,0.0,0.0,0.0,0,2019-11-28 16:50:52.000,19,2019-11-28 17:07:25.185,0.25,90,0,0,90,1
87,0,1012.3789999999999,0,0,1,0.25,2,3,0.0,1.0,12,45.0,20.0,3,0.6509999999999999,0.0,0.0,0.15,1,2019-11-28 16:50:52.000,19,2019-11-28 17:07:44.379,0.25,90,-180,-180,90,1
88,0,1018.1410000000001,0,0,1,0.25,2,3,0.0,1.0,12,45.0,20.0,3,0.551,1.0,1020.317,0.0,0,2019-11-28 16:50:52.000,19,2019-11-28 17:07:50.141,0.25,-90,-180,-180,-90,1
90,0,1046.361,0,0,1,0.25,2,3,0.0,1.0,12,45.0,20.0,3,0.701,0.0,0.0,0.15,1,2019-11-28 16:50:52.000,19,2019-11-28 17:08:18.361,0.25,90,-180,-180,90,1
91,0,1053.53,1,0,1,0.25,2,9,0.0,1.0,6,45.0,20.0,9,0.551,1.0,1057.654,0.15,1,2019-11-28 16:50:52.000,19,2019-11-28 17:08:25.530,0.25,-90,0,0,-90,1
1,0,90.654,0,0,1,0.25,2,3,0.0,1.0,12,45.0,20.0,3,0.601,0.0,0.0,0.15,1,2019-11-29 09:39:14.000,36,2019-11-29 09:40:44.654,0.25,90,-180,-180,90,1
2,0,126.85,0,0,1,0.25,2,3,0.0,1.0,12,45.0,20.0,3,0.701,0.0,0.0,0.15,1,2019-11-29 09:39:14.000,36,2019-11-29 09:41:20.850,0.25,90,-180,-180,90,1
3,0,140.755,0,0,1,0.25,2,3,0.0,1.0,12,45.0,20.0,3,0.501,0.0,0.0,0.15,1,2019-11-29 09:39:14.000,36,2019-11-29 09:41:34.755,0.25,90,-180,-180,90,1
4,0,149.619,0,0,1,0.25,2,3,0.0,1.0,12,45.0,20.0,3,0.551,0.0,0.0,0.15,1,2019-11-29 09:39:14.000,36,2019-11-29 09:41:43.619,0.25,90,-180,-180,90,1
5,0,160.965,0,0,1,0.25,2,9,0.0,1.0,6,45.0,20.0,9,0.6509999999999999,0.0,0.0,0.0,0,2019-11-29 09:39:14.000,36,2019-11-29 09:41:54.965,0.25,90,0,0,90,1
10,0,252.31099999999998,0,0,1,0.25,2,3,0.0,1.0,12,45.0,20.0,3,0.701,0.0,0.0,0.15,1,2019-11-29 09:39:14.000,36,2019-11-29 09:43:26.311,0.25,90,-180,-180,90,1
11,0,259.253,0,0,1,0.25,2,3,0.0,1.0,12,45.0,20.0,3,0.501,0.0,0.0,0.15,1,2019-11-29 09:39:14.000,36,2019-11-29 09:43:33.253,0.25,90,-180,-180,90,1
12,0,266.611,0,0,1,0.25,2,3,0.0,1.0,12,45.0,20.0,3,0.551,0.0,0.0,0.15,1,2019-11-29 09:39:14.000,36,2019-11-29 09:43:40.611,0.25,90,-180,-180,90,1
13,0,287.959,0,0,1,0.25,2,9,0.0,1.0,6,45.0,20.0,9,0.6509999999999999,1.0,289.687,0.15,1,2019-11-29 09:39:14.000,36,2019-11-29 09:44:01.959,0.25,-90,0,0,-90,1
14,0,299.31,0,0,1,0.25,2,9,0.0,1.0,6,45.0,20.0,9,0.601,0.0,0.0,0.0,0,2019-11-29 09:39:14.000,36,2019-11-29 09:44:13.310,0.25,90,0,0,90,1
16,0,331.991,0,0,1,0.25,2,9,0.0,1.0,6,45.0,20.0,9,0.551,1.0,333.871,0.15,1,2019-11-29 09:39:14.000,36,2019-11-29 09:44:45.991,0.25,-90,0,0,-90,1
17,0,349.202,0,0,1,0.25,2,9,0.0,1.0,6,45.0,20.0,9,0.601,1.0,351.44300000000004,0.15,1,2019-11-29 09:39:14.000,36,2019-11-29 09:45:03.202,0.25,-90,0,0,-90,1
18,0,364.94800000000004,0,0,1,0.25,2,9,0.0,1.0,6,45.0,20.0,9,0.6509999999999999,0.0,0.0,0.0,0,2019-11-29 09:39:14.000,36,2019-11-29 09:45:18.948,0.25,90,0,0,90,1
20,0,428.833,0,0,1,0.25,2,9,0.0,1.0,6,45.0,20.0,9,0.701,1.0,430.841,0.15,1,2019-11-29 09:39:14.000,36,2019-11-29 09:46:22.833,0.25,-90,0,0,-90,1
21,0,439.035,0,0,1,0.25,2,3,0.0,1.0,12,45.0,20.0,3,0.501,0.0,0.0,0.15,1,2019-11-29 09:39:14.000,36,2019-11-29 09:46:33.035,0.25,90,-180,-180,90,1
22,0,468.55300000000005,0,0,1,0.25,2,9,0.0,1.0,6,45.0,20.0,9,0.701,1.0,471.108,0.15,1,2019-11-29 09:39:14.000,36,2019-11-29 09:47:02.553,0.25,-90,0,0,-90,1
23,0,477.695,0,0,1,0.25,2,9,0.0,1.0,6,45.0,20.0,9,0.501,1.0,479.9,0.15,1,2019-11-29 09:39:14.000,36,2019-11-29 09:47:11.695,0.25,-90,0,0,-90,1
24,0,486.097,0,0,1,0.25,2,9,0.0,1.0,6,45.0,20.0,9,0.551,1.0,488.281,0.15,1,2019-11-29 09:39:14.000,36,2019-11-29 09:47:20.097,0.25,-90,0,0,-90,1
25,0,495.042,0,0,1,0.25,2,3,0.0,1.0,12,45.0,20.0,3,0.6509999999999999,0.0,0.0,0.15,1,2019-11-29 09:39:14.000,36,2019-11-29 09:47:29.042,0.25,90,-180,-180,90,1
26,0,502.343,0,0,1,0.25,2,3,0.0,1.0,12,45.0,20.0,3,0.601,1.0,504.62199999999996,0.0,0,2019-11-29 09:39:14.000,36,2019-11-29 09:47:36.343,0.25,-90,-180,-180,-90,1
28,0,522.505,0,0,1,0.25,2,9,0.0,1.0,6,45.0,20.0,9,0.6509999999999999,1.0,524.26,0.15,1,2019-11-29 09:39:14.000,36,2019-11-29 09:47:56.505,0.25,-90,0,0,-90,1
29,0,543.2040000000001,0,0,1,0.25,2,9,0.0,1.0,6,45.0,20.0,9,0.601,1.0,545.102,0.15,1,2019-11-29 09:39:14.000,36,2019-11-29 09:48:17.204,0.25,-90,0,0,-90,1
30,0,551.352,0,0,1,0.25,2,3,0.0,1.0,12,45.0,20.0,3,0.551,0.0,0.0,0.15,1,2019-11-29 09:39:14.000,36,2019-11-29 09:48:25.352,0.25,90,-180,-180,90,1
31,0,558.232,0,0,1,0.25,2,3,0.0,1.0,12,45.0,20.0,3,0.501,0.0,0.0,0.15,1,2019-11-29 09:39:14.000,36,2019-11-29 09:48:32.232,0.25,90,-180,-180,90,1
32,0,573.0980000000001,0,0,1,0.25,2,3,0.0,1.0,12,45.0,20.0,3,0.701,0.0,0.0,0.15,1,2019-11-29 09:39:14.000,36,2019-11-29 09:48:47.098,0.25,90,-180,-180,90,1
33,0,579.87,1,0,1,0.25,2,3,0.0,1.0,12,45.0,20.0,3,0.6509999999999999,0.0,0.0,0.15,1,2019-11-29 09:39:14.000,36,2019-11-29 09:48:53.870,0.25,90,-180,-180,90,1
34,0,592.023,0,0,1,0.25,2,3,0.0,1.0,12,45.0,20.0,3,0.551,1.0,594.885,0.0,0,2019-11-29 09:39:14.000,36,2019-11-29 09:49:06.023,0.25,-90,-180,-180,-90,1
36,0,626.438,0,0,1,0.25,2,3,0.0,1.0,12,45.0,20.0,3,0.501,0.0,0.0,0.15,1,2019-11-29 09:39:14.000,36,2019-11-29 09:49:40.438,0.25,90,-180,-180,90,1
37,0,633.972,0,0,1,0.25,2,9,0.0,1.0,6,45.0,20.0,9,0.601,1.0,635.54,0.15,1,2019-11-29 09:39:14.000,36,2019-11-29 09:49:47.972,0.25,-90,0,0,-90,1
38,0,673.2310000000001,0,0,1,0.25,2,9,0.0,1.0,6,45.0,20.0,9,0.701,1.0,675.193,0.15,1,2019-11-29 09:39:14.000,36,2019-11-29 09:50:27.231,0.25,-90,0,0,-90,1
39,0,690.821,0,0,1,0.25,2,3,0.0,1.0,12,45.0,20.0,3,0.501,0.0,0.0,0.15,1,2019-11-29 09:39:14.000,36,2019-11-29 09:50:44.821,0.25,90,-180,-180,90,1
40,0,698.525,0,0,1,0.25,2,3,0.0,1.0,12,45.0,20.0,3,0.551,1.0,700.659,0.0,0,2019-11-29 09:39:14.000,36,2019-11-29 09:50:52.525,0.25,-90,-180,-180,-90,1
42,0,736.4789999999999,0,0,1,0.25,2,9,0.0,1.0,6,45.0,20.0,9,0.701,0.0,0.0,0.0,0,2019-11-29 09:39:14.000,36,2019-11-29 09:51:30.479,0.25,90,0,0,90,1
44,0,756.6160000000001,0,0,1,0.25,2,9,0.0,1.0,6,45.0,20.0,9,0.6509999999999999,1.0,758.698,0.15,1,2019-11-29 09:39:14.000,36,2019-11-29 09:51:50.616,0.25,-90,0,0,-90,1
45,0,763.707,0,0,1,0.25,2,9,0.0,1.0,6,45.0,20.0,9,0.601,1.0,765.4639999999999,0.15,1,2019-11-29 09:39:14.000,36,2019-11-29 09:51:57.707,0.25,-90,0,0,-90,1
46,0,797.4830000000001,0,0,1,0.25,2,9,0.0,1.0,6,45.0,20.0,9,0.601,1.0,799.6560000000001,0.15,1,2019-11-29 09:39:14.000,36,2019-11-29 09:52:31.483,0.25,-90,0,0,-90,1
47,0,806.2739999999999,0,0,1,0.25,2,9,0.0,1.0,6,45.0,20.0,9,0.551,1.0,808.3330000000001,0.15,1,2019-11-29 09:39:14.000,36,2019-11-29 09:52:40.274,0.25,-90,0,0,-90,1
48,0,818.307,0,0,1,0.25,2,9,0.0,1.0,6,45.0,20.0,9,0.6509999999999999,1.0,821.9810000000001,0.15,1,2019-11-29 09:39:14.000,36,2019-11-29 09:52:52.307,0.25,-90,0,0,-90,1
49,0,829.355,1,0,1,0.25,2,3,0.0,1.0,12,45.0,20.0,3,0.501,1.0,834.02,0.0,0,2019-11-29 09:39:14.000,36,2019-11-29 09:53:03.355,0.25,-90,-180,-180,-90,1
51,0,847.4639999999999,0,0,1,0.25,2,3,0.0,1.0,12,45.0,20.0,3,0.701,0.0,0.0,0.15,1,2019-11-29 09:39:14.000,36,2019-11-29 09:53:21.464,0.25,90,-180,-180,90,1
52,0,853.5360000000001,0,0,1,0.25,2,3,0.0,1.0,12,45.0,20.0,3,0.551,0.0,0.0,0.15,1,2019-11-29 09:39:14.000,36,2019-11-29 09:53:27.536,0.25,90,-180,-180,90,1
53,0,860.414,0,0,1,0.25,2,3,0.0,1.0,12,45.0,20.0,3,0.501,0.0,0.0,0.15,1,2019-11-29 09:39:14.000,36,2019-11-29 09:53:34.414,0.25,90,-180,-180,90,1
54,0,866.6519999999999,0,0,1,0.25,2,9,0.0,1.0,6,45.0,20.0,9,0.701,1.0,868.957,0.15,1,2019-11-29 09:39:14.000,36,2019-11-29 09:53:40.652,0.25,-90,0,0,-90,1
55,0,881.8860000000001,0,0,1,0.25,2,9,0.0,1.0,6,45.0,20.0,9,0.6509999999999999,1.0,884.38,0.15,1,2019-11-29 09:39:14.000,36,2019-11-29 09:53:55.886,0.25,-90,0,0,-90,1
56,0,890.062,0,0,1,0.25,2,3,0.0,1.0,12,45.0,20.0,3,0.601,0.0,0.0,0.15,1,2019-11-29 09:39:14.000,36,2019-11-29 09:54:04.062,0.25,90,-180,-180,90,1
57,0,896.3689999999999,0,0,1,0.25,2,3,0.0,1.0,12,45.0,20.0,3,0.501,1.0,898.242,0.0,0,2019-11-29 09:39:14.000,36,2019-11-29 09:54:10.369,0.25,-90,-180,-180,-90,1
59,0,921.459,0,0,1,0.25,2,3,0.0,1.0,12,45.0,20.0,3,0.701,0.0,0.0,0.15,1,2019-11-29 09:39:14.000,36,2019-11-29 09:54:35.459,0.25,90,-180,-180,90,1
60,0,952.937,0,0,1,0.25,2,9,0.0,1.0,6,45.0,20.0,9,0.6509999999999999,1.0,955.12,0.15,1,2019-11-29 09:39:14.000,36,2019-11-29 09:55:06.937,0.25,-90,0,0,-90,1
61,0,964.8589999999999,0,0,1,0.25,2,9,0.0,1.0,6,45.0,20.0,9,0.601,1.0,969.8389999999999,0.15,1,2019-11-29 09:39:14.000,36,2019-11-29 09:55:18.859,0.25,-90,0,0,-90,1
62,0,1008.0369999999999,0,0,1,0.25,2,9,0.0,1.0,6,45.0,20.0,9,0.551,1.0,1009.852,0.15,1,2019-11-29 09:39:14.000,36,2019-11-29 09:56:02.037,0.25,-90,0,0,-90,1
63,0,1021.785,1,0,1,0.25,2,9,0.0,1.0,6,45.0,20.0,9,0.551,0.0,0.0,0.0,0,2019-11-29 09:39:14.000,36,2019-11-29 09:56:15.785,0.25,90,0,0,90,1
65,0,1053.484,0,0,1,0.25,2,9,0.0,1.0,6,45.0,20.0,9,0.501,1.0,1054.9260000000002,0.15,1,2019-11-29 09:39:14.000,36,2019-11-29 09:56:47.484,0.25,-90,0,0,-90,1
1,0,62.72,0,-60,1,0.25,2,3,0.0,1.0,12,45.0,20.0,3,0.601,0.0,0.0,0.15,1,2019-11-29 14:54:08.000,53,2019-11-29 14:55:10.720,0.25,90,-180,-120,150,1
2,0,104.78200000000001,0,-60,1,0.25,2,3,0.0,1.0,12,45.0,20.0,3,0.501,0.0,0.0,0.15,1,2019-11-29 14:54:08.000,53,2019-11-29 14:55:52.782,0.25,90,-180,-120,150,1
3,0,114.359,0,-60,1,0.25,2,3,0.0,1.0,12,45.0,20.0,3,0.551,0.0,0.0,0.15,1,2019-11-29 14:54:08.000,53,2019-11-29 14:56:02.359,0.25,90,-180,-120,150,1
4,0,122.219,0,-60,1,0.25,2,3,0.0,1.0,12,45.0,20.0,3,0.701,0.0,0.0,0.15,1,2019-11-29 14:54:08.000,53,2019-11-29 14:56:10.219,0.25,90,-180,-120,150,1
5,0,130.47899999999998,0,-60,1,0.25,2,3,0.0,1.0,12,45.0,20.0,3,0.6509999999999999,0.0,0.0,0.15,1,2019-11-29 14:54:08.000,53,2019-11-29 14:56:18.479,0.25,90,-180,-120,150,1
6,0,146.868,0,-60,1,0.25,2,9,0.0,1.0,6,45.0,20.0,9,0.701,0.0,0.0,0.0,0,2019-11-29 14:54:08.000,53,2019-11-29 14:56:34.868,0.25,90,0,60,150,1
10,0,203.22400000000002,0,-60,1,0.25,2,3,0.0,1.0,12,45.0,20.0,3,0.6509999999999999,0.0,0.0,0.15,1,2019-11-29 14:54:08.000,53,2019-11-29 14:57:31.224,0.25,90,-180,-120,150,1
11,0,213.82,1,-60,1,0.25,2,9,0.0,1.0,6,45.0,20.0,9,0.551,0.0,0.0,0.0,0,2019-11-29 14:54:08.000,53,2019-11-29 14:57:41.820,0.25,90,0,60,150,1
13,0,261.42400000000004,0,-60,1,0.25,2,9,0.0,1.0,6,45.0,20.0,9,0.501,1.0,263.825,0.15,1,2019-11-29 14:54:08.000,53,2019-11-29 14:58:29.424,0.25,-90,0,60,-30,1
14,0,273.47,0,-60,1,0.25,2,3,0.0,1.0,12,45.0,20.0,3,0.601,0.0,0.0,0.15,1,2019-11-29 14:54:08.000,53,2019-11-29 14:58:41.470,0.25,90,-180,-120,150,1
15,0,281.89,0,-60,1,0.25,2,9,0.0,1.0,6,45.0,20.0,9,0.551,0.0,0.0,0.0,0,2019-11-29 14:54:08.000,53,2019-11-29 14:58:49.890,0.25,90,0,60,150,1
17,0,326.47700000000003,0,-60,1,0.25,2,9,0.0,1.0,6,45.0,20.0,9,0.501,0.0,0.0,0.0,0,2019-11-29 14:54:08.000,53,2019-11-29 14:59:34.477,0.25,90,0,60,150,1
19,0,381.99699999999996,0,-60,1,0.25,2,9,0.0,1.0,6,45.0,20.0,9,0.601,1.0,384.756,0.15,1,2019-11-29 14:54:08.000,53,2019-11-29 15:00:29.997,0.25,-90,0,60,-30,1
20,0,409.235,0,-60,1,0.25,2,9,0.0,1.0,6,45.0,20.0,9,0.6509999999999999,1.0,410.37,0.15,1,2019-11-29 14:54:08.000,53,2019-11-29 15:00:57.235,0.25,-90,0,60,-30,1
21,0,424.55,0,-60,1,0.25,2,9,0.0,1.0,6,45.0,20.0,9,0.701,1.0,427.06800000000004,0.15,1,2019-11-29 14:54:08.000,53,2019-11-29 15:01:12.550,0.25,-90,0,60,-30,1
22,0,451.93,0,-60,1,0.25,2,3,0.0,1.0,12,45.0,20.0,3,0.6509999999999999,1.0,454.01099999999997,0.0,0,2019-11-29 14:54:08.000,53,2019-11-29 15:01:39.930,0.25,-90,-180,-120,-30,1
24,0,477.385,0,-60,1,0.25,2,9,0.0,1.0,6,45.0,20.0,9,0.551,0.0,0.0,0.0,0,2019-11-29 14:54:08.000,53,2019-11-29 15:02:05.385,0.25,90,0,60,150,1
29,0,583.914,0,-60,1,0.25,2,3,0.0,1.0,12,45.0,20.0,3,0.501,1.0,586.235,0.0,0,2019-11-29 14:54:08.000,53,2019-11-29 15:03:51.914,0.25,-90,-180,-120,-30,1
31,0,603.0740000000001,0,-60,1,0.25,2,3,0.0,1.0,12,45.0,20.0,3,0.701,1.0,605.253,0.0,0,2019-11-29 14:54:08.000,53,2019-11-29 15:04:11.074,0.25,-90,-180,-120,-30,1
33,0,620.0740000000001,0,-60,1,0.25,2,9,0.0,1.0,6,45.0,20.0,9,0.601,0.0,0.0,0.0,0,2019-11-29 14:54:08.000,53,2019-11-29 15:04:28.074,0.25,90,0,60,150,1
35,0,690.622,0,-60,1,0.25,2,9,0.0,1.0,6,45.0,20.0,9,0.701,1.0,692.342,0.15,1,2019-11-29 14:54:08.000,53,2019-11-29 15:05:38.622,0.25,-90,0,60,-30,1
36,0,700.591,0,-60,1,0.25,2,3,0.0,1.0,12,45.0,20.0,3,0.6509999999999999,0.0,0.0,0.15,1,2019-11-29 14:54:08.000,53,2019-11-29 15:05:48.591,0.25,90,-180,-120,150,1
37,0,710.466,0,-60,1,0.25,2,3,0.0,1.0,12,45.0,20.0,3,0.551,1.0,713.17,0.0,0,2019-11-29 14:54:08.000,53,2019-11-29 15:05:58.466,0.25,-90,-180,-120,-30,1
39,0,728.927,0,-60,1,0.25,2,9,0.0,1.0,6,45.0,20.0,9,0.601,0.0,0.0,0.0,0,2019-11-29 14:54:08.000,53,2019-11-29 15:06:16.927,0.25,90,0,60,150,1
45,0,817.8860000000001,0,-60,1,0.25,2,9,0.0,1.0,6,45.0,20.0,9,0.501,1.0,819.085,0.15,1,2019-11-29 14:54:08.000,53,2019-11-29 15:07:45.886,0.25,-90,0,60,-30,1
46,0,826.362,0,-60,1,0.25,2,3,0.0,1.0,12,45.0,20.0,3,0.501,1.0,828.623,0.0,0,2019-11-29 14:54:08.000,53,2019-11-29 15:07:54.362,0.25,-90,-180,-120,-30,1
48,0,847.431,0,-60,1,0.25,2,9,0.0,1.0,6,45.0,20.0,9,0.551,1.0,850.268,0.15,1,2019-11-29 14:54:08.000,53,2019-11-29 15:08:15.431,0.25,-90,0,60,-30,1
49,0,866.633,0,-60,1,0.25,2,3,0.0,1.0,12,45.0,20.0,3,0.6509999999999999,0.0,0.0,0.15,1,2019-11-29 14:54:08.000,53,2019-11-29 15:08:34.633,0.25,90,-180,-120,150,1
50,0,873.686,0,-60,1,0.25,2,9,0.0,1.0,6,45.0,20.0,9,0.701,0.0,0.0,0.0,0,2019-11-29 14:54:08.000,53,2019-11-29 15:08:41.686,0.25,90,0,60,150,1
54,0,921.0980000000001,0,-60,1,0.25,2,3,0.0,1.0,12,45.0,20.0,3,0.601,0.0,0.0,0.15,1,2019-11-29 14:54:08.000,53,2019-11-29 15:09:29.098,0.25,90,-180,-120,150,1
55,0,931.5139999999999,0,-60,1,0.25,2,3,0.0,1.0,12,45.0,20.0,3,0.501,0.0,0.0,0.15,1,2019-11-29 14:54:08.000,53,2019-11-29 15:09:39.514,0.25,90,-180,-120,150,1
56,0,939.446,0,-60,1,0.25,2,9,0.0,1.0,6,45.0,20.0,9,0.6509999999999999,1.0,941.7769999999999,0.15,1,2019-11-29 14:54:08.000,53,2019-11-29 15:09:47.446,0.25,-90,0,60,-30,1
57,0,972.1489999999999,0,-60,1,0.25,2,9,0.0,1.0,6,45.0,20.0,9,0.551,1.0,976.164,0.15,1,2019-11-29 14:54:08.000,53,2019-11-29 15:10:20.149,0.25,-90,0,60,-30,1
