Trial,CorrectionTrial,StartTime,CenterReward,CenterSpoutRotation,nStimReps,Duration,Modality,LED Location,LED_trial_V,LED_bgnd_V,Speaker Location,Speaker_trial_V,Speaker_bgnd_V,TargetSpout,HoldTime,Response,RespTime,ValveTime,Correct,SessionDate,SessionID,StartDateTime,StimulusTotalDuration,response_angle_world,speaker_angle_world,speaker_angle_platform,response_angle_platform,not_probe
61,0,1051.756,0,0,1,0.25,2,3,0.0,0.0,5,48.0,30.0,3,0.451,1.0,1058.5739999999998,0.0,0,2020-03-18 09:20:05.000,87,2020-03-18 09:37:36.756,0.25,-90,30,30,-90,1
64,0,1086.252,0,0,1,0.25,2,3,0.0,0.0,5,48.0,30.0,3,0.526,0.0,0.0,0.13,1,2020-03-18 09:20:05.000,87,2020-03-18 09:38:11.252,0.25,90,30,30,90,1
65,0,1098.122,0,0,1,0.25,2,9,0.0,0.0,11,48.0,30.0,9,0.551,0.0,0.0,0.0,0,2020-03-18 09:20:05.000,87,2020-03-18 09:38:23.122,0.25,90,-150,-150,90,1
67,0,1123.2830000000001,0,0,1,0.25,2,3,0.0,0.0,5,48.0,30.0,3,0.47600000000000003,0.0,0.0,0.13,1,2020-03-18 09:20:05.000,87,2020-03-18 09:38:48.283,0.25,90,30,30,90,1
68,0,1132.447,0,0,1,0.25,2,9,0.0,0.0,11,48.0,30.0,9,0.551,1.0,1135.219,0.18,1,2020-03-18 09:20:05.000,87,2020-03-18 09:38:57.447,0.25,-90,-150,-150,-90,1
69,0,1152.546,0,0,1,0.25,2,3,0.0,0.0,5,48.0,30.0,3,0.526,0.0,0.0,0.13,1,2020-03-18 09:20:05.000,87,2020-03-18 09:39:17.546,0.25,90,30,30,90,1
70,0,1160.479,0,0,1,0.25,2,9,0.0,0.0,11,48.0,30.0,9,0.47600000000000003,0.0,0.0,0.0,0,2020-03-18 09:20:05.000,87,2020-03-18 09:39:25.479,0.25,90,-150,-150,90,1
72,0,1186.039,0,0,1,0.25,2,3,0.0,0.0,5,48.0,30.0,3,0.451,0.0,0.0,0.13,1,2020-03-18 09:20:05.000,87,2020-03-18 09:39:51.039,0.25,90,30,30,90,1
73,0,1194.6580000000001,0,0,1,0.25,2,3,0.0,0.0,5,48.0,30.0,3,0.501,0.0,0.0,0.13,1,2020-03-18 09:20:05.000,87,2020-03-18 09:39:59.658,0.25,90,30,30,90,1
74,0,1211.487,0,0,1,0.25,2,3,0.0,0.0,5,48.0,30.0,3,0.47600000000000003,0.0,0.0,0.13,1,2020-03-18 09:20:05.000,87,2020-03-18 09:40:16.487,0.25,90,30,30,90,1
75,0,1221.174,0,0,1,0.25,2,9,0.0,0.0,11,48.0,30.0,9,0.501,1.0,1225.16,0.18,1,2020-03-18 09:20:05.000,87,2020-03-18 09:40:26.174,0.25,-90,-150,-150,-90,1
76,0,1265.719,1,0,1,0.25,2,9,0.0,0.0,11,48.0,30.0,9,0.551,1.0,1275.308,0.18,1,2020-03-18 09:20:05.000,87,2020-03-18 09:41:10.719,0.25,-90,-150,-150,-90,1
77,0,1289.316,0,0,1,0.25,2,3,0.0,0.0,5,48.0,30.0,3,0.526,1.0,1291.741,0.0,0,2020-03-18 09:20:05.000,87,2020-03-18 09:41:34.316,0.25,-90,30,30,-90,1
79,0,1308.762,0,0,1,0.25,2,9,0.0,0.0,11,48.0,30.0,9,0.451,1.0,1318.967,0.18,1,2020-03-18 09:20:05.000,87,2020-03-18 09:41:53.762,0.25,-90,-150,-150,-90,1
80,0,1343.335,0,0,1,0.25,2,9,0.0,0.0,11,48.0,30.0,9,0.526,1.0,1349.251,0.18,1,2020-03-18 09:20:05.000,87,2020-03-18 09:42:28.335,0.25,-90,-150,-150,-90,1
81,0,1376.356,0,0,1,0.25,2,9,0.0,0.0,11,48.0,30.0,9,0.501,1.0,1379.6989999999998,0.18,1,2020-03-18 09:20:05.000,87,2020-03-18 09:43:01.356,0.25,-90,-150,-150,-90,1
82,0,1397.161,0,0,1,0.25,2,3,0.0,0.0,5,48.0,30.0,3,0.47600000000000003,0.0,0.0,0.13,1,2020-03-18 09:20:05.000,87,2020-03-18 09:43:22.161,0.25,90,30,30,90,1
83,0,1405.7620000000002,0,0,1,0.25,2,9,0.0,0.0,11,48.0,30.0,9,0.551,0.0,0.0,0.0,0,2020-03-18 09:20:05.000,87,2020-03-18 09:43:30.762,0.25,90,-150,-150,90,1
85,0,1434.7089999999998,0,0,1,0.25,2,9,0.0,0.0,11,48.0,30.0,9,0.451,1.0,1437.124,0.18,1,2020-03-18 09:20:05.000,87,2020-03-18 09:43:59.709,0.25,-90,-150,-150,-90,1
86,0,1457.092,0,0,1,0.25,2,3,0.0,0.0,5,48.0,30.0,3,0.526,0.0,0.0,0.13,1,2020-03-18 09:20:05.000,87,2020-03-18 09:44:22.092,0.25,90,30,30,90,1
87,0,1465.4229999999998,0,0,1,0.25,2,3,0.0,0.0,5,48.0,30.0,3,0.551,0.0,0.0,0.13,1,2020-03-18 09:20:05.000,87,2020-03-18 09:44:30.423,0.25,90,30,30,90,1
88,0,1472.59,0,0,1,0.25,2,3,0.0,0.0,5,48.0,30.0,3,0.451,0.0,0.0,0.13,1,2020-03-18 09:20:05.000,87,2020-03-18 09:44:37.590,0.25,90,30,30,90,1
89,0,1482.0410000000002,0,0,1,0.25,2,9,0.0,0.0,11,48.0,30.0,9,0.501,1.0,1487.8210000000001,0.18,1,2020-03-18 09:20:05.000,87,2020-03-18 09:44:47.041,0.25,-90,-150,-150,-90,1
90,0,1501.0410000000002,0,0,1,0.25,2,9,0.0,0.0,11,48.0,30.0,9,0.47600000000000003,1.0,1515.328,0.18,1,2020-03-18 09:20:05.000,87,2020-03-18 09:45:06.041,0.25,-90,-150,-150,-90,1
91,0,1563.094,0,0,1,0.25,2,3,0.0,0.0,5,48.0,30.0,3,0.551,0.0,0.0,0.13,1,2020-03-18 09:20:05.000,87,2020-03-18 09:46:08.094,0.25,90,30,30,90,1
92,0,1571.0439999999999,0,0,1,0.25,2,3,0.0,0.0,5,48.0,30.0,3,0.526,0.0,0.0,0.13,1,2020-03-18 09:20:05.000,87,2020-03-18 09:46:16.044,0.25,90,30,30,90,1
93,0,1582.024,0,0,1,0.25,2,9,0.0,0.0,11,48.0,30.0,9,0.501,1.0,1586.402,0.18,1,2020-03-18 09:20:05.000,87,2020-03-18 09:46:27.024,0.25,-90,-150,-150,-90,1
94,0,1612.846,0,0,1,0.25,2,3,0.0,0.0,5,48.0,30.0,3,0.47600000000000003,0.0,0.0,0.13,1,2020-03-18 09:20:05.000,87,2020-03-18 09:46:57.846,0.25,90,30,30,90,1
95,0,1629.896,0,0,1,0.25,2,3,0.0,0.0,5,48.0,30.0,3,0.451,0.0,0.0,0.13,1,2020-03-18 09:20:05.000,87,2020-03-18 09:47:14.896,0.25,90,30,30,90,1
96,0,1638.338,0,0,1,0.25,2,9,0.0,0.0,11,48.0,30.0,9,0.526,1.0,1640.345,0.18,1,2020-03-18 09:20:05.000,87,2020-03-18 09:47:23.338,0.25,-90,-150,-150,-90,1
97,0,1654.2679999999998,0,0,1,0.25,2,9,0.0,0.0,11,48.0,30.0,9,0.501,1.0,1657.1879999999999,0.18,1,2020-03-18 09:20:05.000,87,2020-03-18 09:47:39.268,0.25,-90,-150,-150,-90,1
98,0,1672.432,0,0,1,0.25,2,9,0.0,0.0,11,48.0,30.0,9,0.451,1.0,1675.4360000000001,0.18,1,2020-03-18 09:20:05.000,87,2020-03-18 09:47:57.432,0.25,-90,-150,-150,-90,1
99,0,1702.618,0,0,1,0.25,2,3,0.0,0.0,5,48.0,30.0,3,0.551,1.0,1705.344,0.0,0,2020-03-18 09:20:05.000,87,2020-03-18 09:48:27.618,0.25,-90,30,30,-90,1
101,0,1755.418,0,0,1,0.25,2,3,0.0,0.0,5,48.0,30.0,3,0.47600000000000003,0.0,0.0,0.13,1,2020-03-18 09:20:05.000,87,2020-03-18 09:49:20.418,0.25,90,30,30,90,1
102,0,1763.4579999999999,0,0,1,0.25,2,3,0.0,0.0,5,48.0,30.0,3,0.451,1.0,1769.9720000000002,0.0,0,2020-03-18 09:20:05.000,87,2020-03-18 09:49:28.458,0.25,-90,30,30,-90,1
104,0,1785.836,0,0,1,0.25,2,3,0.0,0.0,5,48.0,30.0,3,0.47600000000000003,0.0,0.0,0.13,1,2020-03-18 09:20:05.000,87,2020-03-18 09:49:50.836,0.25,90,30,30,90,1
105,0,1828.346,0,0,1,0.25,2,9,0.0,0.0,11,48.0,30.0,9,0.551,1.0,1830.082,0.18,1,2020-03-18 09:20:05.000,87,2020-03-18 09:50:33.346,0.25,-90,-150,-150,-90,1
106,0,1856.872,1,0,1,0.25,2,9,0.0,0.0,11,48.0,30.0,9,0.526,0.0,0.0,0.0,0,2020-03-18 09:20:05.000,87,2020-03-18 09:51:01.872,0.25,90,-150,-150,90,1
109,0,1917.8370000000002,0,0,1,0.25,2,3,0.0,0.0,5,48.0,30.0,3,0.501,0.0,0.0,0.13,1,2020-03-18 09:20:05.000,87,2020-03-18 09:52:02.837,0.25,90,30,30,90,1
110,0,1927.132,0,0,1,0.25,2,9,0.0,0.0,11,48.0,30.0,9,0.501,1.0,1929.5179999999998,0.18,1,2020-03-18 09:20:05.000,87,2020-03-18 09:52:12.132,0.25,-90,-150,-150,-90,1
111,0,1945.6879999999999,0,0,1,0.25,2,9,0.0,0.0,11,48.0,30.0,9,0.47600000000000003,1.0,1948.3370000000002,0.18,1,2020-03-18 09:20:05.000,87,2020-03-18 09:52:30.688,0.25,-90,-150,-150,-90,1
112,0,1977.203,0,0,1,0.25,2,3,0.0,0.0,5,48.0,30.0,3,0.551,0.0,0.0,0.13,1,2020-03-18 09:20:05.000,87,2020-03-18 09:53:02.203,0.25,90,30,30,90,1
113,0,1999.3670000000002,0,0,1,0.25,2,3,0.0,0.0,5,48.0,30.0,3,0.526,0.0,0.0,0.13,1,2020-03-18 09:20:05.000,87,2020-03-18 09:53:24.367,0.25,90,30,30,90,1
114,0,2008.724,0,0,1,0.25,2,9,0.0,0.0,11,48.0,30.0,9,0.451,0.0,0.0,0.0,0,2020-03-18 09:20:05.000,87,2020-03-18 09:53:33.724,0.25,90,-150,-150,90,1
116,0,2033.5410000000002,0,0,1,0.25,2,9,0.0,0.0,11,48.0,30.0,9,0.451,1.0,2036.741,0.18,1,2020-03-18 09:20:05.000,87,2020-03-18 09:53:58.541,0.25,-90,-150,-150,-90,1
117,0,2080.362,0,0,1,0.25,2,9,0.0,0.0,11,48.0,30.0,9,0.551,1.0,2083.683,0.18,1,2020-03-18 09:20:05.000,87,2020-03-18 09:54:45.362,0.25,-90,-150,-150,-90,1
118,0,2109.573,0,0,1,0.25,2,3,0.0,0.0,5,48.0,30.0,3,0.526,0.0,0.0,0.13,1,2020-03-18 09:20:05.000,87,2020-03-18 09:55:14.573,0.25,90,30,30,90,1
119,0,2117.843,0,0,1,0.25,2,3,0.0,0.0,5,48.0,30.0,3,0.47600000000000003,0.0,0.0,0.13,1,2020-03-18 09:20:05.000,87,2020-03-18 09:55:22.843,0.25,90,30,30,90,1
120,0,2131.901,0,0,1,0.25,2,9,0.0,0.0,11,48.0,30.0,9,0.501,1.0,2133.665,0.18,1,2020-03-18 09:20:05.000,87,2020-03-18 09:55:36.901,0.25,-90,-150,-150,-90,1
121,0,2215.935,0,0,1,0.25,2,3,0.0,0.0,5,48.0,30.0,3,0.47600000000000003,1.0,2218.172,0.0,0,2020-03-18 09:20:05.000,87,2020-03-18 09:57:00.935,0.25,-90,30,30,-90,1
1,0,67.723,0,0,1,0.25,2,3,0.0,0.0,5,48.0,30.0,3,0.526,0.0,0.0,0.12,1,2020-03-18 15:34:40.000,76,2020-03-18 15:35:47.723,0.25,90,30,30,90,1
2,0,83.184,0,0,1,0.25,2,3,0.0,0.0,5,48.0,30.0,3,0.501,1.0,85.125,0.0,0,2020-03-18 15:34:40.000,76,2020-03-18 15:36:03.184,0.25,-90,30,30,-90,1
4,0,98.666,0,0,1,0.25,2,3,0.0,0.0,5,48.0,30.0,3,0.551,0.0,0.0,0.12,1,2020-03-18 15:34:40.000,76,2020-03-18 15:36:18.666,0.25,90,30,30,90,1
5,0,106.32600000000001,0,0,1,0.25,2,3,0.0,0.0,5,48.0,30.0,3,0.451,0.0,0.0,0.12,1,2020-03-18 15:34:40.000,76,2020-03-18 15:36:26.326,0.25,90,30,30,90,1
6,0,121.54,0,0,1,0.25,2,3,0.0,0.0,5,48.0,30.0,3,0.47600000000000003,1.0,123.195,0.0,0,2020-03-18 15:34:40.000,76,2020-03-18 15:36:41.540,0.25,-90,30,30,-90,1
8,0,150.472,0,0,1,0.25,2,9,0.0,0.0,11,48.0,30.0,9,0.47600000000000003,1.0,152.172,0.19,1,2020-03-18 15:34:40.000,76,2020-03-18 15:37:10.472,0.25,-90,-150,-150,-90,1
9,0,161.75,0,0,1,0.25,2,3,0.0,0.0,5,48.0,30.0,3,0.551,0.0,0.0,0.12,1,2020-03-18 15:34:40.000,76,2020-03-18 15:37:21.750,0.25,90,30,30,90,1
10,0,169.987,1,0,1,0.25,2,3,0.0,0.0,5,48.0,30.0,3,0.501,0.0,0.0,0.12,1,2020-03-18 15:34:40.000,76,2020-03-18 15:37:29.987,0.25,90,30,30,90,1
11,0,187.37599999999998,0,0,1,0.25,2,3,0.0,0.0,5,48.0,30.0,3,0.451,0.0,0.0,0.12,1,2020-03-18 15:34:40.000,76,2020-03-18 15:37:47.376,0.25,90,30,30,90,1
12,0,196.81099999999998,0,0,1,0.25,2,3,0.0,0.0,5,48.0,30.0,3,0.526,0.0,0.0,0.12,1,2020-03-18 15:34:40.000,76,2020-03-18 15:37:56.811,0.25,90,30,30,90,1
13,0,205.06799999999998,0,0,1,0.25,2,9,0.0,0.0,11,48.0,30.0,9,0.47600000000000003,1.0,207.19799999999998,0.19,1,2020-03-18 15:34:40.000,76,2020-03-18 15:38:05.068,0.25,-90,-150,-150,-90,1
14,0,234.162,0,0,1,0.25,2,9,0.0,0.0,11,48.0,30.0,9,0.451,1.0,236.833,0.19,1,2020-03-18 15:34:40.000,76,2020-03-18 15:38:34.162,0.25,-90,-150,-150,-90,1
15,0,258.86,0,0,1,0.25,2,9,0.0,0.0,11,48.0,30.0,9,0.526,1.0,260.545,0.19,1,2020-03-18 15:34:40.000,76,2020-03-18 15:38:58.860,0.25,-90,-150,-150,-90,1
16,0,281.535,0,0,1,0.25,2,9,0.0,0.0,11,48.0,30.0,9,0.501,1.0,283.868,0.19,1,2020-03-18 15:34:40.000,76,2020-03-18 15:39:21.535,0.25,-90,-150,-150,-90,1
17,0,302.842,0,0,1,0.25,2,9,0.0,0.0,11,48.0,30.0,9,0.551,1.0,304.494,0.19,1,2020-03-18 15:34:40.000,76,2020-03-18 15:39:42.842,0.25,-90,-150,-150,-90,1
18,0,326.447,0,0,1,0.25,2,3,0.0,0.0,5,48.0,30.0,3,0.501,0.0,0.0,0.12,1,2020-03-18 15:34:40.000,76,2020-03-18 15:40:06.447,0.25,90,30,30,90,1
19,0,343.194,0,0,1,0.25,2,9,0.0,0.0,11,48.0,30.0,9,0.551,0.0,0.0,0.0,0,2020-03-18 15:34:40.000,76,2020-03-18 15:40:23.194,0.25,90,-150,-150,90,1
21,0,366.655,0,0,1,0.25,2,9,0.0,0.0,11,48.0,30.0,9,0.47600000000000003,1.0,368.875,0.19,1,2020-03-18 15:34:40.000,76,2020-03-18 15:40:46.655,0.25,-90,-150,-150,-90,1
22,0,389.75300000000004,0,0,1,0.25,2,9,0.0,0.0,11,48.0,30.0,9,0.451,1.0,391.452,0.19,1,2020-03-18 15:34:40.000,76,2020-03-18 15:41:09.753,0.25,-90,-150,-150,-90,1
23,0,413.792,1,0,1,0.25,2,9,0.0,0.0,11,48.0,30.0,9,0.526,1.0,421.769,0.19,1,2020-03-18 15:34:40.000,76,2020-03-18 15:41:33.792,0.25,-90,-150,-150,-90,1
24,0,440.519,0,0,1,0.25,2,9,0.0,0.0,11,48.0,30.0,9,0.47600000000000003,1.0,441.907,0.19,1,2020-03-18 15:34:40.000,76,2020-03-18 15:42:00.519,0.25,-90,-150,-150,-90,1
25,0,458.475,1,0,1,0.25,2,9,0.0,0.0,11,48.0,30.0,9,0.526,1.0,465.48,0.19,1,2020-03-18 15:34:40.000,76,2020-03-18 15:42:18.475,0.25,-90,-150,-150,-90,1
26,0,483.306,0,0,1,0.25,2,3,0.0,0.0,5,48.0,30.0,3,0.451,1.0,487.723,0.0,0,2020-03-18 15:34:40.000,76,2020-03-18 15:42:43.306,0.25,-90,30,30,-90,1
28,0,514.363,0,0,1,0.25,2,9,0.0,0.0,11,48.0,30.0,9,0.551,0.0,0.0,0.0,0,2020-03-18 15:34:40.000,76,2020-03-18 15:43:14.363,0.25,90,-150,-150,90,1
30,0,539.437,0,0,1,0.25,2,9,0.0,0.0,11,48.0,30.0,9,0.501,1.0,541.424,0.19,1,2020-03-18 15:34:40.000,76,2020-03-18 15:43:39.437,0.25,-90,-150,-150,-90,1
31,0,567.7130000000001,0,0,1,0.25,2,9,0.0,0.0,11,48.0,30.0,9,0.47600000000000003,0.0,0.0,0.0,0,2020-03-18 15:34:40.000,76,2020-03-18 15:44:07.713,0.25,90,-150,-150,90,1
33,0,601.139,0,0,1,0.25,2,9,0.0,0.0,11,48.0,30.0,9,0.526,1.0,602.735,0.19,1,2020-03-18 15:34:40.000,76,2020-03-18 15:44:41.139,0.25,-90,-150,-150,-90,1
34,0,619.269,0,0,1,0.25,2,9,0.0,0.0,11,48.0,30.0,9,0.451,1.0,620.955,0.19,1,2020-03-18 15:34:40.000,76,2020-03-18 15:44:59.269,0.25,-90,-150,-150,-90,1
35,0,642.038,0,0,1,0.25,2,3,0.0,0.0,5,48.0,30.0,3,0.501,0.0,0.0,0.12,1,2020-03-18 15:34:40.000,76,2020-03-18 15:45:22.038,0.25,90,30,30,90,1
36,0,649.616,0,0,1,0.25,2,9,0.0,0.0,11,48.0,30.0,9,0.551,1.0,653.5,0.19,1,2020-03-18 15:34:40.000,76,2020-03-18 15:45:29.616,0.25,-90,-150,-150,-90,1
37,0,669.954,0,0,1,0.25,2,3,0.0,0.0,5,48.0,30.0,3,0.551,0.0,0.0,0.12,1,2020-03-18 15:34:40.000,76,2020-03-18 15:45:49.954,0.25,90,30,30,90,1
38,0,684.806,0,0,1,0.25,2,3,0.0,0.0,5,48.0,30.0,3,0.451,1.0,686.6519999999999,0.0,0,2020-03-18 15:34:40.000,76,2020-03-18 15:46:04.806,0.25,-90,30,30,-90,1
40,0,706.8919999999999,0,0,1,0.25,2,9,0.0,0.0,11,48.0,30.0,9,0.526,1.0,709.1289999999999,0.19,1,2020-03-18 15:34:40.000,76,2020-03-18 15:46:26.892,0.25,-90,-150,-150,-90,1
41,0,730.829,0,0,1,0.25,2,3,0.0,0.0,5,48.0,30.0,3,0.47600000000000003,0.0,0.0,0.12,1,2020-03-18 15:34:40.000,76,2020-03-18 15:46:50.829,0.25,90,30,30,90,1
42,0,740.186,0,0,1,0.25,2,3,0.0,0.0,5,48.0,30.0,3,0.501,0.0,0.0,0.12,1,2020-03-18 15:34:40.000,76,2020-03-18 15:47:00.186,0.25,90,30,30,90,1
43,0,751.409,0,0,1,0.25,2,3,0.0,0.0,5,48.0,30.0,3,0.501,1.0,752.985,0.0,0,2020-03-18 15:34:40.000,76,2020-03-18 15:47:11.409,0.25,-90,30,30,-90,1
45,0,765.133,0,0,1,0.25,2,3,0.0,0.0,5,48.0,30.0,3,0.451,0.0,0.0,0.12,1,2020-03-18 15:34:40.000,76,2020-03-18 15:47:25.133,0.25,90,30,30,90,1
46,0,779.9760000000001,0,0,1,0.25,2,3,0.0,0.0,5,48.0,30.0,3,0.551,0.0,0.0,0.12,1,2020-03-18 15:34:40.000,76,2020-03-18 15:47:39.976,0.25,90,30,30,90,1
47,0,800.078,0,0,1,0.25,2,9,0.0,0.0,11,48.0,30.0,9,0.47600000000000003,1.0,801.836,0.19,1,2020-03-18 15:34:40.000,76,2020-03-18 15:48:00.078,0.25,-90,-150,-150,-90,1
48,0,828.37,0,0,1,0.25,2,3,0.0,0.0,5,48.0,30.0,3,0.526,0.0,0.0,0.12,1,2020-03-18 15:34:40.000,76,2020-03-18 15:48:28.370,0.25,90,30,30,90,1
49,0,846.824,0,0,1,0.25,2,9,0.0,0.0,11,48.0,30.0,9,0.451,1.0,849.888,0.19,1,2020-03-18 15:34:40.000,76,2020-03-18 15:48:46.824,0.25,-90,-150,-150,-90,1
50,0,870.194,0,0,1,0.25,2,9,0.0,0.0,11,48.0,30.0,9,0.551,1.0,871.5269999999999,0.19,1,2020-03-18 15:34:40.000,76,2020-03-18 15:49:10.194,0.25,-90,-150,-150,-90,1
51,0,890.675,0,0,1,0.25,2,3,0.0,0.0,5,48.0,30.0,3,0.526,1.0,893.165,0.0,0,2020-03-18 15:34:40.000,76,2020-03-18 15:49:30.675,0.25,-90,30,30,-90,1
53,0,912.8939999999999,0,0,1,0.25,2,3,0.0,0.0,5,48.0,30.0,3,0.501,0.0,0.0,0.12,1,2020-03-18 15:34:40.000,76,2020-03-18 15:49:52.894,0.25,90,30,30,90,1
54,0,921.672,0,0,1,0.25,2,3,0.0,0.0,5,48.0,30.0,3,0.47600000000000003,0.0,0.0,0.12,1,2020-03-18 15:34:40.000,76,2020-03-18 15:50:01.672,0.25,90,30,30,90,1
55,0,934.179,0,0,1,0.25,2,9,0.0,0.0,11,48.0,30.0,9,0.501,1.0,936.447,0.19,1,2020-03-18 15:34:40.000,76,2020-03-18 15:50:14.179,0.25,-90,-150,-150,-90,1
56,0,958.382,1,0,1,0.25,2,9,0.0,0.0,11,48.0,30.0,9,0.526,1.0,967.284,0.19,1,2020-03-18 15:34:40.000,76,2020-03-18 15:50:38.382,0.25,-90,-150,-150,-90,1
57,0,988.14,0,0,1,0.25,2,3,0.0,0.0,5,48.0,30.0,3,0.551,0.0,0.0,0.12,1,2020-03-18 15:34:40.000,76,2020-03-18 15:51:08.140,0.25,90,30,30,90,1
58,0,996.826,0,0,1,0.25,2,9,0.0,0.0,11,48.0,30.0,9,0.47600000000000003,1.0,999.2080000000001,0.19,1,2020-03-18 15:34:40.000,76,2020-03-18 15:51:16.826,0.25,-90,-150,-150,-90,1
59,0,1027.583,0,0,1,0.25,2,9,0.0,0.0,11,48.0,30.0,9,0.451,1.0,1032.361,0.19,1,2020-03-18 15:34:40.000,76,2020-03-18 15:51:47.583,0.25,-90,-150,-150,-90,1
60,0,1054.451,0,0,1,0.25,2,3,0.0,0.0,5,48.0,30.0,3,0.47600000000000003,0.0,0.0,0.12,1,2020-03-18 15:34:40.000,76,2020-03-18 15:52:14.451,0.25,90,30,30,90,1
61,0,1067.742,0,0,1,0.25,2,3,0.0,0.0,5,48.0,30.0,3,0.501,0.0,0.0,0.12,1,2020-03-18 15:34:40.000,76,2020-03-18 15:52:27.742,0.25,90,30,30,90,1
62,0,1084.67,0,0,1,0.25,2,9,0.0,0.0,11,48.0,30.0,9,0.551,1.0,1086.726,0.19,1,2020-03-18 15:34:40.000,76,2020-03-18 15:52:44.670,0.25,-90,-150,-150,-90,1
63,0,1104.405,0,0,1,0.25,2,9,0.0,0.0,11,48.0,30.0,9,0.526,1.0,1108.237,0.19,1,2020-03-18 15:34:40.000,76,2020-03-18 15:53:04.405,0.25,-90,-150,-150,-90,1
64,0,1130.911,0,0,1,0.25,2,9,0.0,0.0,11,48.0,30.0,9,0.451,1.0,1132.626,0.19,1,2020-03-18 15:34:40.000,76,2020-03-18 15:53:30.911,0.25,-90,-150,-150,-90,1
65,0,1157.231,0,0,1,0.25,2,3,0.0,0.0,5,48.0,30.0,3,0.551,0.0,0.0,0.12,1,2020-03-18 15:34:40.000,76,2020-03-18 15:53:57.231,0.25,90,30,30,90,1
66,0,1166.279,0,0,1,0.25,2,3,0.0,0.0,5,48.0,30.0,3,0.47600000000000003,0.0,0.0,0.12,1,2020-03-18 15:34:40.000,76,2020-03-18 15:54:06.279,0.25,90,30,30,90,1
67,0,1176.142,0,0,1,0.25,2,9,0.0,0.0,11,48.0,30.0,9,0.501,1.0,1177.798,0.19,1,2020-03-18 15:34:40.000,76,2020-03-18 15:54:16.142,0.25,-90,-150,-150,-90,1
68,0,1198.73,0,0,1,0.25,2,3,0.0,0.0,5,48.0,30.0,3,0.451,0.0,0.0,0.12,1,2020-03-18 15:34:40.000,76,2020-03-18 15:54:38.730,0.25,90,30,30,90,1
69,0,1216.156,0,0,1,0.25,2,3,0.0,0.0,5,48.0,30.0,3,0.526,1.0,1218.0230000000001,0.0,0,2020-03-18 15:34:40.000,76,2020-03-18 15:54:56.156,0.25,-90,30,30,-90,1
71,0,1239.261,0,0,1,0.25,2,9,0.0,0.0,11,48.0,30.0,9,0.526,1.0,1241.275,0.19,1,2020-03-18 15:34:40.000,76,2020-03-18 15:55:19.261,0.25,-90,-150,-150,-90,1
72,0,1259.073,0,0,1,0.25,2,9,0.0,0.0,11,48.0,30.0,9,0.47600000000000003,1.0,1261.3210000000001,0.19,1,2020-03-18 15:34:40.000,76,2020-03-18 15:55:39.073,0.25,-90,-150,-150,-90,1
73,0,1281.53,0,0,1,0.25,2,9,0.0,0.0,11,48.0,30.0,9,0.551,1.0,1284.1789999999999,0.19,1,2020-03-18 15:34:40.000,76,2020-03-18 15:56:01.530,0.25,-90,-150,-150,-90,1
74,0,1301.175,0,0,1,0.25,2,9,0.0,0.0,11,48.0,30.0,9,0.451,1.0,1303.164,0.19,1,2020-03-18 15:34:40.000,76,2020-03-18 15:56:21.175,0.25,-90,-150,-150,-90,1
75,0,1331.295,0,0,1,0.25,2,3,0.0,0.0,5,48.0,30.0,3,0.501,0.0,0.0,0.12,1,2020-03-18 15:34:40.000,76,2020-03-18 15:56:51.295,0.25,90,30,30,90,1
76,0,1340.839,1,0,1,0.25,2,3,0.0,0.0,5,48.0,30.0,3,0.47600000000000003,0.0,0.0,0.12,1,2020-03-18 15:34:40.000,76,2020-03-18 15:57:00.839,0.25,90,30,30,90,1
77,0,1370.345,0,0,1,0.25,2,9,0.0,0.0,11,48.0,30.0,9,0.551,0.0,0.0,0.0,0,2020-03-18 15:34:40.000,76,2020-03-18 15:57:30.345,0.25,90,-150,-150,90,1
79,0,1413.2820000000002,1,0,1,0.25,2,9,0.0,0.0,11,48.0,30.0,9,0.451,1.0,1420.654,0.19,1,2020-03-18 15:34:40.000,76,2020-03-18 15:58:13.282,0.25,-90,-150,-150,-90,1
80,0,1438.8029999999999,0,0,1,0.25,2,3,0.0,0.0,5,48.0,30.0,3,0.501,0.0,0.0,0.12,1,2020-03-18 15:34:40.000,76,2020-03-18 15:58:38.803,0.25,90,30,30,90,1
81,0,1448.629,0,0,1,0.25,2,3,0.0,0.0,5,48.0,30.0,3,0.526,0.0,0.0,0.12,1,2020-03-18 15:34:40.000,76,2020-03-18 15:58:48.629,0.25,90,30,30,90,1
82,0,1455.901,0,0,1,0.25,2,3,0.0,0.0,5,48.0,30.0,3,0.47600000000000003,0.0,0.0,0.12,1,2020-03-18 15:34:40.000,76,2020-03-18 15:58:55.901,0.25,90,30,30,90,1
83,0,1466.725,0,0,1,0.25,2,3,0.0,0.0,5,48.0,30.0,3,0.501,1.0,1469.985,0.0,0,2020-03-18 15:34:40.000,76,2020-03-18 15:59:06.725,0.25,-90,30,30,-90,1
85,0,1494.362,0,0,1,0.25,2,3,0.0,0.0,5,48.0,30.0,3,0.551,0.0,0.0,0.12,1,2020-03-18 15:34:40.000,76,2020-03-18 15:59:34.362,0.25,90,30,30,90,1
86,0,1503.856,0,0,1,0.25,2,3,0.0,0.0,5,48.0,30.0,3,0.526,0.0,0.0,0.12,1,2020-03-18 15:34:40.000,76,2020-03-18 15:59:43.856,0.25,90,30,30,90,1
87,0,1512.861,0,0,1,0.25,2,9,0.0,0.0,11,48.0,30.0,9,0.451,1.0,1515.2679999999998,0.19,1,2020-03-18 15:34:40.000,76,2020-03-18 15:59:52.861,0.25,-90,-150,-150,-90,1
88,0,1531.005,0,0,1,0.25,2,9,0.0,0.0,11,48.0,30.0,9,0.551,1.0,1533.836,0.19,1,2020-03-18 15:34:40.000,76,2020-03-18 16:00:11.005,0.25,-90,-150,-150,-90,1
89,0,1552.5829999999999,0,0,1,0.25,2,3,0.0,0.0,5,48.0,30.0,3,0.501,0.0,0.0,0.12,1,2020-03-18 15:34:40.000,76,2020-03-18 16:00:32.583,0.25,90,30,30,90,1
90,0,1560.84,1,0,1,0.25,2,3,0.0,0.0,5,48.0,30.0,3,0.451,0.0,0.0,0.12,1,2020-03-18 15:34:40.000,76,2020-03-18 16:00:40.840,0.25,90,30,30,90,1
91,0,1575.076,0,0,1,0.25,2,9,0.0,0.0,11,48.0,30.0,9,0.47600000000000003,0.0,0.0,0.0,0,2020-03-18 15:34:40.000,76,2020-03-18 16:00:55.076,0.25,90,-150,-150,90,1
93,0,1611.642,0,0,1,0.25,2,9,0.0,0.0,11,48.0,30.0,9,0.526,1.0,1615.715,0.19,1,2020-03-18 15:34:40.000,76,2020-03-18 16:01:31.642,0.25,-90,-150,-150,-90,1
94,0,1633.273,0,0,1,0.25,2,3,0.0,0.0,5,48.0,30.0,3,0.551,0.0,0.0,0.12,1,2020-03-18 15:34:40.000,76,2020-03-18 16:01:53.273,0.25,90,30,30,90,1
95,0,1649.7079999999999,1,0,1,0.25,2,3,0.0,0.0,5,48.0,30.0,3,0.47600000000000003,0.0,0.0,0.12,1,2020-03-18 15:34:40.000,76,2020-03-18 16:02:09.708,0.25,90,30,30,90,1
96,0,1672.356,0,0,1,0.25,2,9,0.0,0.0,11,48.0,30.0,9,0.501,0.0,0.0,0.0,0,2020-03-18 15:34:40.000,76,2020-03-18 16:02:32.356,0.25,90,-150,-150,90,1
99,0,1722.954,0,0,1,0.25,2,9,0.0,0.0,11,48.0,30.0,9,0.526,0.0,0.0,0.0,0,2020-03-18 15:34:40.000,76,2020-03-18 16:03:22.954,0.25,90,-150,-150,90,1
101,0,1772.9270000000001,0,0,1,0.25,2,9,0.0,0.0,11,48.0,30.0,9,0.451,1.0,1775.359,0.19,1,2020-03-18 15:34:40.000,76,2020-03-18 16:04:12.927,0.25,-90,-150,-150,-90,1
102,0,1823.8570000000002,1,0,1,0.25,2,9,0.0,0.0,11,48.0,30.0,9,0.501,0.0,0.0,0.0,0,2020-03-18 15:34:40.000,76,2020-03-18 16:05:03.857,0.25,90,-150,-150,90,1
104,0,1853.756,0,0,1,0.25,2,9,0.0,0.0,11,48.0,30.0,9,0.551,1.0,1856.1029999999998,0.19,1,2020-03-18 15:34:40.000,76,2020-03-18 16:05:33.756,0.25,-90,-150,-150,-90,1
105,0,1873.0710000000001,0,0,1,0.25,2,3,0.0,0.0,5,48.0,30.0,3,0.526,0.0,0.0,0.12,1,2020-03-18 15:34:40.000,76,2020-03-18 16:05:53.071,0.25,90,30,30,90,1
106,0,1880.45,0,0,1,0.25,2,9,0.0,0.0,11,48.0,30.0,9,0.47600000000000003,0.0,0.0,0.0,0,2020-03-18 15:34:40.000,76,2020-03-18 16:06:00.450,0.25,90,-150,-150,90,1
108,0,1930.126,0,0,1,0.25,2,3,0.0,0.0,5,48.0,30.0,3,0.451,1.0,1932.36,0.0,0,2020-03-18 15:34:40.000,76,2020-03-18 16:06:50.126,0.25,-90,30,30,-90,1
112,0,1973.639,0,0,1,0.25,2,9,0.0,0.0,11,48.0,30.0,9,0.526,0.0,0.0,0.0,0,2020-03-18 15:34:40.000,76,2020-03-18 16:07:33.639,0.25,90,-150,-150,90,1
115,0,2011.149,0,0,1,0.25,2,9,0.0,0.0,11,48.0,30.0,9,0.551,1.0,2013.42,0.19,1,2020-03-18 15:34:40.000,76,2020-03-18 16:08:11.149,0.25,-90,-150,-150,-90,1
116,0,2028.14,0,0,1,0.25,2,3,0.0,0.0,5,48.0,30.0,3,0.501,1.0,2031.356,0.0,0,2020-03-18 15:34:40.000,76,2020-03-18 16:08:28.140,0.25,-90,30,30,-90,1
119,0,2051.592,0,0,1,0.25,2,3,0.0,0.0,5,48.0,30.0,3,0.47600000000000003,0.0,0.0,0.12,1,2020-03-18 15:34:40.000,76,2020-03-18 16:08:51.592,0.25,90,30,30,90,1
120,0,2085.6279999999997,0,0,1,0.25,2,3,0.0,0.0,5,48.0,30.0,3,0.451,0.0,0.0,0.12,1,2020-03-18 15:34:40.000,76,2020-03-18 16:09:25.628,0.25,90,30,30,90,1
121,0,2092.304,0,0,1,0.25,2,3,0.0,0.0,5,48.0,30.0,3,0.47600000000000003,1.0,2095.192,0.0,0,2020-03-18 15:34:40.000,76,2020-03-18 16:09:32.304,0.25,-90,30,30,-90,1
1,0,48.699,0,0,1,0.25,2,3,0.0,0.0,5,48.0,30.0,3,0.47600000000000003,1.0,50.827,0.0,0,2020-03-19 16:43:10.000,48,2020-03-19 16:43:58.699,0.25,-90,30,30,-90,1
5,0,85.976,0,0,1,0.25,2,9,0.0,0.0,11,48.0,30.0,9,0.501,1.0,87.48100000000001,0.19,1,2020-03-19 16:43:10.000,48,2020-03-19 16:44:35.976,0.25,-90,-150,-150,-90,1
6,0,105.243,0,0,1,0.25,2,3,0.0,0.0,5,48.0,30.0,3,0.551,0.0,0.0,0.12,1,2020-03-19 16:43:10.000,48,2020-03-19 16:44:55.243,0.25,90,30,30,90,1
7,0,137.292,1,0,1,0.25,2,9,0.0,0.0,11,48.0,30.0,9,0.451,0.0,0.0,0.0,0,2020-03-19 16:43:10.000,48,2020-03-19 16:45:27.292,0.25,90,-150,-150,90,1
9,0,179.293,0,0,1,0.25,2,3,0.0,0.0,5,48.0,30.0,3,0.526,0.0,0.0,0.12,1,2020-03-19 16:43:10.000,48,2020-03-19 16:46:09.293,0.25,90,30,30,90,1
10,0,194.484,0,0,1,0.25,2,9,0.0,0.0,11,48.0,30.0,9,0.47600000000000003,1.0,196.553,0.19,1,2020-03-19 16:43:10.000,48,2020-03-19 16:46:24.484,0.25,-90,-150,-150,-90,1
11,0,232.46900000000002,0,0,1,0.25,2,3,0.0,0.0,5,48.0,30.0,3,0.451,0.0,0.0,0.12,1,2020-03-19 16:43:10.000,48,2020-03-19 16:47:02.469,0.25,90,30,30,90,1
12,0,241.856,0,0,1,0.25,2,9,0.0,0.0,11,48.0,30.0,9,0.526,0.0,0.0,0.0,0,2020-03-19 16:43:10.000,48,2020-03-19 16:47:11.856,0.25,90,-150,-150,90,1
14,0,279.897,0,0,1,0.25,2,3,0.0,0.0,5,48.0,30.0,3,0.551,1.0,282.909,0.0,0,2020-03-19 16:43:10.000,48,2020-03-19 16:47:49.897,0.25,-90,30,30,-90,1
16,0,294.259,0,0,1,0.25,2,3,0.0,0.0,5,48.0,30.0,3,0.501,0.0,0.0,0.12,1,2020-03-19 16:43:10.000,48,2020-03-19 16:48:04.259,0.25,90,30,30,90,1
17,0,304.377,0,0,1,0.25,2,9,0.0,0.0,11,48.0,30.0,9,0.451,1.0,306.874,0.19,1,2020-03-19 16:43:10.000,48,2020-03-19 16:48:14.377,0.25,-90,-150,-150,-90,1
18,0,326.415,0,0,1,0.25,2,3,0.0,0.0,5,48.0,30.0,3,0.551,0.0,0.0,0.12,1,2020-03-19 16:43:10.000,48,2020-03-19 16:48:36.415,0.25,90,30,30,90,1
19,0,341.526,0,0,1,0.25,2,9,0.0,0.0,11,48.0,30.0,9,0.526,1.0,343.875,0.19,1,2020-03-19 16:43:10.000,48,2020-03-19 16:48:51.526,0.25,-90,-150,-150,-90,1
20,0,365.713,0,0,1,0.25,2,3,0.0,0.0,5,48.0,30.0,3,0.501,0.0,0.0,0.12,1,2020-03-19 16:43:10.000,48,2020-03-19 16:49:15.713,0.25,90,30,30,90,1
21,0,373.81300000000005,0,0,1,0.25,2,9,0.0,0.0,11,48.0,30.0,9,0.47600000000000003,1.0,376.413,0.19,1,2020-03-19 16:43:10.000,48,2020-03-19 16:49:23.813,0.25,-90,-150,-150,-90,1
22,0,400.07,0,0,1,0.25,2,3,0.0,0.0,5,48.0,30.0,3,0.551,0.0,0.0,0.12,1,2020-03-19 16:43:10.000,48,2020-03-19 16:49:50.070,0.25,90,30,30,90,1
23,0,409.34,0,0,1,0.25,2,9,0.0,0.0,11,48.0,30.0,9,0.451,0.0,0.0,0.0,0,2020-03-19 16:43:10.000,48,2020-03-19 16:49:59.340,0.25,90,-150,-150,90,1
25,0,446.18699999999995,0,0,1,0.25,2,3,0.0,0.0,5,48.0,30.0,3,0.526,0.0,0.0,0.12,1,2020-03-19 16:43:10.000,48,2020-03-19 16:50:36.187,0.25,90,30,30,90,1
26,0,454.871,0,0,1,0.25,2,9,0.0,0.0,11,48.0,30.0,9,0.501,1.0,458.894,0.19,1,2020-03-19 16:43:10.000,48,2020-03-19 16:50:44.871,0.25,-90,-150,-150,-90,1
27,0,476.00300000000004,0,0,1,0.25,2,9,0.0,0.0,11,48.0,30.0,9,0.47600000000000003,1.0,477.76800000000003,0.19,1,2020-03-19 16:43:10.000,48,2020-03-19 16:51:06.003,0.25,-90,-150,-150,-90,1
28,0,500.595,0,0,1,0.25,2,9,0.0,0.0,11,48.0,30.0,9,0.451,1.0,504.602,0.19,1,2020-03-19 16:43:10.000,48,2020-03-19 16:51:30.595,0.25,-90,-150,-150,-90,1
29,0,525.802,0,0,1,0.25,2,9,0.0,0.0,11,48.0,30.0,9,0.47600000000000003,1.0,527.738,0.19,1,2020-03-19 16:43:10.000,48,2020-03-19 16:51:55.802,0.25,-90,-150,-150,-90,1
30,0,549.28,0,0,1,0.25,2,9,0.0,0.0,11,48.0,30.0,9,0.526,1.0,551.631,0.19,1,2020-03-19 16:43:10.000,48,2020-03-19 16:52:19.280,0.25,-90,-150,-150,-90,1
31,0,569.937,0,0,1,0.25,2,3,0.0,0.0,5,48.0,30.0,3,0.551,0.0,0.0,0.12,1,2020-03-19 16:43:10.000,48,2020-03-19 16:52:39.937,0.25,90,30,30,90,1
32,0,578.4209999999999,0,0,1,0.25,2,3,0.0,0.0,5,48.0,30.0,3,0.501,0.0,0.0,0.12,1,2020-03-19 16:43:10.000,48,2020-03-19 16:52:48.421,0.25,90,30,30,90,1
33,0,589.388,0,0,1,0.25,2,3,0.0,0.0,5,48.0,30.0,3,0.526,0.0,0.0,0.12,1,2020-03-19 16:43:10.000,48,2020-03-19 16:52:59.388,0.25,90,30,30,90,1
34,0,608.638,0,0,1,0.25,2,9,0.0,0.0,11,48.0,30.0,9,0.551,1.0,610.879,0.19,1,2020-03-19 16:43:10.000,48,2020-03-19 16:53:18.638,0.25,-90,-150,-150,-90,1
35,0,635.0980000000001,0,0,1,0.25,2,3,0.0,0.0,5,48.0,30.0,3,0.501,0.0,0.0,0.12,1,2020-03-19 16:43:10.000,48,2020-03-19 16:53:45.098,0.25,90,30,30,90,1
36,0,645.002,0,0,1,0.25,2,9,0.0,0.0,11,48.0,30.0,9,0.47600000000000003,1.0,648.145,0.19,1,2020-03-19 16:43:10.000,48,2020-03-19 16:53:55.002,0.25,-90,-150,-150,-90,1
37,0,661.91,0,0,1,0.25,2,9,0.0,0.0,11,48.0,30.0,9,0.451,1.0,664.7080000000001,0.19,1,2020-03-19 16:43:10.000,48,2020-03-19 16:54:11.910,0.25,-90,-150,-150,-90,1
38,0,687.61,0,0,1,0.25,2,3,0.0,0.0,5,48.0,30.0,3,0.526,1.0,690.3610000000001,0.0,0,2020-03-19 16:43:10.000,48,2020-03-19 16:54:37.610,0.25,-90,30,30,-90,1
40,0,701.615,0,0,1,0.25,2,3,0.0,0.0,5,48.0,30.0,3,0.47600000000000003,0.0,0.0,0.12,1,2020-03-19 16:43:10.000,48,2020-03-19 16:54:51.615,0.25,90,30,30,90,1
41,0,715.336,0,0,1,0.25,2,3,0.0,0.0,5,48.0,30.0,3,0.451,0.0,0.0,0.12,1,2020-03-19 16:43:10.000,48,2020-03-19 16:55:05.336,0.25,90,30,30,90,1
42,0,723.752,0,0,1,0.25,2,9,0.0,0.0,11,48.0,30.0,9,0.551,0.0,0.0,0.0,0,2020-03-19 16:43:10.000,48,2020-03-19 16:55:13.752,0.25,90,-150,-150,90,1
44,0,762.804,0,0,1,0.25,2,9,0.0,0.0,11,48.0,30.0,9,0.501,1.0,765.4060000000001,0.19,1,2020-03-19 16:43:10.000,48,2020-03-19 16:55:52.804,0.25,-90,-150,-150,-90,1
45,0,793.58,0,0,1,0.25,2,9,0.0,0.0,11,48.0,30.0,9,0.451,0.0,0.0,0.0,0,2020-03-19 16:43:10.000,48,2020-03-19 16:56:23.580,0.25,90,-150,-150,90,1
48,0,833.676,0,0,1,0.25,2,3,0.0,0.0,5,48.0,30.0,3,0.47600000000000003,0.0,0.0,0.12,1,2020-03-19 16:43:10.000,48,2020-03-19 16:57:03.676,0.25,90,30,30,90,1
49,0,842.049,1,0,1,0.25,2,9,0.0,0.0,11,48.0,30.0,9,0.501,0.0,0.0,0.0,0,2020-03-19 16:43:10.000,48,2020-03-19 16:57:12.049,0.25,90,-150,-150,90,1
51,0,897.204,0,0,1,0.25,2,3,0.0,0.0,5,48.0,30.0,3,0.551,0.0,0.0,0.12,1,2020-03-19 16:43:10.000,48,2020-03-19 16:58:07.204,0.25,90,30,30,90,1
52,0,908.2810000000001,0,0,1,0.25,2,3,0.0,0.0,5,48.0,30.0,3,0.526,0.0,0.0,0.12,1,2020-03-19 16:43:10.000,48,2020-03-19 16:58:18.281,0.25,90,30,30,90,1
53,0,927.2639999999999,0,0,1,0.25,2,9,0.0,0.0,11,48.0,30.0,9,0.451,1.0,929.6210000000001,0.19,1,2020-03-19 16:43:10.000,48,2020-03-19 16:58:37.264,0.25,-90,-150,-150,-90,1
54,0,947.841,0,0,1,0.25,2,3,0.0,0.0,5,48.0,30.0,3,0.526,0.0,0.0,0.12,1,2020-03-19 16:43:10.000,48,2020-03-19 16:58:57.841,0.25,90,30,30,90,1
55,0,956.818,0,0,1,0.25,2,3,0.0,0.0,5,48.0,30.0,3,0.501,0.0,0.0,0.12,1,2020-03-19 16:43:10.000,48,2020-03-19 16:59:06.818,0.25,90,30,30,90,1
56,0,968.655,0,0,1,0.25,2,3,0.0,0.0,5,48.0,30.0,3,0.47600000000000003,1.0,974.867,0.0,0,2020-03-19 16:43:10.000,48,2020-03-19 16:59:18.655,0.25,-90,30,30,-90,1
58,0,996.013,0,0,1,0.25,2,3,0.0,0.0,5,48.0,30.0,3,0.551,0.0,0.0,0.12,1,2020-03-19 16:43:10.000,48,2020-03-19 16:59:46.013,0.25,90,30,30,90,1
59,0,1007.4789999999999,0,0,1,0.25,2,3,0.0,0.0,5,48.0,30.0,3,0.551,1.0,1018.488,0.0,0,2020-03-19 16:43:10.000,48,2020-03-19 16:59:57.479,0.25,-90,30,30,-90,1
61,0,1037.3980000000001,0,0,1,0.25,2,3,0.0,0.0,5,48.0,30.0,3,0.526,0.0,0.0,0.12,1,2020-03-19 16:43:10.000,48,2020-03-19 17:00:27.398,0.25,90,30,30,90,1
62,0,1044.755,0,0,1,0.25,2,9,0.0,0.0,11,48.0,30.0,9,0.451,1.0,1047.212,0.19,1,2020-03-19 16:43:10.000,48,2020-03-19 17:00:34.755,0.25,-90,-150,-150,-90,1
63,0,1062.593,0,0,1,0.25,2,3,0.0,0.0,5,48.0,30.0,3,0.501,0.0,0.0,0.12,1,2020-03-19 16:43:10.000,48,2020-03-19 17:00:52.593,0.25,90,30,30,90,1
64,0,1072.532,0,0,1,0.25,2,9,0.0,0.0,11,48.0,30.0,9,0.47600000000000003,0.0,0.0,0.0,0,2020-03-19 16:43:10.000,48,2020-03-19 17:01:02.532,0.25,90,-150,-150,90,1
66,0,1113.052,0,0,1,0.25,2,3,0.0,0.0,5,48.0,30.0,3,0.501,0.0,0.0,0.12,1,2020-03-19 16:43:10.000,48,2020-03-19 17:01:43.052,0.25,90,30,30,90,1
67,0,1124.46,0,0,1,0.25,2,9,0.0,0.0,11,48.0,30.0,9,0.551,1.0,1126.278,0.19,1,2020-03-19 16:43:10.000,48,2020-03-19 17:01:54.460,0.25,-90,-150,-150,-90,1
68,0,1159.944,0,0,1,0.25,2,9,0.0,0.0,11,48.0,30.0,9,0.451,1.0,1161.751,0.19,1,2020-03-19 16:43:10.000,48,2020-03-19 17:02:29.944,0.25,-90,-150,-150,-90,1
69,0,1182.737,0,0,1,0.25,2,9,0.0,0.0,11,48.0,30.0,9,0.47600000000000003,1.0,1191.2160000000001,0.19,1,2020-03-19 16:43:10.000,48,2020-03-19 17:02:52.737,0.25,-90,-150,-150,-90,1
70,0,1214.835,0,0,1,0.25,2,9,0.0,0.0,11,48.0,30.0,9,0.526,0.0,0.0,0.0,0,2020-03-19 16:43:10.000,48,2020-03-19 17:03:24.835,0.25,90,-150,-150,90,1
72,0,1243.498,0,0,1,0.25,2,9,0.0,0.0,11,48.0,30.0,9,0.451,1.0,1245.37,0.19,1,2020-03-19 16:43:10.000,48,2020-03-19 17:03:53.498,0.25,-90,-150,-150,-90,1
73,0,1269.764,0,0,1,0.25,2,9,0.0,0.0,11,48.0,30.0,9,0.501,1.0,1273.453,0.19,1,2020-03-19 16:43:10.000,48,2020-03-19 17:04:19.764,0.25,-90,-150,-150,-90,1
74,0,1294.1989999999998,0,0,1,0.25,2,3,0.0,0.0,5,48.0,30.0,3,0.47600000000000003,0.0,0.0,0.12,1,2020-03-19 16:43:10.000,48,2020-03-19 17:04:44.199,0.25,90,30,30,90,1
75,0,1303.132,0,0,1,0.25,2,9,0.0,0.0,11,48.0,30.0,9,0.551,0.0,0.0,0.0,0,2020-03-19 16:43:10.000,48,2020-03-19 17:04:53.132,0.25,90,-150,-150,90,1
77,0,1336.3570000000002,0,0,1,0.25,2,3,0.0,0.0,5,48.0,30.0,3,0.526,0.0,0.0,0.12,1,2020-03-19 16:43:10.000,48,2020-03-19 17:05:26.357,0.25,90,30,30,90,1
78,0,1353.146,0,0,1,0.25,2,3,0.0,0.0,5,48.0,30.0,3,0.47600000000000003,1.0,1360.3429999999998,0.0,0,2020-03-19 16:43:10.000,48,2020-03-19 17:05:43.146,0.25,-90,30,30,-90,1
80,0,1372.9579999999999,0,0,1,0.25,2,9,0.0,0.0,11,48.0,30.0,9,0.451,0.0,0.0,0.0,0,2020-03-19 16:43:10.000,48,2020-03-19 17:06:02.958,0.25,90,-150,-150,90,1
82,0,1403.665,0,0,1,0.25,2,3,0.0,0.0,5,48.0,30.0,3,0.501,0.0,0.0,0.12,1,2020-03-19 16:43:10.000,48,2020-03-19 17:06:33.665,0.25,90,30,30,90,1
83,0,1420.585,0,0,1,0.25,2,3,0.0,0.0,5,48.0,30.0,3,0.526,1.0,1422.519,0.0,0,2020-03-19 16:43:10.000,48,2020-03-19 17:06:50.585,0.25,-90,30,30,-90,1
85,0,1451.289,0,0,1,0.25,2,3,0.0,0.0,5,48.0,30.0,3,0.551,0.0,0.0,0.12,1,2020-03-19 16:43:10.000,48,2020-03-19 17:07:21.289,0.25,90,30,30,90,1
86,0,1462.144,1,0,1,0.25,2,3,0.0,0.0,5,48.0,30.0,3,0.501,0.0,0.0,0.12,1,2020-03-19 16:43:10.000,48,2020-03-19 17:07:32.144,0.25,90,30,30,90,1
87,0,1477.08,0,0,1,0.25,2,9,0.0,0.0,11,48.0,30.0,9,0.47600000000000003,1.0,1480.9460000000001,0.19,1,2020-03-19 16:43:10.000,48,2020-03-19 17:07:47.080,0.25,-90,-150,-150,-90,1
88,0,1508.376,1,0,1,0.25,2,3,0.0,0.0,5,48.0,30.0,3,0.451,0.0,0.0,0.12,1,2020-03-19 16:43:10.000,48,2020-03-19 17:08:18.376,0.25,90,30,30,90,1
89,0,1526.165,0,0,1,0.25,2,9,0.0,0.0,11,48.0,30.0,9,0.526,0.0,0.0,0.0,0,2020-03-19 16:43:10.000,48,2020-03-19 17:08:36.165,0.25,90,-150,-150,90,1
91,0,1559.1229999999998,0,0,1,0.25,2,3,0.0,0.0,5,48.0,30.0,3,0.551,0.0,0.0,0.12,1,2020-03-19 16:43:10.000,48,2020-03-19 17:09:09.123,0.25,90,30,30,90,1
92,0,1567.509,0,0,1,0.25,2,9,0.0,0.0,11,48.0,30.0,9,0.451,1.0,1570.504,0.19,1,2020-03-19 16:43:10.000,48,2020-03-19 17:09:17.509,0.25,-90,-150,-150,-90,1
93,0,1614.237,0,0,1,0.25,2,3,0.0,0.0,5,48.0,30.0,3,0.501,0.0,0.0,0.12,1,2020-03-19 16:43:10.000,48,2020-03-19 17:10:04.237,0.25,90,30,30,90,1
94,0,1623.12,0,0,1,0.25,2,9,0.0,0.0,11,48.0,30.0,9,0.47600000000000003,0.0,0.0,0.0,0,2020-03-19 16:43:10.000,48,2020-03-19 17:10:13.120,0.25,90,-150,-150,90,1
96,0,1657.32,0,0,1,0.25,2,9,0.0,0.0,11,48.0,30.0,9,0.551,1.0,1659.835,0.19,1,2020-03-19 16:43:10.000,48,2020-03-19 17:10:47.320,0.25,-90,-150,-150,-90,1
97,0,1692.7779999999998,0,0,1,0.25,2,9,0.0,0.0,11,48.0,30.0,9,0.526,0.0,0.0,0.0,0,2020-03-19 16:43:10.000,48,2020-03-19 17:11:22.778,0.25,90,-150,-150,90,1
99,0,1741.493,0,0,1,0.25,2,9,0.0,0.0,11,48.0,30.0,9,0.526,1.0,1743.6879999999999,0.19,1,2020-03-19 16:43:10.000,48,2020-03-19 17:12:11.493,0.25,-90,-150,-150,-90,1
100,0,1760.339,0,0,1,0.25,2,3,0.0,0.0,5,48.0,30.0,3,0.551,0.0,0.0,0.12,1,2020-03-19 16:43:10.000,48,2020-03-19 17:12:30.339,0.25,90,30,30,90,1
101,0,1769.016,0,0,1,0.25,2,9,0.0,0.0,11,48.0,30.0,9,0.501,1.0,1771.259,0.19,1,2020-03-19 16:43:10.000,48,2020-03-19 17:12:39.016,0.25,-90,-150,-150,-90,1
102,0,1789.229,0,0,1,0.25,2,3,0.0,0.0,5,48.0,30.0,3,0.47600000000000003,0.0,0.0,0.12,1,2020-03-19 16:43:10.000,48,2020-03-19 17:12:59.229,0.25,90,30,30,90,1
103,0,1799.42,0,0,1,0.25,2,9,0.0,0.0,11,48.0,30.0,9,0.451,1.0,1801.6589999999999,0.19,1,2020-03-19 16:43:10.000,48,2020-03-19 17:13:09.420,0.25,-90,-150,-150,-90,1
104,0,1819.41,0,0,1,0.25,2,9,0.0,0.0,11,48.0,30.0,9,0.551,1.0,1822.1,0.19,1,2020-03-19 16:43:10.000,48,2020-03-19 17:13:29.410,0.25,-90,-150,-150,-90,1
105,0,1848.1589999999999,0,0,1,0.25,2,3,0.0,0.0,5,48.0,30.0,3,0.451,0.0,0.0,0.12,1,2020-03-19 16:43:10.000,48,2020-03-19 17:13:58.159,0.25,90,30,30,90,1
106,0,1859.4520000000002,1,0,1,0.25,2,3,0.0,0.0,5,48.0,30.0,3,0.47600000000000003,0.0,0.0,0.12,1,2020-03-19 16:43:10.000,48,2020-03-19 17:14:09.452,0.25,90,30,30,90,1
107,0,1875.674,0,0,1,0.25,2,9,0.0,0.0,11,48.0,30.0,9,0.526,1.0,1877.7979999999998,0.19,1,2020-03-19 16:43:10.000,48,2020-03-19 17:14:25.674,0.25,-90,-150,-150,-90,1
108,0,1892.796,0,0,1,0.25,2,9,0.0,0.0,11,48.0,30.0,9,0.501,0.0,0.0,0.0,0,2020-03-19 16:43:10.000,48,2020-03-19 17:14:42.796,0.25,90,-150,-150,90,1
111,0,1932.3529999999998,0,0,1,0.25,2,9,0.0,0.0,11,48.0,30.0,9,0.551,1.0,1935.424,0.19,1,2020-03-19 16:43:10.000,48,2020-03-19 17:15:22.353,0.25,-90,-150,-150,-90,1
112,0,1954.886,0,0,1,0.25,2,9,0.0,0.0,11,48.0,30.0,9,0.451,0.0,0.0,0.0,0,2020-03-19 16:43:10.000,48,2020-03-19 17:15:44.886,0.25,90,-150,-150,90,1
114,0,1987.5020000000002,0,0,1,0.25,2,3,0.0,0.0,5,48.0,30.0,3,0.501,0.0,0.0,0.12,1,2020-03-19 16:43:10.000,48,2020-03-19 17:16:17.502,0.25,90,30,30,90,1
115,0,1995.957,0,0,1,0.25,2,3,0.0,0.0,5,48.0,30.0,3,0.47600000000000003,0.0,0.0,0.12,1,2020-03-19 16:43:10.000,48,2020-03-19 17:16:25.957,0.25,90,30,30,90,1
116,0,2009.524,1,0,1,0.25,2,3,0.0,0.0,5,48.0,30.0,3,0.526,0.0,0.0,0.12,1,2020-03-19 16:43:10.000,48,2020-03-19 17:16:39.524,0.25,90,30,30,90,1
117,0,2025.213,0,0,1,0.25,2,3,0.0,0.0,5,48.0,30.0,3,0.451,0.0,0.0,0.12,1,2020-03-19 16:43:10.000,48,2020-03-19 17:16:55.213,0.25,90,30,30,90,1
118,0,2042.165,0,0,1,0.25,2,9,0.0,0.0,11,48.0,30.0,9,0.47600000000000003,1.0,2044.671,0.19,1,2020-03-19 16:43:10.000,48,2020-03-19 17:17:12.165,0.25,-90,-150,-150,-90,1
119,0,2063.98,0,0,1,0.25,2,9,0.0,0.0,11,48.0,30.0,9,0.551,1.0,2066.679,0.19,1,2020-03-19 16:43:10.000,48,2020-03-19 17:17:33.980,0.25,-90,-150,-150,-90,1
120,0,2087.153,0,0,1,0.25,2,3,0.0,0.0,5,48.0,30.0,3,0.526,0.0,0.0,0.12,1,2020-03-19 16:43:10.000,48,2020-03-19 17:17:57.153,0.25,90,30,30,90,1
121,0,2098.475,0,0,1,0.25,2,3,0.0,0.0,5,48.0,30.0,3,0.501,0.0,0.0,0.12,1,2020-03-19 16:43:10.000,48,2020-03-19 17:18:08.475,0.25,90,30,30,90,1
122,0,2108.26,0,0,1,0.25,2,3,0.0,0.0,5,48.0,30.0,3,0.501,0.0,0.0,0.12,1,2020-03-19 16:43:10.000,48,2020-03-19 17:18:18.260,0.25,90,30,30,90,1
123,0,2117.176,0,0,1,0.25,2,3,0.0,0.0,5,48.0,30.0,3,0.47600000000000003,0.0,0.0,0.12,1,2020-03-19 16:43:10.000,48,2020-03-19 17:18:27.176,0.25,90,30,30,90,1
124,0,2126.158,0,0,1,0.25,2,9,0.0,0.0,11,48.0,30.0,9,0.526,1.0,2128.234,0.19,1,2020-03-19 16:43:10.000,48,2020-03-19 17:18:36.158,0.25,-90,-150,-150,-90,1
125,0,2167.736,0,0,1,0.25,2,9,0.0,0.0,11,48.0,30.0,9,0.551,1.0,2170.877,0.19,1,2020-03-19 16:43:10.000,48,2020-03-19 17:19:17.736,0.25,-90,-150,-150,-90,1
126,0,2209.444,0,0,1,0.25,2,9,0.0,0.0,11,48.0,30.0,9,0.451,1.0,2211.867,0.19,1,2020-03-19 16:43:10.000,48,2020-03-19 17:19:59.444,0.25,-90,-150,-150,-90,1
127,0,2225.1220000000003,0,0,1,0.25,2,3,0.0,0.0,5,48.0,30.0,3,0.551,0.0,0.0,0.12,1,2020-03-19 16:43:10.000,48,2020-03-19 17:20:15.122,0.25,90,30,30,90,1
128,0,2233.327,0,0,1,0.25,2,3,0.0,0.0,5,48.0,30.0,3,0.526,1.0,2236.1839999999997,0.0,0,2020-03-19 16:43:10.000,48,2020-03-19 17:20:23.327,0.25,-90,30,30,-90,1
1,0,50.662,0,180,1,0.25,2,3,0.0,0.0,5,48.0,30.0,3,0.501,0.0,0.0,0.12,1,2020-03-20 10:30:01.000,44,2020-03-20 10:30:51.662,0.25,90,30,-150,-90,1
2,0,64.824,1,180,1,0.25,2,9,0.0,0.0,11,48.0,30.0,9,0.551,1.0,74.52600000000001,0.19,1,2020-03-20 10:30:01.000,44,2020-03-20 10:31:05.824,0.25,-90,-150,30,90,1
3,0,95.67399999999999,1,180,1,0.25,2,3,0.0,0.0,5,48.0,30.0,3,0.526,0.0,0.0,0.12,1,2020-03-20 10:30:01.000,44,2020-03-20 10:31:36.674,0.25,90,30,-150,-90,1
4,0,119.33200000000001,0,180,1,0.25,2,9,0.0,0.0,11,48.0,30.0,9,0.451,0.0,0.0,0.0,0,2020-03-20 10:30:01.000,44,2020-03-20 10:32:00.332,0.25,90,-150,30,-90,1
7,0,166.071,0,180,1,0.25,2,9,0.0,0.0,11,48.0,30.0,9,0.47600000000000003,1.0,167.72099999999998,0.19,1,2020-03-20 10:30:01.000,44,2020-03-20 10:32:47.071,0.25,-90,-150,30,90,1
8,0,189.21200000000002,0,180,1,0.25,2,3,0.0,0.0,5,48.0,30.0,3,0.551,0.0,0.0,0.12,1,2020-03-20 10:30:01.000,44,2020-03-20 10:33:10.212,0.25,90,30,-150,-90,1
9,0,196.791,0,180,1,0.25,2,3,0.0,0.0,5,48.0,30.0,3,0.501,0.0,0.0,0.12,1,2020-03-20 10:30:01.000,44,2020-03-20 10:33:17.791,0.25,90,30,-150,-90,1
10,0,204.94400000000002,0,180,1,0.25,2,3,0.0,0.0,5,48.0,30.0,3,0.47600000000000003,0.0,0.0,0.12,1,2020-03-20 10:30:01.000,44,2020-03-20 10:33:25.944,0.25,90,30,-150,-90,1
11,0,226.521,0,180,1,0.25,2,9,0.0,0.0,11,48.0,30.0,9,0.526,1.0,228.248,0.19,1,2020-03-20 10:30:01.000,44,2020-03-20 10:33:47.521,0.25,-90,-150,30,90,1
12,0,248.859,0,180,1,0.25,2,9,0.0,0.0,11,48.0,30.0,9,0.451,1.0,250.18099999999998,0.19,1,2020-03-20 10:30:01.000,44,2020-03-20 10:34:09.859,0.25,-90,-150,30,90,1
13,0,288.834,1,180,1,0.25,2,9,0.0,0.0,11,48.0,30.0,9,0.526,1.0,299.737,0.19,1,2020-03-20 10:30:01.000,44,2020-03-20 10:34:49.834,0.25,-90,-150,30,90,1
14,0,326.065,0,180,1,0.25,2,3,0.0,0.0,5,48.0,30.0,3,0.551,0.0,0.0,0.12,1,2020-03-20 10:30:01.000,44,2020-03-20 10:35:27.065,0.25,90,30,-150,-90,1
15,0,333.708,0,180,1,0.25,2,9,0.0,0.0,11,48.0,30.0,9,0.501,1.0,336.184,0.19,1,2020-03-20 10:30:01.000,44,2020-03-20 10:35:34.708,0.25,-90,-150,30,90,1
16,0,355.149,0,180,1,0.25,2,3,0.0,0.0,5,48.0,30.0,3,0.451,1.0,359.236,0.0,0,2020-03-20 10:30:01.000,44,2020-03-20 10:35:56.149,0.25,-90,30,-150,90,1
18,0,376.51599999999996,0,180,1,0.25,2,3,0.0,0.0,5,48.0,30.0,3,0.47600000000000003,0.0,0.0,0.12,1,2020-03-20 10:30:01.000,44,2020-03-20 10:36:17.516,0.25,90,30,-150,-90,1
19,0,385.545,0,180,1,0.25,2,9,0.0,0.0,11,48.0,30.0,9,0.501,1.0,387.69199999999995,0.19,1,2020-03-20 10:30:01.000,44,2020-03-20 10:36:26.545,0.25,-90,-150,30,90,1
20,0,408.59,0,180,1,0.25,2,9,0.0,0.0,11,48.0,30.0,9,0.47600000000000003,1.0,410.29699999999997,0.19,1,2020-03-20 10:30:01.000,44,2020-03-20 10:36:49.590,0.25,-90,-150,30,90,1
21,0,431.397,0,180,1,0.25,2,9,0.0,0.0,11,48.0,30.0,9,0.451,1.0,436.23900000000003,0.19,1,2020-03-20 10:30:01.000,44,2020-03-20 10:37:12.397,0.25,-90,-150,30,90,1
22,0,455.218,0,180,1,0.25,2,3,0.0,0.0,5,48.0,30.0,3,0.551,0.0,0.0,0.12,1,2020-03-20 10:30:01.000,44,2020-03-20 10:37:36.218,0.25,90,30,-150,-90,1
23,0,464.385,0,180,1,0.25,2,3,0.0,0.0,5,48.0,30.0,3,0.526,0.0,0.0,0.12,1,2020-03-20 10:30:01.000,44,2020-03-20 10:37:45.385,0.25,90,30,-150,-90,1
24,0,472.81800000000004,0,180,1,0.25,2,3,0.0,0.0,5,48.0,30.0,3,0.501,0.0,0.0,0.12,1,2020-03-20 10:30:01.000,44,2020-03-20 10:37:53.818,0.25,90,30,-150,-90,1
25,0,484.325,0,180,1,0.25,2,3,0.0,0.0,5,48.0,30.0,3,0.47600000000000003,0.0,0.0,0.12,1,2020-03-20 10:30:01.000,44,2020-03-20 10:38:05.325,0.25,90,30,-150,-90,1
26,0,492.366,0,180,1,0.25,2,3,0.0,0.0,5,48.0,30.0,3,0.551,0.0,0.0,0.12,1,2020-03-20 10:30:01.000,44,2020-03-20 10:38:13.366,0.25,90,30,-150,-90,1
27,0,500.094,0,180,1,0.25,2,3,0.0,0.0,5,48.0,30.0,3,0.451,0.0,0.0,0.12,1,2020-03-20 10:30:01.000,44,2020-03-20 10:38:21.094,0.25,90,30,-150,-90,1
28,0,508.037,0,180,1,0.25,2,3,0.0,0.0,5,48.0,30.0,3,0.526,1.0,511.97900000000004,0.0,0,2020-03-20 10:30:01.000,44,2020-03-20 10:38:29.037,0.25,-90,30,-150,90,1
31,0,535.953,0,180,1,0.25,2,9,0.0,0.0,11,48.0,30.0,9,0.551,1.0,537.945,0.19,1,2020-03-20 10:30:01.000,44,2020-03-20 10:38:56.953,0.25,-90,-150,30,90,1
32,0,561.521,0,180,1,0.25,2,3,0.0,0.0,5,48.0,30.0,3,0.501,0.0,0.0,0.12,1,2020-03-20 10:30:01.000,44,2020-03-20 10:39:22.521,0.25,90,30,-150,-90,1
33,0,569.391,0,180,1,0.25,2,3,0.0,0.0,5,48.0,30.0,3,0.526,0.0,0.0,0.12,1,2020-03-20 10:30:01.000,44,2020-03-20 10:39:30.391,0.25,90,30,-150,-90,1
34,0,579.0509999999999,0,180,1,0.25,2,3,0.0,0.0,5,48.0,30.0,3,0.451,0.0,0.0,0.12,1,2020-03-20 10:30:01.000,44,2020-03-20 10:39:40.051,0.25,90,30,-150,-90,1
35,0,589.183,1,180,1,0.25,2,9,0.0,0.0,11,48.0,30.0,9,0.47600000000000003,1.0,599.21,0.19,1,2020-03-20 10:30:01.000,44,2020-03-20 10:39:50.183,0.25,-90,-150,30,90,1
36,0,620.496,1,180,1,0.25,2,9,0.0,0.0,11,48.0,30.0,9,0.526,1.0,629.009,0.19,1,2020-03-20 10:30:01.000,44,2020-03-20 10:40:21.496,0.25,-90,-150,30,90,1
37,0,646.869,0,180,1,0.25,2,9,0.0,0.0,11,48.0,30.0,9,0.47600000000000003,1.0,650.399,0.19,1,2020-03-20 10:30:01.000,44,2020-03-20 10:40:47.869,0.25,-90,-150,30,90,1
38,0,672.408,0,180,1,0.25,2,9,0.0,0.0,11,48.0,30.0,9,0.551,1.0,674.227,0.19,1,2020-03-20 10:30:01.000,44,2020-03-20 10:41:13.408,0.25,-90,-150,30,90,1
39,0,694.738,0,180,1,0.25,2,9,0.0,0.0,11,48.0,30.0,9,0.451,1.0,697.413,0.19,1,2020-03-20 10:30:01.000,44,2020-03-20 10:41:35.738,0.25,-90,-150,30,90,1
40,0,718.1439999999999,0,180,1,0.25,2,9,0.0,0.0,11,48.0,30.0,9,0.501,1.0,720.044,0.19,1,2020-03-20 10:30:01.000,44,2020-03-20 10:41:59.144,0.25,-90,-150,30,90,1
41,0,736.674,0,180,1,0.25,2,3,0.0,0.0,5,48.0,30.0,3,0.47600000000000003,1.0,740.7860000000001,0.0,0,2020-03-20 10:30:01.000,44,2020-03-20 10:42:17.674,0.25,-90,30,-150,90,1
43,0,753.929,0,180,1,0.25,2,9,0.0,0.0,11,48.0,30.0,9,0.526,0.0,0.0,0.0,0,2020-03-20 10:30:01.000,44,2020-03-20 10:42:34.929,0.25,90,-150,30,-90,1
45,0,783.143,0,180,1,0.25,2,9,0.0,0.0,11,48.0,30.0,9,0.551,1.0,785.552,0.19,1,2020-03-20 10:30:01.000,44,2020-03-20 10:43:04.143,0.25,-90,-150,30,90,1
46,0,807.927,0,180,1,0.25,2,9,0.0,0.0,11,48.0,30.0,9,0.501,1.0,809.8910000000001,0.19,1,2020-03-20 10:30:01.000,44,2020-03-20 10:43:28.927,0.25,-90,-150,30,90,1
47,0,832.455,0,180,1,0.25,2,3,0.0,0.0,5,48.0,30.0,3,0.451,0.0,0.0,0.12,1,2020-03-20 10:30:01.000,44,2020-03-20 10:43:53.455,0.25,90,30,-150,-90,1
48,0,842.6419999999999,0,180,1,0.25,2,9,0.0,0.0,11,48.0,30.0,9,0.526,0.0,0.0,0.0,0,2020-03-20 10:30:01.000,44,2020-03-20 10:44:03.642,0.25,90,-150,30,-90,1
50,0,871.868,0,180,1,0.25,2,9,0.0,0.0,11,48.0,30.0,9,0.451,1.0,873.937,0.19,1,2020-03-20 10:30:01.000,44,2020-03-20 10:44:32.868,0.25,-90,-150,30,90,1
51,0,889.307,0,180,1,0.25,2,9,0.0,0.0,11,48.0,30.0,9,0.47600000000000003,1.0,891.4830000000001,0.19,1,2020-03-20 10:30:01.000,44,2020-03-20 10:44:50.307,0.25,-90,-150,30,90,1
52,0,910.697,0,180,1,0.25,2,9,0.0,0.0,11,48.0,30.0,9,0.501,1.0,913.319,0.19,1,2020-03-20 10:30:01.000,44,2020-03-20 10:45:11.697,0.25,-90,-150,30,90,1
53,0,935.1510000000001,0,180,1,0.25,2,9,0.0,0.0,11,48.0,30.0,9,0.551,1.0,937.069,0.19,1,2020-03-20 10:30:01.000,44,2020-03-20 10:45:36.151,0.25,-90,-150,30,90,1
54,0,956.437,0,180,1,0.25,2,9,0.0,0.0,11,48.0,30.0,9,0.526,0.0,0.0,0.0,0,2020-03-20 10:30:01.000,44,2020-03-20 10:45:57.437,0.25,90,-150,30,-90,1
56,0,980.289,0,180,1,0.25,2,3,0.0,0.0,5,48.0,30.0,3,0.451,0.0,0.0,0.12,1,2020-03-20 10:30:01.000,44,2020-03-20 10:46:21.289,0.25,90,30,-150,-90,1
57,0,988.1389999999999,0,180,1,0.25,2,9,0.0,0.0,11,48.0,30.0,9,0.551,1.0,990.5369999999999,0.19,1,2020-03-20 10:30:01.000,44,2020-03-20 10:46:29.139,0.25,-90,-150,30,90,1
58,0,1009.445,0,180,1,0.25,2,3,0.0,0.0,5,48.0,30.0,3,0.47600000000000003,1.0,1012.334,0.0,0,2020-03-20 10:30:01.000,44,2020-03-20 10:46:50.445,0.25,-90,30,-150,90,1
60,0,1024.725,0,180,1,0.25,2,3,0.0,0.0,5,48.0,30.0,3,0.501,0.0,0.0,0.12,1,2020-03-20 10:30:01.000,44,2020-03-20 10:47:05.725,0.25,90,30,-150,-90,1
61,0,1043.128,0,180,1,0.25,2,3,0.0,0.0,5,48.0,30.0,3,0.526,0.0,0.0,0.12,1,2020-03-20 10:30:01.000,44,2020-03-20 10:47:24.128,0.25,90,30,-150,-90,1
62,0,1052.833,0,180,1,0.25,2,3,0.0,0.0,5,48.0,30.0,3,0.501,0.0,0.0,0.12,1,2020-03-20 10:30:01.000,44,2020-03-20 10:47:33.833,0.25,90,30,-150,-90,1
63,0,1063.77,0,180,1,0.25,2,3,0.0,0.0,5,48.0,30.0,3,0.451,0.0,0.0,0.12,1,2020-03-20 10:30:01.000,44,2020-03-20 10:47:44.770,0.25,90,30,-150,-90,1
64,0,1079.971,0,180,1,0.25,2,3,0.0,0.0,5,48.0,30.0,3,0.551,0.0,0.0,0.12,1,2020-03-20 10:30:01.000,44,2020-03-20 10:48:00.971,0.25,90,30,-150,-90,1
65,0,1091.548,0,180,1,0.25,2,3,0.0,0.0,5,48.0,30.0,3,0.47600000000000003,0.0,0.0,0.12,1,2020-03-20 10:30:01.000,44,2020-03-20 10:48:12.548,0.25,90,30,-150,-90,1
66,0,1110.799,0,180,1,0.25,2,3,0.0,0.0,5,48.0,30.0,3,0.47600000000000003,1.0,1113.3239999999998,0.0,0,2020-03-20 10:30:01.000,44,2020-03-20 10:48:31.799,0.25,-90,30,-150,90,1
68,0,1138.4669999999999,0,180,1,0.25,2,9,0.0,0.0,11,48.0,30.0,9,0.551,1.0,1141.859,0.19,1,2020-03-20 10:30:01.000,44,2020-03-20 10:48:59.467,0.25,-90,-150,30,90,1
69,0,1161.562,0,180,1,0.25,2,3,0.0,0.0,5,48.0,30.0,3,0.451,1.0,1163.088,0.0,0,2020-03-20 10:30:01.000,44,2020-03-20 10:49:22.562,0.25,-90,30,-150,90,1
71,0,1186.295,0,180,1,0.25,2,9,0.0,0.0,11,48.0,30.0,9,0.501,1.0,1188.846,0.19,1,2020-03-20 10:30:01.000,44,2020-03-20 10:49:47.295,0.25,-90,-150,30,90,1
72,0,1213.328,0,180,1,0.25,2,9,0.0,0.0,11,48.0,30.0,9,0.526,1.0,1215.758,0.19,1,2020-03-20 10:30:01.000,44,2020-03-20 10:50:14.328,0.25,-90,-150,30,90,1
73,0,1234.393,0,180,1,0.25,2,3,0.0,0.0,5,48.0,30.0,3,0.451,1.0,1237.27,0.0,0,2020-03-20 10:30:01.000,44,2020-03-20 10:50:35.393,0.25,-90,30,-150,90,1
75,0,1257.938,0,180,1,0.25,2,3,0.0,0.0,5,48.0,30.0,3,0.501,0.0,0.0,0.12,1,2020-03-20 10:30:01.000,44,2020-03-20 10:50:58.938,0.25,90,30,-150,-90,1
76,0,1276.671,0,180,1,0.25,2,3,0.0,0.0,5,48.0,30.0,3,0.526,0.0,0.0,0.12,1,2020-03-20 10:30:01.000,44,2020-03-20 10:51:17.671,0.25,90,30,-150,-90,1
77,0,1292.232,0,180,1,0.25,2,9,0.0,0.0,11,48.0,30.0,9,0.551,1.0,1296.026,0.19,1,2020-03-20 10:30:01.000,44,2020-03-20 10:51:33.232,0.25,-90,-150,30,90,1
78,0,1325.006,0,180,1,0.25,2,9,0.0,0.0,11,48.0,30.0,9,0.47600000000000003,1.0,1326.815,0.19,1,2020-03-20 10:30:01.000,44,2020-03-20 10:52:06.006,0.25,-90,-150,30,90,1
79,0,1346.1989999999998,0,180,1,0.25,2,3,0.0,0.0,5,48.0,30.0,3,0.551,0.0,0.0,0.12,1,2020-03-20 10:30:01.000,44,2020-03-20 10:52:27.199,0.25,90,30,-150,-90,1
80,0,1354.578,0,180,1,0.25,2,3,0.0,0.0,5,48.0,30.0,3,0.451,0.0,0.0,0.12,1,2020-03-20 10:30:01.000,44,2020-03-20 10:52:35.578,0.25,90,30,-150,-90,1
81,0,1366.721,0,180,1,0.25,2,3,0.0,0.0,5,48.0,30.0,3,0.501,0.0,0.0,0.12,1,2020-03-20 10:30:01.000,44,2020-03-20 10:52:47.721,0.25,90,30,-150,-90,1
82,0,1376.442,0,180,1,0.25,2,3,0.0,0.0,5,48.0,30.0,3,0.47600000000000003,0.0,0.0,0.12,1,2020-03-20 10:30:01.000,44,2020-03-20 10:52:57.442,0.25,90,30,-150,-90,1
83,0,1389.339,0,180,1,0.25,2,3,0.0,0.0,5,48.0,30.0,3,0.526,0.0,0.0,0.12,1,2020-03-20 10:30:01.000,44,2020-03-20 10:53:10.339,0.25,90,30,-150,-90,1
84,0,1398.625,0,180,1,0.25,2,9,0.0,0.0,11,48.0,30.0,9,0.501,1.0,1404.6329999999998,0.19,1,2020-03-20 10:30:01.000,44,2020-03-20 10:53:19.625,0.25,-90,-150,30,90,1
85,0,1420.6970000000001,0,180,1,0.25,2,9,0.0,0.0,11,48.0,30.0,9,0.526,1.0,1423.8570000000002,0.19,1,2020-03-20 10:30:01.000,44,2020-03-20 10:53:41.697,0.25,-90,-150,30,90,1
86,0,1446.8220000000001,0,180,1,0.25,2,9,0.0,0.0,11,48.0,30.0,9,0.551,1.0,1448.356,0.19,1,2020-03-20 10:30:01.000,44,2020-03-20 10:54:07.822,0.25,-90,-150,30,90,1
87,0,1468.156,0,180,1,0.25,2,3,0.0,0.0,5,48.0,30.0,3,0.451,1.0,1473.57,0.0,0,2020-03-20 10:30:01.000,44,2020-03-20 10:54:29.156,0.25,-90,30,-150,90,1
89,0,1490.975,0,180,1,0.25,2,3,0.0,0.0,5,48.0,30.0,3,0.47600000000000003,0.0,0.0,0.12,1,2020-03-20 10:30:01.000,44,2020-03-20 10:54:51.975,0.25,90,30,-150,-90,1
90,0,1508.775,0,180,1,0.25,2,9,0.0,0.0,11,48.0,30.0,9,0.501,0.0,0.0,0.0,0,2020-03-20 10:30:01.000,44,2020-03-20 10:55:09.775,0.25,90,-150,30,-90,1
92,0,1534.0,0,180,1,0.25,2,9,0.0,0.0,11,48.0,30.0,9,0.47600000000000003,0.0,0.0,0.0,0,2020-03-20 10:30:01.000,44,2020-03-20 10:55:35.000,0.25,90,-150,30,-90,1
94,0,1561.418,0,180,1,0.25,2,9,0.0,0.0,11,48.0,30.0,9,0.551,1.0,1562.905,0.19,1,2020-03-20 10:30:01.000,44,2020-03-20 10:56:02.418,0.25,-90,-150,30,90,1
95,0,1582.4489999999998,0,180,1,0.25,2,9,0.0,0.0,11,48.0,30.0,9,0.526,1.0,1584.214,0.19,1,2020-03-20 10:30:01.000,44,2020-03-20 10:56:23.449,0.25,-90,-150,30,90,1
96,0,1605.8239999999998,0,180,1,0.25,2,9,0.0,0.0,11,48.0,30.0,9,0.451,1.0,1607.491,0.19,1,2020-03-20 10:30:01.000,44,2020-03-20 10:56:46.824,0.25,-90,-150,30,90,1
97,0,1625.1029999999998,0,180,1,0.25,2,3,0.0,0.0,5,48.0,30.0,3,0.47600000000000003,0.0,0.0,0.12,1,2020-03-20 10:30:01.000,44,2020-03-20 10:57:06.103,0.25,90,30,-150,-90,1
98,0,1633.094,0,180,1,0.25,2,9,0.0,0.0,11,48.0,30.0,9,0.451,1.0,1637.463,0.19,1,2020-03-20 10:30:01.000,44,2020-03-20 10:57:14.094,0.25,-90,-150,30,90,1
99,0,1658.805,0,180,1,0.25,2,9,0.0,0.0,11,48.0,30.0,9,0.526,1.0,1660.8829999999998,0.19,1,2020-03-20 10:30:01.000,44,2020-03-20 10:57:39.805,0.25,-90,-150,30,90,1
100,0,1676.221,0,180,1,0.25,2,3,0.0,0.0,5,48.0,30.0,3,0.551,0.0,0.0,0.12,1,2020-03-20 10:30:01.000,44,2020-03-20 10:57:57.221,0.25,90,30,-150,-90,1
101,0,1686.9289999999999,0,180,1,0.25,2,9,0.0,0.0,11,48.0,30.0,9,0.501,1.0,1688.461,0.19,1,2020-03-20 10:30:01.000,44,2020-03-20 10:58:07.929,0.25,-90,-150,30,90,1
102,0,1706.4579999999999,1,180,1,0.25,2,9,0.0,0.0,11,48.0,30.0,9,0.451,1.0,1716.101,0.19,1,2020-03-20 10:30:01.000,44,2020-03-20 10:58:27.458,0.25,-90,-150,30,90,1
103,0,1735.888,0,180,1,0.25,2,9,0.0,0.0,11,48.0,30.0,9,0.551,1.0,1738.0739999999998,0.19,1,2020-03-20 10:30:01.000,44,2020-03-20 10:58:56.888,0.25,-90,-150,30,90,1
104,0,1757.2220000000002,1,180,1,0.25,2,9,0.0,0.0,11,48.0,30.0,9,0.526,1.0,1769.868,0.19,1,2020-03-20 10:30:01.000,44,2020-03-20 10:59:18.222,0.25,-90,-150,30,90,1
105,0,1791.6170000000002,0,180,1,0.25,2,3,0.0,0.0,5,48.0,30.0,3,0.501,1.0,1793.04,0.0,0,2020-03-20 10:30:01.000,44,2020-03-20 10:59:52.617,0.25,-90,30,-150,90,1
107,0,1806.514,0,180,1,0.25,2,3,0.0,0.0,5,48.0,30.0,3,0.47600000000000003,0.0,0.0,0.12,1,2020-03-20 10:30:01.000,44,2020-03-20 11:00:07.514,0.25,90,30,-150,-90,1
108,0,1824.017,0,180,1,0.25,2,9,0.0,0.0,11,48.0,30.0,9,0.551,1.0,1827.094,0.19,1,2020-03-20 10:30:01.000,44,2020-03-20 11:00:25.017,0.25,-90,-150,30,90,1
109,0,1838.388,0,180,1,0.25,2,3,0.0,0.0,5,48.0,30.0,3,0.526,1.0,1842.612,0.0,0,2020-03-20 10:30:01.000,44,2020-03-20 11:00:39.388,0.25,-90,30,-150,90,1
111,0,1865.158,0,180,1,0.25,2,3,0.0,0.0,5,48.0,30.0,3,0.501,0.0,0.0,0.12,1,2020-03-20 10:30:01.000,44,2020-03-20 11:01:06.158,0.25,90,30,-150,-90,1
112,0,1874.835,0,180,1,0.25,2,9,0.0,0.0,11,48.0,30.0,9,0.47600000000000003,1.0,1877.865,0.19,1,2020-03-20 10:30:01.000,44,2020-03-20 11:01:15.835,0.25,-90,-150,30,90,1
113,0,1906.9560000000001,1,180,1,0.25,2,3,0.0,0.0,5,48.0,30.0,3,0.451,0.0,0.0,0.12,1,2020-03-20 10:30:01.000,44,2020-03-20 11:01:47.956,0.25,90,30,-150,-90,1
114,0,1919.933,0,180,1,0.25,2,3,0.0,0.0,5,48.0,30.0,3,0.501,0.0,0.0,0.12,1,2020-03-20 10:30:01.000,44,2020-03-20 11:02:00.933,0.25,90,30,-150,-90,1
115,0,1929.241,0,180,1,0.25,2,3,0.0,0.0,5,48.0,30.0,3,0.451,0.0,0.0,0.12,1,2020-03-20 10:30:01.000,44,2020-03-20 11:02:10.241,0.25,90,30,-150,-90,1
116,0,1939.9129999999998,0,180,1,0.25,2,3,0.0,0.0,5,48.0,30.0,3,0.551,0.0,0.0,0.12,1,2020-03-20 10:30:01.000,44,2020-03-20 11:02:20.913,0.25,90,30,-150,-90,1
117,0,1953.1670000000001,0,180,1,0.25,2,9,0.0,0.0,11,48.0,30.0,9,0.526,0.0,0.0,0.0,0,2020-03-20 10:30:01.000,44,2020-03-20 11:02:34.167,0.25,90,-150,30,-90,1
119,0,1977.731,0,180,1,0.25,2,9,0.0,0.0,11,48.0,30.0,9,0.47600000000000003,1.0,1981.15,0.19,1,2020-03-20 10:30:01.000,44,2020-03-20 11:02:58.731,0.25,-90,-150,30,90,1
120,0,1999.98,0,180,1,0.25,2,9,0.0,0.0,11,48.0,30.0,9,0.47600000000000003,1.0,2002.3210000000001,0.19,1,2020-03-20 10:30:01.000,44,2020-03-20 11:03:20.980,0.25,-90,-150,30,90,1
121,0,2021.4189999999999,0,180,1,0.25,2,9,0.0,0.0,11,48.0,30.0,9,0.526,1.0,2024.9560000000001,0.19,1,2020-03-20 10:30:01.000,44,2020-03-20 11:03:42.419,0.25,-90,-150,30,90,1
122,0,2042.517,0,180,1,0.25,2,9,0.0,0.0,11,48.0,30.0,9,0.451,0.0,0.0,0.0,0,2020-03-20 10:30:01.000,44,2020-03-20 11:04:03.517,0.25,90,-150,30,-90,1
124,0,2067.38,0,180,1,0.25,2,3,0.0,0.0,5,48.0,30.0,3,0.501,0.0,0.0,0.12,1,2020-03-20 10:30:01.000,44,2020-03-20 11:04:28.380,0.25,90,30,-150,-90,1
125,0,2096.492,0,180,1,0.25,2,9,0.0,0.0,11,48.0,30.0,9,0.551,0.0,0.0,0.0,0,2020-03-20 10:30:01.000,44,2020-03-20 11:04:57.492,0.25,90,-150,30,-90,1
127,0,2119.209,0,180,1,0.25,2,9,0.0,0.0,11,48.0,30.0,9,0.551,1.0,2122.962,0.19,1,2020-03-20 10:30:01.000,44,2020-03-20 11:05:20.209,0.25,-90,-150,30,90,1
128,0,2142.327,0,180,1,0.25,2,9,0.0,0.0,11,48.0,30.0,9,0.526,1.0,2143.9210000000003,0.19,1,2020-03-20 10:30:01.000,44,2020-03-20 11:05:43.327,0.25,-90,-150,30,90,1
129,0,2161.581,0,180,1,0.25,2,3,0.0,0.0,5,48.0,30.0,3,0.501,0.0,0.0,0.12,1,2020-03-20 10:30:01.000,44,2020-03-20 11:06:02.581,0.25,90,30,-150,-90,1
130,0,2170.19,0,180,1,0.25,2,3,0.0,0.0,5,48.0,30.0,3,0.451,0.0,0.0,0.12,1,2020-03-20 10:30:01.000,44,2020-03-20 11:06:11.190,0.25,90,30,-150,-90,1
131,0,2184.967,0,180,1,0.25,2,3,0.0,0.0,5,48.0,30.0,3,0.47600000000000003,1.0,2188.111,0.0,0,2020-03-20 10:30:01.000,44,2020-03-20 11:06:25.967,0.25,-90,30,-150,90,1
133,0,2202.143,0,180,1,0.25,2,3,0.0,0.0,5,48.0,30.0,3,0.451,0.0,0.0,0.12,1,2020-03-20 10:30:01.000,44,2020-03-20 11:06:43.143,0.25,90,30,-150,-90,1
134,0,2211.415,0,180,1,0.25,2,3,0.0,0.0,5,48.0,30.0,3,0.501,0.0,0.0,0.12,1,2020-03-20 10:30:01.000,44,2020-03-20 11:06:52.415,0.25,90,30,-150,-90,1
135,0,2218.125,0,180,1,0.25,2,3,0.0,0.0,5,48.0,30.0,3,0.47600000000000003,0.0,0.0,0.12,1,2020-03-20 10:30:01.000,44,2020-03-20 11:06:59.125,0.25,90,30,-150,-90,1
136,0,2245.449,1,180,1,0.25,2,9,0.0,0.0,11,48.0,30.0,9,0.526,1.0,2253.831,0.19,1,2020-03-20 10:30:01.000,44,2020-03-20 11:07:26.449,0.25,-90,-150,30,90,1
137,0,2264.489,0,180,1,0.25,2,3,0.0,0.0,5,48.0,30.0,3,0.551,1.0,2268.05,0.0,0,2020-03-20 10:30:01.000,44,2020-03-20 11:07:45.489,0.25,-90,30,-150,90,1
139,0,2283.46,0,180,1,0.25,2,3,0.0,0.0,5,48.0,30.0,3,0.526,0.0,0.0,0.12,1,2020-03-20 10:30:01.000,44,2020-03-20 11:08:04.460,0.25,90,30,-150,-90,1
140,0,2296.096,0,180,1,0.25,2,3,0.0,0.0,5,48.0,30.0,3,0.451,0.0,0.0,0.12,1,2020-03-20 10:30:01.000,44,2020-03-20 11:08:17.096,0.25,90,30,-150,-90,1
141,0,2319.6929999999998,0,180,1,0.25,2,9,0.0,0.0,11,48.0,30.0,9,0.551,1.0,2321.5679999999998,0.19,1,2020-03-20 10:30:01.000,44,2020-03-20 11:08:40.693,0.25,-90,-150,30,90,1
142,0,2368.5229999999997,0,180,1,0.25,2,9,0.0,0.0,11,48.0,30.0,9,0.501,1.0,2374.69,0.19,1,2020-03-20 10:30:01.000,44,2020-03-20 11:09:29.523,0.25,-90,-150,30,90,1
143,0,2389.51,0,180,1,0.25,2,9,0.0,0.0,11,48.0,30.0,9,0.47600000000000003,1.0,2391.966,0.19,1,2020-03-20 10:30:01.000,44,2020-03-20 11:09:50.510,0.25,-90,-150,30,90,1
144,0,2410.407,0,180,1,0.25,2,9,0.0,0.0,11,48.0,30.0,9,0.47600000000000003,1.0,2412.7670000000003,0.19,1,2020-03-20 10:30:01.000,44,2020-03-20 11:10:11.407,0.25,-90,-150,30,90,1
145,0,2429.071,0,180,1,0.25,2,3,0.0,0.0,5,48.0,30.0,3,0.451,0.0,0.0,0.12,1,2020-03-20 10:30:01.000,44,2020-03-20 11:10:30.071,0.25,90,30,-150,-90,1
146,0,2438.828,0,180,1,0.25,2,9,0.0,0.0,11,48.0,30.0,9,0.551,1.0,2440.98,0.19,1,2020-03-20 10:30:01.000,44,2020-03-20 11:10:39.828,0.25,-90,-150,30,90,1
147,0,2468.827,0,180,1,0.25,2,9,0.0,0.0,11,48.0,30.0,9,0.526,1.0,2470.724,0.19,1,2020-03-20 10:30:01.000,44,2020-03-20 11:11:09.827,0.25,-90,-150,30,90,1
148,0,2485.565,0,180,1,0.25,2,3,0.0,0.0,5,48.0,30.0,3,0.501,0.0,0.0,0.12,1,2020-03-20 10:30:01.000,44,2020-03-20 11:11:26.565,0.25,90,30,-150,-90,1
149,0,2513.552,0,180,1,0.25,2,3,0.0,0.0,5,48.0,30.0,3,0.501,1.0,2516.916,0.0,0,2020-03-20 10:30:01.000,44,2020-03-20 11:11:54.552,0.25,-90,30,-150,90,1
151,0,2534.62,0,180,1,0.25,2,3,0.0,0.0,5,48.0,30.0,3,0.526,0.0,0.0,0.12,1,2020-03-20 10:30:01.000,44,2020-03-20 11:12:15.620,0.25,90,30,-150,-90,1
152,0,2544.113,0,180,1,0.25,2,3,0.0,0.0,5,48.0,30.0,3,0.47600000000000003,0.0,0.0,0.12,1,2020-03-20 10:30:01.000,44,2020-03-20 11:12:25.113,0.25,90,30,-150,-90,1
153,0,2558.427,0,180,1,0.25,2,3,0.0,0.0,5,48.0,30.0,3,0.551,1.0,2570.197,0.0,0,2020-03-20 10:30:01.000,44,2020-03-20 11:12:39.427,0.25,-90,30,-150,90,1
1,0,20.424,0,0,1,0.25,2,3,0.0,0.0,5,48.0,30.0,3,0.451,1.0,28.576,0.0,0,2020-03-20 15:30:39.000,94,2020-03-20 15:30:59.424,0.25,-90,30,30,-90,1
4,0,64.35600000000001,0,0,1,0.25,2,3,0.0,0.0,5,48.0,30.0,3,0.501,0.0,0.0,0.12,1,2020-03-20 15:30:39.000,94,2020-03-20 15:31:43.356,0.25,90,30,30,90,1
5,0,75.08,0,0,1,0.25,2,9,0.0,0.0,11,48.0,30.0,9,0.526,1.0,77.399,0.19,1,2020-03-20 15:30:39.000,94,2020-03-20 15:31:54.080,0.25,-90,-150,-150,-90,1
6,0,93.079,0,0,1,0.25,2,3,0.0,0.0,5,48.0,30.0,3,0.47600000000000003,0.0,0.0,0.12,1,2020-03-20 15:30:39.000,94,2020-03-20 15:32:12.079,0.25,90,30,30,90,1
7,0,104.48200000000001,0,0,1,0.25,2,9,0.0,0.0,11,48.0,30.0,9,0.551,0.0,0.0,0.0,0,2020-03-20 15:30:39.000,94,2020-03-20 15:32:23.482,0.25,90,-150,-150,90,1
9,0,151.278,0,0,1,0.25,2,3,0.0,0.0,5,48.0,30.0,3,0.451,0.0,0.0,0.12,1,2020-03-20 15:30:39.000,94,2020-03-20 15:33:10.278,0.25,90,30,30,90,1
10,0,161.392,0,0,1,0.25,2,9,0.0,0.0,11,48.0,30.0,9,0.47600000000000003,0.0,0.0,0.0,0,2020-03-20 15:30:39.000,94,2020-03-20 15:33:20.392,0.25,90,-150,-150,90,1
12,0,189.46599999999998,0,0,1,0.25,2,3,0.0,0.0,5,48.0,30.0,3,0.551,0.0,0.0,0.12,1,2020-03-20 15:30:39.000,94,2020-03-20 15:33:48.466,0.25,90,30,30,90,1
13,0,201.817,0,0,1,0.25,2,3,0.0,0.0,5,48.0,30.0,3,0.501,1.0,204.292,0.0,0,2020-03-20 15:30:39.000,94,2020-03-20 15:34:00.817,0.25,-90,30,30,-90,1
16,0,228.701,0,0,1,0.25,2,3,0.0,0.0,5,48.0,30.0,3,0.526,0.0,0.0,0.12,1,2020-03-20 15:30:39.000,94,2020-03-20 15:34:27.701,0.25,90,30,30,90,1
17,0,238.06799999999998,0,0,1,0.25,2,9,0.0,0.0,11,48.0,30.0,9,0.501,1.0,242.44,0.19,1,2020-03-20 15:30:39.000,94,2020-03-20 15:34:37.068,0.25,-90,-150,-150,-90,1
18,0,270.82599999999996,1,0,1,0.25,2,9,0.0,0.0,11,48.0,30.0,9,0.526,1.0,283.032,0.19,1,2020-03-20 15:30:39.000,94,2020-03-20 15:35:09.826,0.25,-90,-150,-150,-90,1
19,0,309.819,1,0,1,0.25,2,3,0.0,0.0,5,48.0,30.0,3,0.451,1.0,318.173,0.0,0,2020-03-20 15:30:39.000,94,2020-03-20 15:35:48.819,0.25,-90,30,30,-90,1
21,0,334.82300000000004,1,0,1,0.25,2,9,0.0,0.0,11,48.0,30.0,9,0.47600000000000003,0.0,0.0,0.0,0,2020-03-20 15:30:39.000,94,2020-03-20 15:36:13.823,0.25,90,-150,-150,90,1
23,0,379.16900000000004,1,0,1,0.25,2,3,0.0,0.0,5,48.0,30.0,3,0.551,0.0,0.0,0.12,1,2020-03-20 15:30:39.000,94,2020-03-20 15:36:58.169,0.25,90,30,30,90,1
24,0,395.42400000000004,0,0,1,0.25,2,9,0.0,0.0,11,48.0,30.0,9,0.47600000000000003,0.0,0.0,0.0,0,2020-03-20 15:30:39.000,94,2020-03-20 15:37:14.424,0.25,90,-150,-150,90,1
26,0,422.414,0,0,1,0.25,2,3,0.0,0.0,5,48.0,30.0,3,0.526,1.0,426.162,0.0,0,2020-03-20 15:30:39.000,94,2020-03-20 15:37:41.414,0.25,-90,30,30,-90,1
28,0,439.675,0,0,1,0.25,2,9,0.0,0.0,11,48.0,30.0,9,0.451,0.0,0.0,0.0,0,2020-03-20 15:30:39.000,94,2020-03-20 15:37:58.675,0.25,90,-150,-150,90,1
30,0,465.158,0,0,1,0.25,2,9,0.0,0.0,11,48.0,30.0,9,0.551,1.0,467.23,0.19,1,2020-03-20 15:30:39.000,94,2020-03-20 15:38:24.158,0.25,-90,-150,-150,-90,1
31,0,491.626,0,0,1,0.25,2,9,0.0,0.0,11,48.0,30.0,9,0.501,1.0,493.291,0.19,1,2020-03-20 15:30:39.000,94,2020-03-20 15:38:50.626,0.25,-90,-150,-150,-90,1
32,0,516.5740000000001,0,0,1,0.25,2,9,0.0,0.0,11,48.0,30.0,9,0.47600000000000003,1.0,519.355,0.19,1,2020-03-20 15:30:39.000,94,2020-03-20 15:39:15.574,0.25,-90,-150,-150,-90,1
33,0,538.638,0,0,1,0.25,2,9,0.0,0.0,11,48.0,30.0,9,0.551,1.0,540.68,0.19,1,2020-03-20 15:30:39.000,94,2020-03-20 15:39:37.638,0.25,-90,-150,-150,-90,1
34,0,563.997,0,0,1,0.25,2,9,0.0,0.0,11,48.0,30.0,9,0.501,0.0,0.0,0.0,0,2020-03-20 15:30:39.000,94,2020-03-20 15:40:02.997,0.25,90,-150,-150,90,1
36,0,620.997,1,0,1,0.25,2,9,0.0,0.0,11,48.0,30.0,9,0.451,1.0,629.279,0.19,1,2020-03-20 15:30:39.000,94,2020-03-20 15:40:59.997,0.25,-90,-150,-150,-90,1
37,0,648.063,0,0,1,0.25,2,9,0.0,0.0,11,48.0,30.0,9,0.526,1.0,650.06,0.19,1,2020-03-20 15:30:39.000,94,2020-03-20 15:41:27.063,0.25,-90,-150,-150,-90,1
38,0,678.372,0,0,1,0.25,2,3,0.0,0.0,5,48.0,30.0,3,0.526,0.0,0.0,0.12,1,2020-03-20 15:30:39.000,94,2020-03-20 15:41:57.372,0.25,90,30,30,90,1
39,0,689.205,0,0,1,0.25,2,3,0.0,0.0,5,48.0,30.0,3,0.451,0.0,0.0,0.12,1,2020-03-20 15:30:39.000,94,2020-03-20 15:42:08.205,0.25,90,30,30,90,1
40,0,697.693,0,0,1,0.25,2,3,0.0,0.0,5,48.0,30.0,3,0.501,0.0,0.0,0.12,1,2020-03-20 15:30:39.000,94,2020-03-20 15:42:16.693,0.25,90,30,30,90,1
41,0,706.694,0,0,1,0.25,2,3,0.0,0.0,5,48.0,30.0,3,0.551,0.0,0.0,0.12,1,2020-03-20 15:30:39.000,94,2020-03-20 15:42:25.694,0.25,90,30,30,90,1
42,0,720.125,0,0,1,0.25,2,3,0.0,0.0,5,48.0,30.0,3,0.47600000000000003,0.0,0.0,0.12,1,2020-03-20 15:30:39.000,94,2020-03-20 15:42:39.125,0.25,90,30,30,90,1
43,0,729.91,0,0,1,0.25,2,3,0.0,0.0,5,48.0,30.0,3,0.551,1.0,732.14,0.0,0,2020-03-20 15:30:39.000,94,2020-03-20 15:42:48.910,0.25,-90,30,30,-90,1
45,0,760.3860000000001,0,0,1,0.25,2,3,0.0,0.0,5,48.0,30.0,3,0.526,0.0,0.0,0.12,1,2020-03-20 15:30:39.000,94,2020-03-20 15:43:19.386,0.25,90,30,30,90,1
46,0,769.6439999999999,0,0,1,0.25,2,3,0.0,0.0,5,48.0,30.0,3,0.451,1.0,772.2130000000001,0.0,0,2020-03-20 15:30:39.000,94,2020-03-20 15:43:28.644,0.25,-90,30,30,-90,1
48,0,792.93,0,0,1,0.25,2,3,0.0,0.0,5,48.0,30.0,3,0.501,0.0,0.0,0.12,1,2020-03-20 15:30:39.000,94,2020-03-20 15:43:51.930,0.25,90,30,30,90,1
49,0,802.385,0,0,1,0.25,2,3,0.0,0.0,5,48.0,30.0,3,0.47600000000000003,0.0,0.0,0.12,1,2020-03-20 15:30:39.000,94,2020-03-20 15:44:01.385,0.25,90,30,30,90,1
50,0,811.4060000000001,0,0,1,0.25,2,9,0.0,0.0,11,48.0,30.0,9,0.501,1.0,821.1339999999999,0.19,1,2020-03-20 15:30:39.000,94,2020-03-20 15:44:10.406,0.25,-90,-150,-150,-90,1
51,0,837.682,0,0,1,0.25,2,9,0.0,0.0,11,48.0,30.0,9,0.47600000000000003,1.0,839.65,0.19,1,2020-03-20 15:30:39.000,94,2020-03-20 15:44:36.682,0.25,-90,-150,-150,-90,1
52,0,872.6039999999999,0,0,1,0.25,2,9,0.0,0.0,11,48.0,30.0,9,0.526,1.0,875.2280000000001,0.19,1,2020-03-20 15:30:39.000,94,2020-03-20 15:45:11.604,0.25,-90,-150,-150,-90,1
53,0,892.982,0,0,1,0.25,2,9,0.0,0.0,11,48.0,30.0,9,0.551,1.0,895.878,0.19,1,2020-03-20 15:30:39.000,94,2020-03-20 15:45:31.982,0.25,-90,-150,-150,-90,1
54,0,915.323,0,0,1,0.25,2,9,0.0,0.0,11,48.0,30.0,9,0.451,1.0,917.654,0.19,1,2020-03-20 15:30:39.000,94,2020-03-20 15:45:54.323,0.25,-90,-150,-150,-90,1
55,0,938.2130000000001,0,0,1,0.25,2,9,0.0,0.0,11,48.0,30.0,9,0.451,1.0,940.947,0.19,1,2020-03-20 15:30:39.000,94,2020-03-20 15:46:17.213,0.25,-90,-150,-150,-90,1
56,0,959.107,0,0,1,0.25,2,9,0.0,0.0,11,48.0,30.0,9,0.526,1.0,962.113,0.19,1,2020-03-20 15:30:39.000,94,2020-03-20 15:46:38.107,0.25,-90,-150,-150,-90,1
57,0,979.924,0,0,1,0.25,2,3,0.0,0.0,5,48.0,30.0,3,0.501,0.0,0.0,0.12,1,2020-03-20 15:30:39.000,94,2020-03-20 15:46:58.924,0.25,90,30,30,90,1
58,0,988.69,0,0,1,0.25,2,9,0.0,0.0,11,48.0,30.0,9,0.551,1.0,990.913,0.19,1,2020-03-20 15:30:39.000,94,2020-03-20 15:47:07.690,0.25,-90,-150,-150,-90,1
59,0,1005.215,0,0,1,0.25,2,9,0.0,0.0,11,48.0,30.0,9,0.47600000000000003,1.0,1008.342,0.19,1,2020-03-20 15:30:39.000,94,2020-03-20 15:47:24.215,0.25,-90,-150,-150,-90,1
60,0,1038.228,0,0,1,0.25,2,9,0.0,0.0,11,48.0,30.0,9,0.47600000000000003,1.0,1040.5339999999999,0.19,1,2020-03-20 15:30:39.000,94,2020-03-20 15:47:57.228,0.25,-90,-150,-150,-90,1
61,0,1061.753,0,0,1,0.25,2,3,0.0,0.0,5,48.0,30.0,3,0.501,0.0,0.0,0.12,1,2020-03-20 15:30:39.000,94,2020-03-20 15:48:20.753,0.25,90,30,30,90,1
62,0,1080.5610000000001,0,0,1,0.25,2,9,0.0,0.0,11,48.0,30.0,9,0.526,1.0,1082.646,0.19,1,2020-03-20 15:30:39.000,94,2020-03-20 15:48:39.561,0.25,-90,-150,-150,-90,1
63,0,1100.7069999999999,0,0,1,0.25,2,9,0.0,0.0,11,48.0,30.0,9,0.451,1.0,1104.6989999999998,0.19,1,2020-03-20 15:30:39.000,94,2020-03-20 15:48:59.707,0.25,-90,-150,-150,-90,1
64,0,1117.67,0,0,1,0.25,2,9,0.0,0.0,11,48.0,30.0,9,0.551,0.0,0.0,0.0,0,2020-03-20 15:30:39.000,94,2020-03-20 15:49:16.670,0.25,90,-150,-150,90,1
66,0,1184.088,0,0,1,0.25,2,3,0.0,0.0,5,48.0,30.0,3,0.501,1.0,1186.7910000000002,0.0,0,2020-03-20 15:30:39.000,94,2020-03-20 15:50:23.088,0.25,-90,30,30,-90,1
68,0,1208.212,0,0,1,0.25,2,3,0.0,0.0,5,48.0,30.0,3,0.451,0.0,0.0,0.12,1,2020-03-20 15:30:39.000,94,2020-03-20 15:50:47.212,0.25,90,30,30,90,1
69,0,1219.281,0,0,1,0.25,2,9,0.0,0.0,11,48.0,30.0,9,0.526,0.0,0.0,0.0,0,2020-03-20 15:30:39.000,94,2020-03-20 15:50:58.281,0.25,90,-150,-150,90,1
71,0,1248.955,0,0,1,0.25,2,3,0.0,0.0,5,48.0,30.0,3,0.551,0.0,0.0,0.12,1,2020-03-20 15:30:39.000,94,2020-03-20 15:51:27.955,0.25,90,30,30,90,1
72,0,1265.234,0,0,1,0.25,2,3,0.0,0.0,5,48.0,30.0,3,0.47600000000000003,0.0,0.0,0.12,1,2020-03-20 15:30:39.000,94,2020-03-20 15:51:44.234,0.25,90,30,30,90,1
73,0,1277.742,0,0,1,0.25,2,3,0.0,0.0,5,48.0,30.0,3,0.526,1.0,1279.92,0.0,0,2020-03-20 15:30:39.000,94,2020-03-20 15:51:56.742,0.25,-90,30,30,-90,1
75,0,1293.627,0,0,1,0.25,2,9,0.0,0.0,11,48.0,30.0,9,0.451,0.0,0.0,0.0,0,2020-03-20 15:30:39.000,94,2020-03-20 15:52:12.627,0.25,90,-150,-150,90,1
77,0,1341.777,1,0,1,0.25,2,3,0.0,0.0,5,48.0,30.0,3,0.551,0.0,0.0,0.12,1,2020-03-20 15:30:39.000,94,2020-03-20 15:53:00.777,0.25,90,30,30,90,1
78,0,1357.07,0,0,1,0.25,2,3,0.0,0.0,5,48.0,30.0,3,0.501,0.0,0.0,0.12,1,2020-03-20 15:30:39.000,94,2020-03-20 15:53:16.070,0.25,90,30,30,90,1
79,0,1369.71,0,0,1,0.25,2,3,0.0,0.0,5,48.0,30.0,3,0.47600000000000003,0.0,0.0,0.12,1,2020-03-20 15:30:39.000,94,2020-03-20 15:53:28.710,0.25,90,30,30,90,1
80,0,1378.8310000000001,0,0,1,0.25,2,9,0.0,0.0,11,48.0,30.0,9,0.526,1.0,1381.3670000000002,0.19,1,2020-03-20 15:30:39.000,94,2020-03-20 15:53:37.831,0.25,-90,-150,-150,-90,1
81,0,1397.0929999999998,1,0,1,0.25,2,3,0.0,0.0,5,48.0,30.0,3,0.551,0.0,0.0,0.12,1,2020-03-20 15:30:39.000,94,2020-03-20 15:53:56.093,0.25,90,30,30,90,1
82,0,1411.493,0,0,1,0.25,2,9,0.0,0.0,11,48.0,30.0,9,0.501,0.0,0.0,0.0,0,2020-03-20 15:30:39.000,94,2020-03-20 15:54:10.493,0.25,90,-150,-150,90,1
84,0,1439.73,0,0,1,0.25,2,9,0.0,0.0,11,48.0,30.0,9,0.47600000000000003,1.0,1443.621,0.19,1,2020-03-20 15:30:39.000,94,2020-03-20 15:54:38.730,0.25,-90,-150,-150,-90,1
85,0,1463.8,0,0,1,0.25,2,9,0.0,0.0,11,48.0,30.0,9,0.451,1.0,1467.056,0.19,1,2020-03-20 15:30:39.000,94,2020-03-20 15:55:02.800,0.25,-90,-150,-150,-90,1
86,0,1482.753,0,0,1,0.25,2,9,0.0,0.0,11,48.0,30.0,9,0.526,1.0,1485.905,0.19,1,2020-03-20 15:30:39.000,94,2020-03-20 15:55:21.753,0.25,-90,-150,-150,-90,1
87,0,1514.0320000000002,0,0,1,0.25,2,9,0.0,0.0,11,48.0,30.0,9,0.451,0.0,0.0,0.0,0,2020-03-20 15:30:39.000,94,2020-03-20 15:55:53.032,0.25,90,-150,-150,90,1
90,0,1558.652,0,0,1,0.25,2,9,0.0,0.0,11,48.0,30.0,9,0.501,1.0,1560.774,0.19,1,2020-03-20 15:30:39.000,94,2020-03-20 15:56:37.652,0.25,-90,-150,-150,-90,1
91,0,1578.0839999999998,0,0,1,0.25,2,9,0.0,0.0,11,48.0,30.0,9,0.47600000000000003,0.0,0.0,0.0,0,2020-03-20 15:30:39.000,94,2020-03-20 15:56:57.084,0.25,90,-150,-150,90,1
94,0,1616.785,0,0,1,0.25,2,3,0.0,0.0,5,48.0,30.0,3,0.551,0.0,0.0,0.12,1,2020-03-20 15:30:39.000,94,2020-03-20 15:57:35.785,0.25,90,30,30,90,1
95,0,1637.713,0,0,1,0.25,2,3,0.0,0.0,5,48.0,30.0,3,0.526,0.0,0.0,0.12,1,2020-03-20 15:30:39.000,94,2020-03-20 15:57:56.713,0.25,90,30,30,90,1
96,0,1647.1670000000001,0,0,1,0.25,2,9,0.0,0.0,11,48.0,30.0,9,0.551,1.0,1649.9189999999999,0.19,1,2020-03-20 15:30:39.000,94,2020-03-20 15:58:06.167,0.25,-90,-150,-150,-90,1
97,0,1665.7179999999998,1,0,1,0.25,2,3,0.0,0.0,5,48.0,30.0,3,0.451,0.0,0.0,0.12,1,2020-03-20 15:30:39.000,94,2020-03-20 15:58:24.718,0.25,90,30,30,90,1
98,0,1679.473,0,0,1,0.25,2,3,0.0,0.0,5,48.0,30.0,3,0.47600000000000003,0.0,0.0,0.12,1,2020-03-20 15:30:39.000,94,2020-03-20 15:58:38.473,0.25,90,30,30,90,1
99,0,1688.451,0,0,1,0.25,2,3,0.0,0.0,5,48.0,30.0,3,0.501,0.0,0.0,0.12,1,2020-03-20 15:30:39.000,94,2020-03-20 15:58:47.451,0.25,90,30,30,90,1
100,0,1707.991,1,0,1,0.25,2,3,0.0,0.0,5,48.0,30.0,3,0.526,1.0,1715.9920000000002,0.0,0,2020-03-20 15:30:39.000,94,2020-03-20 15:59:06.991,0.25,-90,30,30,-90,1
102,0,1753.848,1,0,1,0.25,2,3,0.0,0.0,5,48.0,30.0,3,0.551,0.0,0.0,0.12,1,2020-03-20 15:30:39.000,94,2020-03-20 15:59:52.848,0.25,90,30,30,90,1
103,0,1769.124,0,0,1,0.25,2,3,0.0,0.0,5,48.0,30.0,3,0.451,1.0,1774.344,0.0,0,2020-03-20 15:30:39.000,94,2020-03-20 16:00:08.124,0.25,-90,30,30,-90,1
105,0,1808.533,0,0,1,0.25,2,3,0.0,0.0,5,48.0,30.0,3,0.47600000000000003,1.0,1812.285,0.0,0,2020-03-20 15:30:39.000,94,2020-03-20 16:00:47.533,0.25,-90,30,30,-90,1
107,0,1859.63,0,0,1,0.25,2,9,0.0,0.0,11,48.0,30.0,9,0.501,0.0,0.0,0.0,0,2020-03-20 15:30:39.000,94,2020-03-20 16:01:38.630,0.25,90,-150,-150,90,1
109,0,1925.1960000000001,0,0,1,0.25,2,9,0.0,0.0,11,48.0,30.0,9,0.551,1.0,1928.84,0.19,1,2020-03-20 15:30:39.000,94,2020-03-20 16:02:44.196,0.25,-90,-150,-150,-90,1
110,0,1944.434,0,0,1,0.25,2,3,0.0,0.0,5,48.0,30.0,3,0.526,0.0,0.0,0.12,1,2020-03-20 15:30:39.000,94,2020-03-20 16:03:03.434,0.25,90,30,30,90,1
111,0,1953.957,1,0,1,0.25,2,9,0.0,0.0,11,48.0,30.0,9,0.451,0.0,0.0,0.0,0,2020-03-20 15:30:39.000,94,2020-03-20 16:03:12.957,0.25,90,-150,-150,90,1
114,0,2001.408,0,0,1,0.25,2,9,0.0,0.0,11,48.0,30.0,9,0.501,1.0,2004.1470000000002,0.19,1,2020-03-20 15:30:39.000,94,2020-03-20 16:04:00.408,0.25,-90,-150,-150,-90,1
115,0,2027.124,0,0,1,0.25,2,3,0.0,0.0,5,48.0,30.0,3,0.47600000000000003,0.0,0.0,0.12,1,2020-03-20 15:30:39.000,94,2020-03-20 16:04:26.124,0.25,90,30,30,90,1
116,0,2047.8370000000002,0,0,1,0.25,2,3,0.0,0.0,5,48.0,30.0,3,0.501,1.0,2054.008,0.0,0,2020-03-20 15:30:39.000,94,2020-03-20 16:04:46.837,0.25,-90,30,30,-90,1
59,0,898.4689999999999,0,0,1,0.25,2,3,0.0,0.0,5,48.0,30.0,3,0.526,0.0,0.0,0.12,1,2020-05-06 11:45:17.000,88,2020-05-06 12:00:15.469,0.25,90,30,30,90,1
60,0,906.86,0,0,1,0.25,2,3,0.0,0.0,5,48.0,30.0,3,0.451,0.0,0.0,0.12,1,2020-05-06 11:45:17.000,88,2020-05-06 12:00:23.860,0.25,90,30,30,90,1
61,0,926.768,0,0,1,0.25,2,9,0.0,0.0,11,48.0,30.0,9,0.451,1.0,930.3430000000001,0.19,1,2020-05-06 11:45:17.000,88,2020-05-06 12:00:43.768,0.25,-90,-150,-150,-90,1
62,0,944.807,1,0,1,0.25,2,3,0.0,0.0,5,48.0,30.0,3,0.47600000000000003,1.0,951.302,0.0,0,2020-05-06 11:45:17.000,88,2020-05-06 12:01:01.807,0.25,-90,30,30,-90,1
64,0,966.324,0,0,1,0.25,2,3,0.0,0.0,5,48.0,30.0,3,0.551,1.0,968.883,0.0,0,2020-05-06 11:45:17.000,88,2020-05-06 12:01:23.324,0.25,-90,30,30,-90,1
66,0,998.512,0,0,1,0.25,2,3,0.0,0.0,5,48.0,30.0,3,0.526,1.0,1004.1489999999999,0.0,0,2020-05-06 11:45:17.000,88,2020-05-06 12:01:55.512,0.25,-90,30,30,-90,1
68,0,1024.138,0,0,1,0.25,2,9,0.0,0.0,11,48.0,30.0,9,0.501,1.0,1027.0410000000002,0.19,1,2020-05-06 11:45:17.000,88,2020-05-06 12:02:21.138,0.25,-90,-150,-150,-90,1
69,0,1043.597,0,0,1,0.25,2,9,0.0,0.0,11,48.0,30.0,9,0.551,1.0,1047.452,0.19,1,2020-05-06 11:45:17.000,88,2020-05-06 12:02:40.597,0.25,-90,-150,-150,-90,1
70,0,1059.109,0,0,1,0.25,2,3,0.0,0.0,5,48.0,30.0,3,0.47600000000000003,0.0,0.0,0.12,1,2020-05-06 11:45:17.000,88,2020-05-06 12:02:56.109,0.25,90,30,30,90,1
71,0,1069.78,0,0,1,0.25,2,3,0.0,0.0,5,48.0,30.0,3,0.526,0.0,0.0,0.12,1,2020-05-06 11:45:17.000,88,2020-05-06 12:03:06.780,0.25,90,30,30,90,1
72,0,1083.392,0,0,1,0.25,2,9,0.0,0.0,11,48.0,30.0,9,0.451,1.0,1085.052,0.19,1,2020-05-06 11:45:17.000,88,2020-05-06 12:03:20.392,0.25,-90,-150,-150,-90,1
73,0,1103.329,0,0,1,0.25,2,9,0.0,0.0,11,48.0,30.0,9,0.501,1.0,1105.789,0.19,1,2020-05-06 11:45:17.000,88,2020-05-06 12:03:40.329,0.25,-90,-150,-150,-90,1
74,0,1122.4360000000001,0,0,1,0.25,2,3,0.0,0.0,5,48.0,30.0,3,0.551,0.0,0.0,0.12,1,2020-05-06 11:45:17.000,88,2020-05-06 12:03:59.436,0.25,90,30,30,90,1
75,0,1130.839,0,0,1,0.25,2,9,0.0,0.0,11,48.0,30.0,9,0.501,1.0,1133.6580000000001,0.19,1,2020-05-06 11:45:17.000,88,2020-05-06 12:04:07.839,0.25,-90,-150,-150,-90,1
76,0,1154.28,0,0,1,0.25,2,9,0.0,0.0,11,48.0,30.0,9,0.47600000000000003,0.0,0.0,0.0,0,2020-05-06 11:45:17.000,88,2020-05-06 12:04:31.280,0.25,90,-150,-150,90,1
78,0,1185.432,1,0,1,0.25,2,9,0.0,0.0,11,48.0,30.0,9,0.526,1.0,1196.242,0.19,1,2020-05-06 11:45:17.000,88,2020-05-06 12:05:02.432,0.25,-90,-150,-150,-90,1
79,0,1212.972,1,0,1,0.25,2,3,0.0,0.0,5,48.0,30.0,3,0.451,0.0,0.0,0.12,1,2020-05-06 11:45:17.000,88,2020-05-06 12:05:29.972,0.25,90,30,30,90,1
80,0,1225.963,0,0,1,0.25,2,9,0.0,0.0,11,48.0,30.0,9,0.451,0.0,0.0,0.0,0,2020-05-06 11:45:17.000,88,2020-05-06 12:05:42.963,0.25,90,-150,-150,90,1
1,0,41.063,0,0,1,0.25,2,9,0.0,0.0,11,48.0,30.0,9,0.526,1.0,42.672,0.19,1,2020-05-06 17:07:55.000,47,2020-05-06 17:08:36.063,0.25,-90,-150,-150,-90,1
2,0,55.019,0,0,1,0.25,2,9,0.0,0.0,11,48.0,30.0,9,0.451,1.0,56.85,0.19,1,2020-05-06 17:07:55.000,47,2020-05-06 17:08:50.019,0.25,-90,-150,-150,-90,1
3,0,68.794,1,0,1,0.25,2,9,0.0,0.0,11,48.0,30.0,9,0.501,1.0,76.843,0.19,1,2020-05-06 17:07:55.000,47,2020-05-06 17:09:03.794,0.25,-90,-150,-150,-90,1
4,0,83.48,0,0,1,0.25,2,3,0.0,0.0,5,48.0,30.0,3,0.47600000000000003,0.0,0.0,0.12,1,2020-05-06 17:07:55.000,47,2020-05-06 17:09:18.480,0.25,90,30,30,90,1
5,0,92.15100000000001,0,0,1,0.25,2,9,0.0,0.0,11,48.0,30.0,9,0.551,1.0,94.9,0.19,1,2020-05-06 17:07:55.000,47,2020-05-06 17:09:27.151,0.25,-90,-150,-150,-90,1
6,0,112.712,0,0,1,0.25,2,3,0.0,0.0,5,48.0,30.0,3,0.47600000000000003,0.0,0.0,0.12,1,2020-05-06 17:07:55.000,47,2020-05-06 17:09:47.712,0.25,90,30,30,90,1
7,0,119.54799999999999,1,0,1,0.25,2,9,0.0,0.0,11,48.0,30.0,9,0.451,0.0,0.0,0.0,0,2020-05-06 17:07:55.000,47,2020-05-06 17:09:54.548,0.25,90,-150,-150,90,1
9,0,153.341,0,0,1,0.25,2,3,0.0,0.0,5,48.0,30.0,3,0.526,0.0,0.0,0.12,1,2020-05-06 17:07:55.000,47,2020-05-06 17:10:28.341,0.25,90,30,30,90,1
10,0,165.62400000000002,1,0,1,0.25,2,3,0.0,0.0,5,48.0,30.0,3,0.551,1.0,172.09400000000002,0.0,0,2020-05-06 17:07:55.000,47,2020-05-06 17:10:40.624,0.25,-90,30,30,-90,1
12,0,194.699,0,0,1,0.25,2,3,0.0,0.0,5,48.0,30.0,3,0.501,1.0,196.8,0.0,0,2020-05-06 17:07:55.000,47,2020-05-06 17:11:09.699,0.25,-90,30,30,-90,1
15,0,218.80900000000003,0,0,1,0.25,2,3,0.0,0.0,5,48.0,30.0,3,0.47600000000000003,0.0,0.0,0.12,1,2020-05-06 17:07:55.000,47,2020-05-06 17:11:33.809,0.25,90,30,30,90,1
16,0,236.55,0,0,1,0.25,2,3,0.0,0.0,5,48.0,30.0,3,0.551,1.0,238.12099999999998,0.0,0,2020-05-06 17:07:55.000,47,2020-05-06 17:11:51.550,0.25,-90,30,30,-90,1
18,0,265.699,0,0,1,0.25,2,3,0.0,0.0,5,48.0,30.0,3,0.501,1.0,267.39599999999996,0.0,0,2020-05-06 17:07:55.000,47,2020-05-06 17:12:20.699,0.25,-90,30,30,-90,1
20,0,290.501,0,0,1,0.25,2,9,0.0,0.0,11,48.0,30.0,9,0.451,0.0,0.0,0.0,0,2020-05-06 17:07:55.000,47,2020-05-06 17:12:45.501,0.25,90,-150,-150,90,1
22,0,339.116,0,0,1,0.25,2,3,0.0,0.0,5,48.0,30.0,3,0.526,0.0,0.0,0.12,1,2020-05-06 17:07:55.000,47,2020-05-06 17:13:34.116,0.25,90,30,30,90,1
23,0,350.61800000000005,0,0,1,0.25,2,9,0.0,0.0,11,48.0,30.0,9,0.551,1.0,353.26599999999996,0.19,1,2020-05-06 17:07:55.000,47,2020-05-06 17:13:45.618,0.25,-90,-150,-150,-90,1
24,0,372.349,1,0,1,0.25,2,3,0.0,0.0,5,48.0,30.0,3,0.501,1.0,378.619,0.0,0,2020-05-06 17:07:55.000,47,2020-05-06 17:14:07.349,0.25,-90,30,30,-90,1
26,0,405.626,0,0,1,0.25,2,9,0.0,0.0,11,48.0,30.0,9,0.47600000000000003,0.0,0.0,0.0,0,2020-05-06 17:07:55.000,47,2020-05-06 17:14:40.626,0.25,90,-150,-150,90,1
28,0,431.126,0,0,1,0.25,2,9,0.0,0.0,11,48.0,30.0,9,0.451,1.0,434.11800000000005,0.19,1,2020-05-06 17:07:55.000,47,2020-05-06 17:15:06.126,0.25,-90,-150,-150,-90,1
29,0,467.825,0,0,1,0.25,2,9,0.0,0.0,11,48.0,30.0,9,0.526,1.0,469.656,0.19,1,2020-05-06 17:07:55.000,47,2020-05-06 17:15:42.825,0.25,-90,-150,-150,-90,1
30,0,495.092,0,0,1,0.25,2,3,0.0,0.0,5,48.0,30.0,3,0.451,1.0,498.726,0.0,0,2020-05-06 17:07:55.000,47,2020-05-06 17:16:10.092,0.25,-90,30,30,-90,1
32,0,515.727,0,0,1,0.25,2,9,0.0,0.0,11,48.0,30.0,9,0.526,1.0,518.179,0.19,1,2020-05-06 17:07:55.000,47,2020-05-06 17:16:30.727,0.25,-90,-150,-150,-90,1
33,0,534.936,0,0,1,0.25,2,9,0.0,0.0,11,48.0,30.0,9,0.551,1.0,537.75,0.19,1,2020-05-06 17:07:55.000,47,2020-05-06 17:16:49.936,0.25,-90,-150,-150,-90,1
34,0,556.681,0,0,1,0.25,2,3,0.0,0.0,5,48.0,30.0,3,0.501,0.0,0.0,0.12,1,2020-05-06 17:07:55.000,47,2020-05-06 17:17:11.681,0.25,90,30,30,90,1
35,0,572.029,0,0,1,0.25,2,3,0.0,0.0,5,48.0,30.0,3,0.47600000000000003,1.0,574.755,0.0,0,2020-05-06 17:07:55.000,47,2020-05-06 17:17:27.029,0.25,-90,30,30,-90,1
37,0,584.443,0,0,1,0.25,2,3,0.0,0.0,5,48.0,30.0,3,0.551,1.0,587.178,0.0,0,2020-05-06 17:07:55.000,47,2020-05-06 17:17:39.443,0.25,-90,30,30,-90,1
40,0,632.602,0,0,1,0.25,2,3,0.0,0.0,5,48.0,30.0,3,0.47600000000000003,1.0,634.145,0.0,0,2020-05-06 17:07:55.000,47,2020-05-06 17:18:27.602,0.25,-90,30,30,-90,1
37,0,550.305,1,0,1,0.25,2,9,0.0,0.0,11,48.0,30.0,9,0.501,0.0,0.0,0.0,0,2020-05-07 16:55:25.000,30,2020-05-07 17:04:35.305,0.25,90,-150,-150,90,1
40,0,585.464,0,0,1,0.25,2,3,0.0,0.0,5,48.0,30.0,3,0.551,0.0,0.0,0.12,1,2020-05-07 16:55:25.000,30,2020-05-07 17:05:10.464,0.25,90,30,30,90,1
41,0,595.634,0,0,1,0.25,2,3,0.0,0.0,5,48.0,30.0,3,0.451,1.0,597.492,0.0,0,2020-05-07 16:55:25.000,30,2020-05-07 17:05:20.634,0.25,-90,30,30,-90,1
43,0,610.251,0,0,1,0.25,2,9,0.0,0.0,11,48.0,30.0,9,0.47600000000000003,0.0,0.0,0.0,0,2020-05-07 16:55:25.000,30,2020-05-07 17:05:35.251,0.25,90,-150,-150,90,1
45,0,637.692,0,0,1,0.25,2,9,0.0,0.0,11,48.0,30.0,9,0.501,1.0,641.568,0.19,1,2020-05-07 16:55:25.000,30,2020-05-07 17:06:02.692,0.25,-90,-150,-150,-90,1
46,0,660.047,0,0,1,0.25,2,3,0.0,0.0,5,48.0,30.0,3,0.47600000000000003,1.0,664.26,0.0,0,2020-05-07 16:55:25.000,30,2020-05-07 17:06:25.047,0.25,-90,30,30,-90,1
48,0,681.951,0,0,1,0.25,2,9,0.0,0.0,11,48.0,30.0,9,0.526,1.0,684.3560000000001,0.19,1,2020-05-07 16:55:25.000,30,2020-05-07 17:06:46.951,0.25,-90,-150,-150,-90,1
49,0,701.765,0,0,1,0.25,2,3,0.0,0.0,5,48.0,30.0,3,0.451,0.0,0.0,0.12,1,2020-05-07 16:55:25.000,30,2020-05-07 17:07:06.765,0.25,90,30,30,90,1
50,0,717.8489999999999,0,0,1,0.25,2,9,0.0,0.0,11,48.0,30.0,9,0.551,1.0,719.4889999999999,0.19,1,2020-05-07 16:55:25.000,30,2020-05-07 17:07:22.849,0.25,-90,-150,-150,-90,1
51,0,742.887,0,0,1,0.25,2,3,0.0,0.0,5,48.0,30.0,3,0.451,0.0,0.0,0.12,1,2020-05-07 16:55:25.000,30,2020-05-07 17:07:47.887,0.25,90,30,30,90,1
52,0,750.659,0,0,1,0.25,2,3,0.0,0.0,5,48.0,30.0,3,0.551,1.0,753.284,0.0,0,2020-05-07 16:55:25.000,30,2020-05-07 17:07:55.659,0.25,-90,30,30,-90,1
54,0,765.753,0,0,1,0.25,2,9,0.0,0.0,11,48.0,30.0,9,0.47600000000000003,0.0,0.0,0.0,0,2020-05-07 16:55:25.000,30,2020-05-07 17:08:10.753,0.25,90,-150,-150,90,1
56,0,792.931,0,0,1,0.25,2,9,0.0,0.0,11,48.0,30.0,9,0.501,1.0,796.3989999999999,0.19,1,2020-05-07 16:55:25.000,30,2020-05-07 17:08:37.931,0.25,-90,-150,-150,-90,1
57,0,815.6,0,0,1,0.25,2,9,0.0,0.0,11,48.0,30.0,9,0.526,1.0,819.2860000000001,0.19,1,2020-05-07 16:55:25.000,30,2020-05-07 17:09:00.600,0.25,-90,-150,-150,-90,1
58,0,836.413,0,0,1,0.25,2,9,0.0,0.0,11,48.0,30.0,9,0.47600000000000003,1.0,839.302,0.19,1,2020-05-07 16:55:25.000,30,2020-05-07 17:09:21.413,0.25,-90,-150,-150,-90,1
59,0,859.6389999999999,0,0,1,0.25,2,9,0.0,0.0,11,48.0,30.0,9,0.451,1.0,863.082,0.19,1,2020-05-07 16:55:25.000,30,2020-05-07 17:09:44.639,0.25,-90,-150,-150,-90,1
60,0,877.7410000000001,0,0,1,0.25,2,9,0.0,0.0,11,48.0,30.0,9,0.526,0.0,0.0,0.0,0,2020-05-07 16:55:25.000,30,2020-05-07 17:10:02.741,0.25,90,-150,-150,90,1
62,0,904.2919999999999,0,0,1,0.25,2,3,0.0,0.0,5,48.0,30.0,3,0.501,0.0,0.0,0.12,1,2020-05-07 16:55:25.000,30,2020-05-07 17:10:29.292,0.25,90,30,30,90,1
63,0,912.091,0,0,1,0.25,2,9,0.0,0.0,11,48.0,30.0,9,0.551,1.0,917.221,0.19,1,2020-05-07 16:55:25.000,30,2020-05-07 17:10:37.091,0.25,-90,-150,-150,-90,1
64,0,933.158,0,0,1,0.25,2,9,0.0,0.0,11,48.0,30.0,9,0.526,1.0,936.202,0.19,1,2020-05-07 16:55:25.000,30,2020-05-07 17:10:58.158,0.25,-90,-150,-150,-90,1
65,0,952.887,0,0,1,0.25,2,9,0.0,0.0,11,48.0,30.0,9,0.501,1.0,955.877,0.19,1,2020-05-07 16:55:25.000,30,2020-05-07 17:11:17.887,0.25,-90,-150,-150,-90,1
66,0,982.408,0,0,1,0.25,2,3,0.0,0.0,5,48.0,30.0,3,0.47600000000000003,0.0,0.0,0.12,1,2020-05-07 16:55:25.000,30,2020-05-07 17:11:47.408,0.25,90,30,30,90,1
67,0,1083.124,0,0,1,0.25,2,3,0.0,0.0,5,48.0,30.0,3,0.451,0.0,0.0,0.12,1,2020-05-07 16:55:25.000,30,2020-05-07 17:13:28.124,0.25,90,30,30,90,1
12,0,342.712,0,0,1,0.25,2,9,0.0,0.0,11,48.0,30.0,9,0.47600000000000003,1.0,345.24699999999996,0.19,1,2020-05-08 11:56:05.000,68,2020-05-08 12:01:47.712,0.25,-90,-150,-150,-90,1
13,0,398.843,0,0,1,0.25,2,3,0.0,0.0,5,48.0,30.0,3,0.551,0.0,0.0,0.12,1,2020-05-08 11:56:05.000,68,2020-05-08 12:02:43.843,0.25,90,30,30,90,1
14,0,407.004,0,0,1,0.25,2,3,0.0,0.0,5,48.0,30.0,3,0.451,0.0,0.0,0.12,1,2020-05-08 11:56:05.000,68,2020-05-08 12:02:52.004,0.25,90,30,30,90,1
15,0,417.48,0,0,1,0.25,2,9,0.0,0.0,11,48.0,30.0,9,0.47600000000000003,1.0,419.587,0.19,1,2020-05-08 11:56:05.000,68,2020-05-08 12:03:02.480,0.25,-90,-150,-150,-90,1
16,0,435.31300000000005,0,0,1,0.25,2,3,0.0,0.0,5,48.0,30.0,3,0.451,1.0,438.73,0.0,0,2020-05-08 11:56:05.000,68,2020-05-08 12:03:20.313,0.25,-90,30,30,-90,1
18,0,456.83,0,0,1,0.25,2,3,0.0,0.0,5,48.0,30.0,3,0.501,0.0,0.0,0.12,1,2020-05-08 11:56:05.000,68,2020-05-08 12:03:41.830,0.25,90,30,30,90,1
19,0,467.269,0,0,1,0.25,2,9,0.0,0.0,11,48.0,30.0,9,0.526,1.0,469.04699999999997,0.19,1,2020-05-08 11:56:05.000,68,2020-05-08 12:03:52.269,0.25,-90,-150,-150,-90,1
20,0,491.67800000000005,0,0,1,0.25,2,9,0.0,0.0,11,48.0,30.0,9,0.551,1.0,494.912,0.19,1,2020-05-08 11:56:05.000,68,2020-05-08 12:04:16.678,0.25,-90,-150,-150,-90,1
21,0,514.068,0,0,1,0.25,2,3,0.0,0.0,5,48.0,30.0,3,0.551,1.0,517.168,0.0,0,2020-05-08 11:56:05.000,68,2020-05-08 12:04:39.068,0.25,-90,30,30,-90,1
23,0,530.765,0,0,1,0.25,2,3,0.0,0.0,5,48.0,30.0,3,0.47600000000000003,0.0,0.0,0.12,1,2020-05-08 11:56:05.000,68,2020-05-08 12:04:55.765,0.25,90,30,30,90,1
24,0,540.4830000000001,0,0,1,0.25,2,3,0.0,0.0,5,48.0,30.0,3,0.501,1.0,542.936,0.0,0,2020-05-08 11:56:05.000,68,2020-05-08 12:05:05.483,0.25,-90,30,30,-90,1
26,0,564.558,0,0,1,0.25,2,9,0.0,0.0,11,48.0,30.0,9,0.526,0.0,0.0,0.0,0,2020-05-08 11:56:05.000,68,2020-05-08 12:05:29.558,0.25,90,-150,-150,90,1
28,0,594.154,0,0,1,0.25,2,9,0.0,0.0,11,48.0,30.0,9,0.451,1.0,596.443,0.19,1,2020-05-08 11:56:05.000,68,2020-05-08 12:05:59.154,0.25,-90,-150,-150,-90,1
29,0,615.6519999999999,0,0,1,0.25,2,3,0.0,0.0,5,48.0,30.0,3,0.501,1.0,618.872,0.0,0,2020-05-08 11:56:05.000,68,2020-05-08 12:06:20.652,0.25,-90,30,30,-90,1
31,0,630.79,0,0,1,0.25,2,9,0.0,0.0,11,48.0,30.0,9,0.47600000000000003,0.0,0.0,0.0,0,2020-05-08 11:56:05.000,68,2020-05-08 12:06:35.790,0.25,90,-150,-150,90,1
33,0,661.278,0,0,1,0.25,2,9,0.0,0.0,11,48.0,30.0,9,0.526,1.0,664.952,0.19,1,2020-05-08 11:56:05.000,68,2020-05-08 12:07:06.278,0.25,-90,-150,-150,-90,1
34,0,684.674,0,0,1,0.25,2,3,0.0,0.0,5,48.0,30.0,3,0.551,1.0,687.552,0.0,0,2020-05-08 11:56:05.000,68,2020-05-08 12:07:29.674,0.25,-90,30,30,-90,1
36,0,698.363,0,0,1,0.25,2,3,0.0,0.0,5,48.0,30.0,3,0.451,0.0,0.0,0.12,1,2020-05-08 11:56:05.000,68,2020-05-08 12:07:43.363,0.25,90,30,30,90,1
37,0,724.182,0,0,1,0.25,2,9,0.0,0.0,11,48.0,30.0,9,0.551,1.0,729.467,0.19,1,2020-05-08 11:56:05.000,68,2020-05-08 12:08:09.182,0.25,-90,-150,-150,-90,1
38,0,754.6569999999999,0,0,1,0.25,2,9,0.0,0.0,11,48.0,30.0,9,0.451,1.0,757.9830000000001,0.19,1,2020-05-08 11:56:05.000,68,2020-05-08 12:08:39.657,0.25,-90,-150,-150,-90,1
39,0,778.038,0,0,1,0.25,2,9,0.0,0.0,11,48.0,30.0,9,0.501,1.0,781.4830000000001,0.19,1,2020-05-08 11:56:05.000,68,2020-05-08 12:09:03.038,0.25,-90,-150,-150,-90,1
40,0,800.9960000000001,0,0,1,0.25,2,9,0.0,0.0,11,48.0,30.0,9,0.47600000000000003,1.0,804.304,0.175,1,2020-05-08 11:56:05.000,68,2020-05-08 12:09:25.996,0.25,-90,-150,-150,-90,1
41,0,825.466,0,0,1,0.25,2,3,0.0,0.0,5,48.0,30.0,3,0.526,0.0,0.0,0.125,1,2020-05-08 11:56:05.000,68,2020-05-08 12:09:50.466,0.25,90,30,30,90,1
42,0,833.695,0,0,1,0.25,2,3,0.0,0.0,5,48.0,30.0,3,0.526,0.0,0.0,0.125,1,2020-05-08 11:56:05.000,68,2020-05-08 12:09:58.695,0.25,90,30,30,90,1
43,0,842.424,1,0,1,0.25,2,9,0.0,0.0,11,48.0,30.0,9,0.451,1.0,849.804,0.175,1,2020-05-08 11:56:05.000,68,2020-05-08 12:10:07.424,0.25,-90,-150,-150,-90,1
44,0,867.205,0,0,1,0.25,2,3,0.0,0.0,5,48.0,30.0,3,0.551,0.0,0.0,0.125,1,2020-05-08 11:56:05.000,68,2020-05-08 12:10:32.205,0.25,90,30,30,90,1
45,0,875.721,0,0,1,0.25,2,9,0.0,0.0,11,48.0,30.0,9,0.47600000000000003,1.0,877.6619999999999,0.175,1,2020-05-08 11:56:05.000,68,2020-05-08 12:10:40.721,0.25,-90,-150,-150,-90,1
46,0,895.378,0,0,1,0.25,2,3,0.0,0.0,5,48.0,30.0,3,0.501,0.0,0.0,0.125,1,2020-05-08 11:56:05.000,68,2020-05-08 12:11:00.378,0.25,90,30,30,90,1
47,0,911.768,0,0,1,0.25,2,3,0.0,0.0,5,48.0,30.0,3,0.526,0.0,0.0,0.125,1,2020-05-08 11:56:05.000,68,2020-05-08 12:11:16.768,0.25,90,30,30,90,1
48,0,920.523,0,0,1,0.25,2,3,0.0,0.0,5,48.0,30.0,3,0.451,1.0,929.225,0.0,0,2020-05-08 11:56:05.000,68,2020-05-08 12:11:25.523,0.25,-90,30,30,-90,1
50,0,953.62,0,0,1,0.25,2,3,0.0,0.0,5,48.0,30.0,3,0.47600000000000003,1.0,956.182,0.0,0,2020-05-08 11:56:05.000,68,2020-05-08 12:11:58.620,0.25,-90,30,30,-90,1
52,0,988.051,0,0,1,0.25,2,3,0.0,0.0,5,48.0,30.0,3,0.551,0.0,0.0,0.125,1,2020-05-08 11:56:05.000,68,2020-05-08 12:12:33.051,0.25,90,30,30,90,1
53,0,996.291,0,0,1,0.25,2,9,0.0,0.0,11,48.0,30.0,9,0.501,1.0,998.553,0.175,1,2020-05-08 11:56:05.000,68,2020-05-08 12:12:41.291,0.25,-90,-150,-150,-90,1
54,0,1015.3689999999999,0,0,1,0.25,2,9,0.0,0.0,11,48.0,30.0,9,0.47600000000000003,1.0,1017.632,0.175,1,2020-05-08 11:56:05.000,68,2020-05-08 12:13:00.369,0.25,-90,-150,-150,-90,1
55,0,1034.521,0,0,1,0.25,2,3,0.0,0.0,5,48.0,30.0,3,0.551,0.0,0.0,0.125,1,2020-05-08 11:56:05.000,68,2020-05-08 12:13:19.521,0.25,90,30,30,90,1
56,0,1044.553,1,0,1,0.25,2,9,0.0,0.0,11,48.0,30.0,9,0.451,0.0,0.0,0.0,0,2020-05-08 11:56:05.000,68,2020-05-08 12:13:29.553,0.25,90,-150,-150,90,1
58,0,1070.8519999999999,0,0,1,0.25,2,3,0.0,0.0,5,48.0,30.0,3,0.501,1.0,1096.569,0.0,0,2020-05-08 11:56:05.000,68,2020-05-08 12:13:55.852,0.25,-90,30,30,-90,1
60,0,1118.678,0,0,1,0.25,2,9,0.0,0.0,11,48.0,30.0,9,0.526,1.0,1120.639,0.175,1,2020-05-08 11:56:05.000,68,2020-05-08 12:14:43.678,0.25,-90,-150,-150,-90,1
61,0,1141.372,0,0,1,0.25,2,9,0.0,0.0,11,48.0,30.0,9,0.451,1.0,1143.104,0.175,1,2020-05-08 11:56:05.000,68,2020-05-08 12:15:06.372,0.25,-90,-150,-150,-90,1
62,0,1157.883,0,0,1,0.25,2,9,0.0,0.0,11,48.0,30.0,9,0.47600000000000003,1.0,1160.665,0.175,1,2020-05-08 11:56:05.000,68,2020-05-08 12:15:22.883,0.25,-90,-150,-150,-90,1
63,0,1176.671,0,0,1,0.25,2,3,0.0,0.0,5,48.0,30.0,3,0.526,0.0,0.0,0.125,1,2020-05-08 11:56:05.000,68,2020-05-08 12:15:41.671,0.25,90,30,30,90,1
64,0,1194.136,1,0,1,0.25,2,9,0.0,0.0,11,48.0,30.0,9,0.551,0.0,0.0,0.0,0,2020-05-08 11:56:05.000,68,2020-05-08 12:15:59.136,0.25,90,-150,-150,90,1
33,0,549.438,0,0,1,0.25,2,3,0.0,0.0,5,48.0,30.0,3,0.526,1.0,552.115,0.0,0,2020-05-08 17:04:44.000,5,2020-05-08 17:13:53.438,0.25,-90,30,30,-90,1
35,0,584.379,0,0,1,0.25,2,3,0.0,0.0,5,48.0,30.0,3,0.451,0.0,0.0,0.12,1,2020-05-08 17:04:44.000,5,2020-05-08 17:14:28.379,0.25,90,30,30,90,1
36,0,592.0459999999999,0,0,1,0.25,2,3,0.0,0.0,5,48.0,30.0,3,0.551,1.0,594.182,0.0,0,2020-05-08 17:04:44.000,5,2020-05-08 17:14:36.046,0.25,-90,30,30,-90,1
38,0,625.826,0,0,1,0.25,2,9,0.0,0.0,11,48.0,30.0,9,0.501,1.0,627.28,0.19,1,2020-05-08 17:04:44.000,5,2020-05-08 17:15:09.826,0.25,-90,-150,-150,-90,1
39,0,644.9209999999999,0,0,1,0.25,2,9,0.0,0.0,11,48.0,30.0,9,0.47600000000000003,1.0,646.6669999999999,0.19,1,2020-05-08 17:04:44.000,5,2020-05-08 17:15:28.921,0.25,-90,-150,-150,-90,1
40,0,667.362,0,0,1,0.25,2,9,0.0,0.0,11,48.0,30.0,9,0.551,1.0,670.295,0.19,1,2020-05-08 17:04:44.000,5,2020-05-08 17:15:51.362,0.25,-90,-150,-150,-90,1
41,0,688.722,0,0,1,0.25,2,9,0.0,0.0,11,48.0,30.0,9,0.451,1.0,691.758,0.19,1,2020-05-08 17:04:44.000,5,2020-05-08 17:16:12.722,0.25,-90,-150,-150,-90,1
42,0,710.3530000000001,0,0,1,0.25,2,9,0.0,0.0,11,48.0,30.0,9,0.501,1.0,713.56,0.19,1,2020-05-08 17:04:44.000,5,2020-05-08 17:16:34.353,0.25,-90,-150,-150,-90,1
43,0,730.335,0,0,1,0.25,2,9,0.0,0.0,11,48.0,30.0,9,0.47600000000000003,1.0,732.4760000000001,0.19,1,2020-05-08 17:04:44.000,5,2020-05-08 17:16:54.335,0.25,-90,-150,-150,-90,1
44,0,754.985,0,0,1,0.25,2,9,0.0,0.0,11,48.0,30.0,9,0.526,0.0,0.0,0.0,0,2020-05-08 17:04:44.000,5,2020-05-08 17:17:18.985,0.25,90,-150,-150,90,1
46,0,782.8969999999999,0,0,1,0.25,2,9,0.0,0.0,11,48.0,30.0,9,0.501,1.0,786.248,0.19,1,2020-05-08 17:04:44.000,5,2020-05-08 17:17:46.897,0.25,-90,-150,-150,-90,1
47,0,804.029,1,0,1,0.25,2,9,0.0,0.0,11,48.0,30.0,9,0.47600000000000003,1.0,812.3610000000001,0.19,1,2020-05-08 17:04:44.000,5,2020-05-08 17:18:08.029,0.25,-90,-150,-150,-90,1
48,0,829.665,0,0,1,0.25,2,9,0.0,0.0,11,48.0,30.0,9,0.451,0.0,0.0,0.0,0,2020-05-08 17:04:44.000,5,2020-05-08 17:18:33.665,0.25,90,-150,-150,90,1
50,0,889.204,0,0,1,0.25,2,3,0.0,0.0,5,48.0,30.0,3,0.551,0.0,0.0,0.12,1,2020-05-08 17:04:44.000,5,2020-05-08 17:19:33.204,0.25,90,30,30,90,1
26,0,551.056,0,0,1,0.25,2,3,0.0,0.0,5,48.0,30.0,3,0.501,0.0,0.0,0.12,1,2020-05-13 11:11:51.000,1,2020-05-13 11:21:02.056,0.25,90,30,30,90,1
27,0,559.187,0,0,1,0.25,2,3,0.0,0.0,5,48.0,30.0,3,0.47600000000000003,0.0,0.0,0.12,1,2020-05-13 11:11:51.000,1,2020-05-13 11:21:10.187,0.25,90,30,30,90,1
28,0,571.939,0,0,1,0.25,2,9,0.0,0.0,11,48.0,30.0,9,0.526,1.0,574.382,0.19,1,2020-05-13 11:11:51.000,1,2020-05-13 11:21:22.939,0.25,-90,-150,-150,-90,1
29,0,590.836,0,0,1,0.25,2,9,0.0,0.0,11,48.0,30.0,9,0.501,1.0,593.095,0.19,1,2020-05-13 11:11:51.000,1,2020-05-13 11:21:41.836,0.25,-90,-150,-150,-90,1
30,0,609.077,0,0,1,0.25,2,9,0.0,0.0,11,48.0,30.0,9,0.451,1.0,612.174,0.19,1,2020-05-13 11:11:51.000,1,2020-05-13 11:22:00.077,0.25,-90,-150,-150,-90,1
31,0,632.126,0,0,1,0.25,2,3,0.0,0.0,5,48.0,30.0,3,0.551,0.0,0.0,0.12,1,2020-05-13 11:11:51.000,1,2020-05-13 11:22:23.126,0.25,90,30,30,90,1
32,0,655.36,1,0,1,0.25,2,3,0.0,0.0,5,48.0,30.0,3,0.47600000000000003,1.0,660.6469999999999,0.0,0,2020-05-13 11:11:51.000,1,2020-05-13 11:22:46.360,0.25,-90,30,30,-90,1
34,0,681.313,0,0,1,0.25,2,3,0.0,0.0,5,48.0,30.0,3,0.501,1.0,682.7739999999999,0.0,0,2020-05-13 11:11:51.000,1,2020-05-13 11:23:12.313,0.25,-90,30,30,-90,1
15,0,274.793,0,0,1,0.25,2,3,0.0,0.0,5,48.0,30.0,3,0.47600000000000003,0.0,0.0,0.12,1,2020-05-14 11:21:27.000,39,2020-05-14 11:26:01.793,0.25,90,30,30,90,1
16,0,282.813,1,0,1,0.25,2,3,0.0,0.0,5,48.0,30.0,3,0.451,0.0,0.0,0.12,1,2020-05-14 11:21:27.000,39,2020-05-14 11:26:09.813,0.25,90,30,30,90,1
17,0,294.062,1,0,1,0.25,2,3,0.0,0.0,5,48.0,30.0,3,0.551,1.0,299.856,0.0,0,2020-05-14 11:21:27.000,39,2020-05-14 11:26:21.062,0.25,-90,30,30,-90,1
19,0,313.22,0,0,1,0.25,2,9,0.0,0.0,11,48.0,30.0,9,0.451,1.0,314.712,0.19,1,2020-05-14 11:21:27.000,39,2020-05-14 11:26:40.220,0.25,-90,-150,-150,-90,1
20,0,328.094,0,0,1,0.25,2,9,0.0,0.0,11,48.0,30.0,9,0.501,1.0,330.26300000000003,0.19,1,2020-05-14 11:21:27.000,39,2020-05-14 11:26:55.094,0.25,-90,-150,-150,-90,1
21,0,346.022,0,0,1,0.25,2,3,0.0,0.0,5,48.0,30.0,3,0.526,0.0,0.0,0.12,1,2020-05-14 11:21:27.000,39,2020-05-14 11:27:13.022,0.25,90,30,30,90,1
22,0,363.342,0,0,1,0.25,2,3,0.0,0.0,5,48.0,30.0,3,0.47600000000000003,0.0,0.0,0.12,1,2020-05-14 11:21:27.000,39,2020-05-14 11:27:30.342,0.25,90,30,30,90,1
23,0,370.56,0,0,1,0.25,2,3,0.0,0.0,5,48.0,30.0,3,0.551,0.0,0.0,0.12,1,2020-05-14 11:21:27.000,39,2020-05-14 11:27:37.560,0.25,90,30,30,90,1
24,0,378.57599999999996,0,0,1,0.25,2,9,0.0,0.0,11,48.0,30.0,9,0.551,0.0,0.0,0.0,0,2020-05-14 11:21:27.000,39,2020-05-14 11:27:45.576,0.25,90,-150,-150,90,1
27,0,413.914,0,0,1,0.25,2,9,0.0,0.0,11,48.0,30.0,9,0.501,1.0,416.055,0.19,1,2020-05-14 11:21:27.000,39,2020-05-14 11:28:20.914,0.25,-90,-150,-150,-90,1
28,0,430.838,0,0,1,0.25,2,3,0.0,0.0,5,48.0,30.0,3,0.47600000000000003,0.0,0.0,0.12,1,2020-05-14 11:21:27.000,39,2020-05-14 11:28:37.838,0.25,90,30,30,90,1
29,0,437.866,0,0,1,0.25,2,3,0.0,0.0,5,48.0,30.0,3,0.526,0.0,0.0,0.12,1,2020-05-14 11:21:27.000,39,2020-05-14 11:28:44.866,0.25,90,30,30,90,1
30,0,477.601,0,0,1,0.25,2,9,0.0,0.0,11,48.0,30.0,9,0.451,1.0,479.464,0.19,1,2020-05-14 11:21:27.000,39,2020-05-14 11:29:24.601,0.25,-90,-150,-150,-90,1
31,0,492.969,0,0,1,0.25,2,9,0.0,0.0,11,48.0,30.0,9,0.501,0.0,0.0,0.0,0,2020-05-14 11:21:27.000,39,2020-05-14 11:29:39.969,0.25,90,-150,-150,90,1
33,0,518.429,0,0,1,0.25,2,9,0.0,0.0,11,48.0,30.0,9,0.526,1.0,520.66,0.19,1,2020-05-14 11:21:27.000,39,2020-05-14 11:30:05.429,0.25,-90,-150,-150,-90,1
34,0,537.057,1,0,1,0.25,2,9,0.0,0.0,11,48.0,30.0,9,0.47600000000000003,0.0,0.0,0.0,0,2020-05-14 11:21:27.000,39,2020-05-14 11:30:24.057,0.25,90,-150,-150,90,1
37,0,612.464,0,0,1,0.25,2,3,0.0,0.0,5,48.0,30.0,3,0.551,1.0,615.645,0.0,0,2020-05-14 11:21:27.000,39,2020-05-14 11:31:39.464,0.25,-90,30,30,-90,1
1,0,27.802,1,0,1,0.25,2,3,0.0,0.0,5,48.0,30.0,3,0.526,0.0,0.0,0.12,1,2020-05-14 17:06:16.000,13,2020-05-14 17:06:43.802,0.25,90,30,30,90,1
2,0,45.769,0,0,1,0.25,2,3,0.0,0.0,5,48.0,30.0,3,0.551,0.0,0.0,0.12,1,2020-05-14 17:06:16.000,13,2020-05-14 17:07:01.769,0.25,90,30,30,90,1
3,0,52.453,0,0,1,0.25,2,9,0.0,0.0,11,48.0,30.0,9,0.501,0.0,0.0,0.0,0,2020-05-14 17:06:16.000,13,2020-05-14 17:07:08.453,0.25,90,-150,-150,90,1
5,0,65.783,0,0,1,0.25,2,9,0.0,0.0,11,48.0,30.0,9,0.47600000000000003,0.0,0.0,0.0,0,2020-05-14 17:06:16.000,13,2020-05-14 17:07:21.783,0.25,90,-150,-150,90,1
7,0,81.15,0,0,1,0.25,2,9,0.0,0.0,11,48.0,30.0,9,0.451,1.0,83.904,0.19,1,2020-05-14 17:06:16.000,13,2020-05-14 17:07:37.150,0.25,-90,-150,-150,-90,1
8,0,114.986,0,0,1,0.25,2,9,0.0,0.0,11,48.0,30.0,9,0.551,1.0,116.568,0.19,1,2020-05-14 17:06:16.000,13,2020-05-14 17:08:10.986,0.25,-90,-150,-150,-90,1
9,0,133.259,0,0,1,0.25,2,3,0.0,0.0,5,48.0,30.0,3,0.526,0.0,0.0,0.12,1,2020-05-14 17:06:16.000,13,2020-05-14 17:08:29.259,0.25,90,30,30,90,1
10,0,161.731,0,0,1,0.25,2,3,0.0,0.0,5,48.0,30.0,3,0.501,0.0,0.0,0.12,1,2020-05-14 17:06:16.000,13,2020-05-14 17:08:57.731,0.25,90,30,30,90,1
11,0,189.355,0,0,1,0.25,2,3,0.0,0.0,5,48.0,30.0,3,0.47600000000000003,0.0,0.0,0.12,1,2020-05-14 17:06:16.000,13,2020-05-14 17:09:25.355,0.25,90,30,30,90,1
12,0,197.705,0,0,1,0.25,2,9,0.0,0.0,11,48.0,30.0,9,0.451,1.0,199.37400000000002,0.19,1,2020-05-14 17:06:16.000,13,2020-05-14 17:09:33.705,0.25,-90,-150,-150,-90,1
13,0,219.415,0,0,1,0.25,2,9,0.0,0.0,11,48.0,30.0,9,0.551,1.0,221.827,0.19,1,2020-05-14 17:06:16.000,13,2020-05-14 17:09:55.415,0.25,-90,-150,-150,-90,1
14,0,243.736,1,0,1,0.25,2,9,0.0,0.0,11,48.0,30.0,9,0.526,1.0,249.94799999999998,0.19,1,2020-05-14 17:06:16.000,13,2020-05-14 17:10:19.736,0.25,-90,-150,-150,-90,1
15,0,279.593,0,0,1,0.25,2,3,0.0,0.0,5,48.0,30.0,3,0.47600000000000003,0.0,0.0,0.12,1,2020-05-14 17:06:16.000,13,2020-05-14 17:10:55.593,0.25,90,30,30,90,1
16,0,292.697,0,0,1,0.25,2,3,0.0,0.0,5,48.0,30.0,3,0.451,0.0,0.0,0.12,1,2020-05-14 17:06:16.000,13,2020-05-14 17:11:08.697,0.25,90,30,30,90,1
17,0,302.434,0,0,1,0.25,2,3,0.0,0.0,5,48.0,30.0,3,0.501,0.0,0.0,0.12,1,2020-05-14 17:06:16.000,13,2020-05-14 17:11:18.434,0.25,90,30,30,90,1
18,0,309.774,0,0,1,0.25,2,3,0.0,0.0,5,48.0,30.0,3,0.526,1.0,311.664,0.0,0,2020-05-14 17:06:16.000,13,2020-05-14 17:11:25.774,0.25,-90,30,30,-90,1
20,0,322.345,0,0,1,0.25,2,9,0.0,0.0,11,48.0,30.0,9,0.551,1.0,324.291,0.19,1,2020-05-14 17:06:16.000,13,2020-05-14 17:11:38.345,0.25,-90,-150,-150,-90,1
21,0,345.744,0,0,1,0.25,2,9,0.0,0.0,11,48.0,30.0,9,0.501,1.0,348.034,0.19,1,2020-05-14 17:06:16.000,13,2020-05-14 17:12:01.744,0.25,-90,-150,-150,-90,1
22,0,375.62,0,0,1,0.25,2,9,0.0,0.0,11,48.0,30.0,9,0.47600000000000003,0.0,0.0,0.0,0,2020-05-14 17:06:16.000,13,2020-05-14 17:12:31.620,0.25,90,-150,-150,90,1
24,0,403.936,0,0,1,0.25,2,3,0.0,0.0,5,48.0,30.0,3,0.451,0.0,0.0,0.12,1,2020-05-14 17:06:16.000,13,2020-05-14 17:12:59.936,0.25,90,30,30,90,1
25,0,412.329,0,0,1,0.25,2,9,0.0,0.0,11,48.0,30.0,9,0.47600000000000003,0.0,0.0,0.0,0,2020-05-14 17:06:16.000,13,2020-05-14 17:13:08.329,0.25,90,-150,-150,90,1
28,0,446.74699999999996,0,0,1,0.25,2,9,0.0,0.0,11,48.0,30.0,9,0.451,1.0,449.12699999999995,0.19,1,2020-05-14 17:06:16.000,13,2020-05-14 17:13:42.747,0.25,-90,-150,-150,-90,1
29,0,470.126,0,0,1,0.25,2,3,0.0,0.0,5,48.0,30.0,3,0.526,1.0,472.61400000000003,0.0,0,2020-05-14 17:06:16.000,13,2020-05-14 17:14:06.126,0.25,-90,30,30,-90,1
31,0,505.61,1,0,1,0.25,2,9,0.0,0.0,11,48.0,30.0,9,0.501,0.0,0.0,0.0,0,2020-05-14 17:06:16.000,13,2020-05-14 17:14:41.610,0.25,90,-150,-150,90,1
33,0,535.543,0,0,1,0.25,2,3,0.0,0.0,5,48.0,30.0,3,0.551,0.0,0.0,0.12,1,2020-05-14 17:06:16.000,13,2020-05-14 17:15:11.543,0.25,90,30,30,90,1
34,0,560.237,0,0,1,0.25,2,9,0.0,0.0,11,48.0,30.0,9,0.551,1.0,562.86,0.19,1,2020-05-14 17:06:16.000,13,2020-05-14 17:15:36.237,0.25,-90,-150,-150,-90,1
35,0,575.288,0,0,1,0.25,2,9,0.0,0.0,11,48.0,30.0,9,0.526,1.0,577.41,0.19,1,2020-05-14 17:06:16.000,13,2020-05-14 17:15:51.288,0.25,-90,-150,-150,-90,1
36,0,596.7080000000001,0,0,1,0.25,2,3,0.0,0.0,5,48.0,30.0,3,0.451,0.0,0.0,0.12,1,2020-05-14 17:06:16.000,13,2020-05-14 17:16:12.708,0.25,90,30,30,90,1
37,0,603.531,0,0,1,0.25,2,3,0.0,0.0,5,48.0,30.0,3,0.47600000000000003,0.0,0.0,0.12,1,2020-05-14 17:06:16.000,13,2020-05-14 17:16:19.531,0.25,90,30,30,90,1
38,0,611.669,0,0,1,0.25,2,3,0.0,0.0,5,48.0,30.0,3,0.501,0.0,0.0,0.12,1,2020-05-14 17:06:16.000,13,2020-05-14 17:16:27.669,0.25,90,30,30,90,1
39,0,620.0980000000001,1,0,1,0.25,2,3,0.0,0.0,5,48.0,30.0,3,0.451,0.0,0.0,0.12,1,2020-05-14 17:06:16.000,13,2020-05-14 17:16:36.098,0.25,90,30,30,90,1
40,0,648.846,0,0,1,0.25,2,3,0.0,0.0,5,48.0,30.0,3,0.551,0.0,0.0,0.12,1,2020-05-14 17:06:16.000,13,2020-05-14 17:17:04.846,0.25,90,30,30,90,1
41,0,703.52,1,0,1,0.25,2,9,0.0,0.0,11,48.0,30.0,9,0.47600000000000003,0.0,0.0,0.0,0,2020-05-14 17:06:16.000,13,2020-05-14 17:17:59.520,0.25,90,-150,-150,90,1
43,0,740.812,0,0,1,0.25,2,3,0.0,0.0,5,48.0,30.0,3,0.501,0.0,0.0,0.12,1,2020-05-14 17:06:16.000,13,2020-05-14 17:18:36.812,0.25,90,30,30,90,1
44,0,838.0039999999999,0,0,1,0.25,2,9,0.0,0.0,11,48.0,30.0,9,0.526,1.0,840.855,0.19,1,2020-05-14 17:06:16.000,13,2020-05-14 17:20:14.004,0.25,-90,-150,-150,-90,1
45,0,858.788,0,0,1,0.25,2,3,0.0,0.0,5,48.0,30.0,3,0.551,0.0,0.0,0.12,1,2020-05-14 17:06:16.000,13,2020-05-14 17:20:34.788,0.25,90,30,30,90,1
