,Trial,CorrectionTrial,StartTime,CenterReward,CenterSpoutRotation,nStimReps,Duration,Modality,LED Location,LED_trial_V,LED_bgnd_V,Speaker Location,Speaker_trial_V,Speaker_bgnd_V,TargetSpout,HoldTime,Response,RespTime,ValveTime,Correct,SessionDate,SessionID,StartDateTime,StimulusTotalDuration,response_angle_world,speaker_angle_world,speaker_angle_platform,response_angle_platform,not_probe
72,62,0,1641.92,0,90,1,0.15,2,3,0.0,1.0,12,40.0,30.0,3,0.861,0.0,1644.379,0.2,1,2018-02-13 14:54:23.000,158,2018-02-13 15:21:44.920,0.15,90,-180,90,0,1
73,63,0,1666.006,0,90,1,0.15,2,9,0.0,1.0,6,40.0,30.0,9,0.601,1.0,1672.34,0.2,1,2018-02-13 14:54:23.000,158,2018-02-13 15:22:09.006,0.15,-90,0,-90,-180,1
74,64,0,1716.0220000000004,1,90,1,0.15,2,3,0.0,1.0,12,40.0,30.0,3,0.991,0.0,1725.454,0.2,1,2018-02-13 14:54:23.000,158,2018-02-13 15:22:59.022,0.15,90,-180,90,0,1
75,65,0,1739.804,0,90,1,0.15,2,9,0.0,1.0,6,40.0,30.0,9,0.731,0.0,1742.394,0.0,0,2018-02-13 14:54:23.000,158,2018-02-13 15:23:22.804,0.15,90,0,-90,0,1
76,67,0,1767.591,1,90,1,0.15,2,3,0.0,1.0,12,40.0,30.0,3,0.861,0.0,1770.332,0.2,1,2018-02-13 14:54:23.000,158,2018-02-13 15:23:50.591,0.15,90,-180,90,0,1
77,68,0,1802.603,0,90,1,0.15,2,9,0.0,1.0,6,40.0,30.0,9,0.991,0.0,1806.331,0.0,0,2018-02-13 14:54:23.000,158,2018-02-13 15:24:25.603,0.15,90,0,-90,0,1
78,73,0,1882.026,0,90,1,0.15,2,3,0.0,1.0,12,40.0,30.0,3,1.121,0.0,1886.867,0.2,1,2018-02-13 14:54:23.000,158,2018-02-13 15:25:45.026,0.15,90,-180,90,0,1
79,74,0,1899.229,0,90,1,0.15,2,9,0.0,1.0,6,40.0,30.0,9,0.601,0.0,1906.03,0.0,0,2018-02-13 14:54:23.000,158,2018-02-13 15:26:02.229,0.15,90,0,-90,0,1
80,76,0,1928.144,0,90,1,0.15,2,9,0.0,1.0,6,40.0,30.0,9,0.731,1.0,1930.173,0.2,1,2018-02-13 14:54:23.000,158,2018-02-13 15:26:31.144,0.15,-90,0,-90,-180,1
81,77,0,1957.108,0,90,1,0.15,2,9,0.0,1.0,6,40.0,30.0,9,0.601,0.0,1960.524,0.0,0,2018-02-13 14:54:23.000,158,2018-02-13 15:27:00.108,0.15,90,0,-90,0,1
129,73,0,1592.644,0,-30,1,0.15,2,3,0.0,1.0,12,40.0,30.0,3,1.121,0.0,1594.0179999999998,0.2,1,2018-02-16 15:00:36.000,17,2018-02-16 15:27:08.644,0.15,90,-180,-150,120,1
130,74,0,1617.401,0,-30,1,0.15,2,9,0.0,1.0,6,40.0,30.0,9,0.861,1.0,1620.066,0.2,1,2018-02-16 15:00:36.000,17,2018-02-16 15:27:33.401,0.15,-90,0,30,-60,1
131,75,0,1633.432,0,-30,1,0.15,2,9,0.0,1.0,6,40.0,30.0,9,0.991,0.0,1635.114,0.0,0,2018-02-16 15:00:36.000,17,2018-02-16 15:27:49.432,0.15,90,0,30,120,1
132,77,0,1669.067,0,-30,1,0.15,2,3,0.0,1.0,12,40.0,30.0,3,0.861,0.0,1670.614,0.2,1,2018-02-16 15:00:36.000,17,2018-02-16 15:28:25.067,0.15,90,-180,-150,120,1
133,78,0,1686.7910000000004,0,-30,1,0.15,2,3,0.0,1.0,12,40.0,30.0,3,0.991,0.0,1687.8270000000002,0.2,1,2018-02-16 15:00:36.000,17,2018-02-16 15:28:42.791,0.15,90,-180,-150,120,1
134,79,0,1746.781,0,-30,1,0.15,2,3,0.0,1.0,12,40.0,30.0,3,1.121,0.0,1748.126,0.2,1,2018-02-16 15:00:36.000,17,2018-02-16 15:29:42.781,0.15,90,-180,-150,120,1
135,80,0,1764.014,0,-30,1,0.15,2,3,0.0,1.0,12,40.0,30.0,3,0.601,0.0,1765.856,0.2,1,2018-02-16 15:00:36.000,17,2018-02-16 15:30:00.014,0.15,90,-180,-150,120,1
136,81,0,1787.081,0,-30,1,0.15,2,3,0.0,1.0,12,40.0,30.0,3,1.121,0.0,1788.507,0.2,1,2018-02-16 15:00:36.000,17,2018-02-16 15:30:23.081,0.15,90,-180,-150,120,1
137,82,0,1806.638,0,-30,1,0.15,2,9,0.0,1.0,6,40.0,30.0,9,0.731,1.0,1809.265,0.2,1,2018-02-16 15:00:36.000,17,2018-02-16 15:30:42.638,0.15,-90,0,30,-60,1
138,83,0,1847.148,0,-30,1,0.15,2,3,0.0,1.0,12,40.0,30.0,3,0.991,1.0,1849.098,0.0,0,2018-02-16 15:00:36.000,17,2018-02-16 15:31:23.148,0.15,-90,-180,-150,-60,1
174,51,0,1460.31,0,-120,1,0.15,2,3,0.0,1.0,12,40.0,30.0,3,0.861,0.0,1463.239,0.2,1,2018-02-21 15:42:41.000,137,2018-02-21 16:07:01.310,0.15,90,-180,-60,-150,1
175,52,0,1484.392,0,-120,1,0.15,2,3,0.0,1.0,12,40.0,30.0,3,1.121,0.0,1487.198,0.2,1,2018-02-21 15:42:41.000,137,2018-02-21 16:07:25.392,0.15,90,-180,-60,-150,1
176,53,0,1507.292,1,-120,1,0.15,2,3,0.0,1.0,12,40.0,30.0,3,0.991,0.0,1510.562,0.2,1,2018-02-21 15:42:41.000,137,2018-02-21 16:07:48.292,0.15,90,-180,-60,-150,1
177,54,0,1541.047,0,-120,1,0.15,2,9,0.0,1.0,6,40.0,30.0,9,0.731,1.0,1542.946,0.2,1,2018-02-21 15:42:41.000,137,2018-02-21 16:08:22.047,0.15,-90,0,120,30,1
178,55,0,1555.2120000000002,0,-120,1,0.15,2,3,0.0,1.0,12,40.0,30.0,3,0.601,0.0,1557.186,0.2,1,2018-02-21 15:42:41.000,137,2018-02-21 16:08:36.212,0.15,90,-180,-60,-150,1
179,56,0,1574.741,0,-120,1,0.15,2,3,0.0,1.0,12,40.0,30.0,3,0.601,0.0,1577.868,0.2,1,2018-02-21 15:42:41.000,137,2018-02-21 16:08:55.741,0.15,90,-180,-60,-150,1
180,57,0,1618.53,0,-120,1,0.15,2,3,0.0,1.0,12,40.0,30.0,3,0.861,1.0,1620.928,0.0,0,2018-02-21 15:42:41.000,137,2018-02-21 16:09:39.530,0.15,-90,-180,-60,30,1
181,59,0,1643.687,0,-120,1,0.15,2,9,0.0,1.0,6,40.0,30.0,9,0.991,1.0,1650.578,0.2,1,2018-02-21 15:42:41.000,137,2018-02-21 16:10:04.687,0.15,-90,0,120,30,1
182,60,0,1690.69,1,-120,1,0.15,2,9,0.0,1.0,6,40.0,30.0,9,1.121,1.0,1692.51,0.2,1,2018-02-21 15:42:41.000,137,2018-02-21 16:10:51.690,0.15,-90,0,120,30,1
183,61,0,1709.175,1,-120,1,0.15,2,3,0.0,1.0,12,40.0,30.0,3,0.731,1.0,1715.668,0.0,0,2018-02-21 15:42:41.000,137,2018-02-21 16:11:10.175,0.15,-90,-180,-60,30,1
219,55,0,1587.6129999999996,0,-150,1,0.15,2,3,0.0,1.0,12,40.0,30.0,3,0.861,0.0,1589.713,0.2,1,2018-02-22 08:57:56.000,73,2018-02-22 09:24:23.613,0.15,90,-180,-30,-120,1
220,56,0,1602.098,0,-150,1,0.15,2,9,0.0,1.0,6,40.0,30.0,9,0.991,0.0,1605.1029999999996,0.0,0,2018-02-22 08:57:56.000,73,2018-02-22 09:24:38.098,0.15,90,0,150,-120,1
221,58,0,1641.622,0,-150,1,0.15,2,9,0.0,1.0,6,40.0,30.0,9,0.861,1.0,1643.787,0.2,1,2018-02-22 08:57:56.000,73,2018-02-22 09:25:17.622,0.15,-90,0,150,60,1
222,59,0,1671.511,0,-150,1,0.15,2,9,0.0,1.0,6,40.0,30.0,9,1.121,0.0,1674.207,0.0,0,2018-02-22 08:57:56.000,73,2018-02-22 09:25:47.511,0.15,90,0,150,-120,1
223,61,0,1693.382,0,-150,1,0.15,2,9,0.0,1.0,6,40.0,30.0,9,0.601,1.0,1694.8370000000002,0.2,1,2018-02-22 08:57:56.000,73,2018-02-22 09:26:09.382,0.15,-90,0,150,60,1
224,62,0,1736.902,0,-150,1,0.15,2,3,0.0,1.0,12,40.0,30.0,3,0.991,0.0,1739.215,0.2,1,2018-02-22 08:57:56.000,73,2018-02-22 09:26:52.902,0.15,90,-180,-30,-120,1
225,63,0,1751.109,0,-150,1,0.15,2,9,0.0,1.0,6,40.0,30.0,9,1.121,0.0,1752.497,0.0,0,2018-02-22 08:57:56.000,73,2018-02-22 09:27:07.109,0.15,90,0,150,-120,1
226,68,0,1816.808,0,-150,1,0.15,2,3,0.0,1.0,12,40.0,30.0,3,1.121,1.0,1821.227,0.0,0,2018-02-22 08:57:56.000,73,2018-02-22 09:28:12.808,0.15,-90,-180,-30,60,1
227,70,0,1861.928,0,-150,1,0.15,2,9,0.0,1.0,6,40.0,30.0,9,0.861,1.0,1864.262,0.2,1,2018-02-22 08:57:56.000,73,2018-02-22 09:28:57.928,0.15,-90,0,150,60,1
228,71,0,1872.666,0,-150,1,0.15,2,9,0.0,1.0,6,40.0,30.0,9,0.731,0.0,1874.374,0.0,0,2018-02-22 08:57:56.000,73,2018-02-22 09:29:08.666,0.15,90,0,150,-120,1
234,7,0,168.41299999999995,0,0,1,0.15,2,3,0.0,1.0,12,40.0,30.0,3,0.991,1.0,171.482,0.0,0,2018-03-05 08:27:55.000,60,2018-03-05 08:30:43.413,0.15,-90,-180,-180,-90,1
235,12,0,413.223,0,0,1,0.15,2,3,0.0,1.0,12,40.0,30.0,3,0.861,0.0,414.717,0.2,1,2018-03-05 08:27:55.000,60,2018-03-05 08:34:48.223,0.15,90,-180,-180,90,1
236,13,0,433.43300000000005,0,0,1,0.15,2,9,0.0,1.0,6,40.0,30.0,9,0.601,1.0,435.437,0.2,1,2018-03-05 08:27:55.000,60,2018-03-05 08:35:08.433,0.15,-90,0,0,-90,1
237,14,0,449.335,0,0,1,0.15,2,9,0.0,1.0,6,40.0,30.0,9,0.731,1.0,451.198,0.2,1,2018-03-05 08:27:55.000,60,2018-03-05 08:35:24.335,0.15,-90,0,0,-90,1
238,15,0,465.615,0,0,1,0.15,2,9,0.0,1.0,6,40.0,30.0,9,0.991,1.0,466.97,0.2,1,2018-03-05 08:27:55.000,60,2018-03-05 08:35:40.615,0.15,-90,0,0,-90,1
239,16,0,487.215,0,0,1,0.15,2,3,0.0,1.0,12,40.0,30.0,3,0.861,0.0,489.067,0.2,1,2018-03-05 08:27:55.000,60,2018-03-05 08:36:02.215,0.15,90,-180,-180,90,1
240,17,0,522.456,0,0,1,0.15,2,3,0.0,1.0,12,40.0,30.0,3,0.601,0.0,523.881,0.2,1,2018-03-05 08:27:55.000,60,2018-03-05 08:36:37.456,0.15,90,-180,-180,90,1
241,18,0,547.955,0,0,1,0.15,2,3,0.0,1.0,12,40.0,30.0,3,0.731,1.0,550.827,0.0,0,2018-03-05 08:27:55.000,60,2018-03-05 08:37:02.955,0.15,-90,-180,-180,-90,1
242,21,0,591.5980000000002,0,0,1,0.15,2,3,0.0,1.0,12,40.0,30.0,3,0.601,0.0,593.28,0.2,1,2018-03-05 08:27:55.000,60,2018-03-05 08:37:46.598,0.15,90,-180,-180,90,1
243,22,0,610.2,0,0,1,0.15,2,3,0.0,1.0,12,40.0,30.0,3,0.861,1.0,612.22,0.0,0,2018-03-05 08:27:55.000,60,2018-03-05 08:38:05.200,0.15,-90,-180,-180,-90,1
472,89,0,2225.772,0,30,1,0.15,2,3,0.0,1.0,12,40.0,30.0,3,0.861,0.0,2227.298,0.18,1,2018-03-09 15:12:13.000,196,2018-03-09 15:49:18.772,0.15,90,-180,150,60,1
473,90,0,2285.97,0,30,1,0.15,2,9,0.0,1.0,6,40.0,30.0,9,1.121,0.0,2299.313,0.0,0,2018-03-09 15:12:13.000,196,2018-03-09 15:50:18.970,0.15,90,0,-30,60,1
474,92,0,2350.969,0,30,1,0.15,2,9,0.0,1.0,6,40.0,30.0,9,0.731,1.0,2352.364,0.22,1,2018-03-09 15:12:13.000,196,2018-03-09 15:51:23.969,0.15,-90,0,-30,-120,1
475,93,0,2379.278,0,30,1,0.15,2,9,0.0,1.0,6,40.0,30.0,9,0.861,0.0,2380.742,0.0,0,2018-03-09 15:12:13.000,196,2018-03-09 15:51:52.278,0.15,90,0,-30,60,1
476,95,0,2426.698,0,30,1,0.15,2,3,0.0,1.0,12,40.0,30.0,3,0.601,0.0,2428.078,0.18,1,2018-03-09 15:12:13.000,196,2018-03-09 15:52:39.698,0.15,90,-180,150,60,1
477,96,0,2434.768,0,30,1,0.15,2,9,0.0,1.0,6,40.0,30.0,9,0.601,1.0,2436.229,0.22,1,2018-03-09 15:12:13.000,196,2018-03-09 15:52:47.768,0.15,-90,0,-30,-120,1
478,97,0,2452.07,0,30,1,0.15,2,9,0.0,1.0,6,40.0,30.0,9,1.121,1.0,2453.273,0.22,1,2018-03-09 15:12:13.000,196,2018-03-09 15:53:05.070,0.15,-90,0,-30,-120,1
479,98,0,2484.455,0,30,1,0.15,2,3,0.0,1.0,12,40.0,30.0,3,0.991,0.0,2485.637,0.18,1,2018-03-09 15:12:13.000,196,2018-03-09 15:53:37.455,0.15,90,-180,150,60,1
480,99,0,2497.034,0,30,1,0.15,2,3,0.0,1.0,12,40.0,30.0,3,0.731,0.0,2498.105,0.18,1,2018-03-09 15:12:13.000,196,2018-03-09 15:53:50.034,0.15,90,-180,150,60,1
481,100,0,2515.277,0,30,1,0.15,2,3,0.0,1.0,12,40.0,30.0,3,0.861,1.0,2516.467,0.0,0,2018-03-09 15:12:13.000,196,2018-03-09 15:54:08.277,0.15,-90,-180,150,-120,1
499,23,0,868.544,1,0,1,0.15,2,3,0.0,1.0,12,40.0,30.0,3,0.601,0.0,877.5989999999998,0.2,1,2018-03-12 09:07:36.000,110,2018-03-12 09:22:04.544,0.15,90,-180,-180,90,1
500,24,0,899.5319999999998,0,0,1,0.15,2,9,0.0,1.0,6,40.0,30.0,9,0.861,1.0,904.571,0.2,1,2018-03-12 09:07:36.000,110,2018-03-12 09:22:35.532,0.15,-90,0,0,-90,1
501,25,0,917.19,1,0,1,0.15,2,3,0.0,1.0,12,40.0,30.0,3,0.991,0.0,919.512,0.2,1,2018-03-12 09:07:36.000,110,2018-03-12 09:22:53.190,0.15,90,-180,-180,90,1
502,26,0,941.389,0,0,1,0.15,2,3,0.0,1.0,12,40.0,30.0,3,0.861,0.0,942.675,0.2,1,2018-03-12 09:07:36.000,110,2018-03-12 09:23:17.389,0.15,90,-180,-180,90,1
503,27,0,966.638,0,0,1,0.15,2,9,0.0,1.0,6,40.0,30.0,9,0.601,1.0,969.606,0.2,1,2018-03-12 09:07:36.000,110,2018-03-12 09:23:42.638,0.15,-90,0,0,-90,1
504,28,0,1008.014,0,0,1,0.15,2,9,0.0,1.0,6,40.0,30.0,9,1.121,1.0,1009.692,0.2,1,2018-03-12 09:07:36.000,110,2018-03-12 09:24:24.014,0.15,-90,0,0,-90,1
505,29,0,1028.866,0,0,1,0.15,2,9,0.0,1.0,6,40.0,30.0,9,0.731,1.0,1030.531,0.2,1,2018-03-12 09:07:36.000,110,2018-03-12 09:24:44.866,0.15,-90,0,0,-90,1
506,30,0,1045.194,0,0,1,0.15,2,3,0.0,1.0,12,40.0,30.0,3,0.991,1.0,1048.536,0.0,0,2018-03-12 09:07:36.000,110,2018-03-12 09:25:01.194,0.15,-90,-180,-180,-90,1
507,32,0,1079.867,0,0,1,0.15,2,9,0.0,1.0,6,40.0,30.0,9,1.121,1.0,1081.934,0.2,1,2018-03-12 09:07:36.000,110,2018-03-12 09:25:35.867,0.15,-90,0,0,-90,1
508,33,0,1123.674,0,0,1,0.15,2,3,0.0,1.0,12,40.0,30.0,3,0.861,0.0,1125.095,0.2,1,2018-03-12 09:07:36.000,110,2018-03-12 09:26:19.674,0.15,90,-180,-180,90,1
547,61,0,1688.9029999999998,0,-60,1,0.15,2,3,0.0,1.0,12,40.0,30.0,3,0.861,0.0,1690.399,0.22,1,2018-03-12 14:16:26.000,199,2018-03-12 14:44:34.903,0.15,90,-180,-120,150,1
548,62,0,1724.553,0,-60,1,0.15,2,9,0.0,1.0,6,40.0,30.0,9,0.731,1.0,1726.39,0.18,1,2018-03-12 14:16:26.000,199,2018-03-12 14:45:10.553,0.15,-90,0,60,-30,1
549,63,0,1744.138,0,-60,1,0.15,2,9,0.0,1.0,6,40.0,30.0,9,0.601,0.0,1745.6,0.0,0,2018-03-12 14:16:26.000,199,2018-03-12 14:45:30.138,0.15,90,0,60,150,1
550,66,0,1836.441,0,-60,1,0.15,2,3,0.0,1.0,12,40.0,30.0,3,0.991,0.0,1843.116,0.22,1,2018-03-12 14:16:26.000,199,2018-03-12 14:47:02.441,0.15,90,-180,-120,150,1
551,67,0,1853.999,0,-60,1,0.15,2,3,0.0,1.0,12,40.0,30.0,3,0.731,0.0,1855.517,0.22,1,2018-03-12 14:16:26.000,199,2018-03-12 14:47:19.999,0.15,90,-180,-120,150,1
552,68,0,1884.983,0,-60,1,0.15,2,3,0.0,1.0,12,40.0,30.0,3,0.601,0.0,1887.11,0.22,1,2018-03-12 14:16:26.000,199,2018-03-12 14:47:50.983,0.15,90,-180,-120,150,1
553,69,0,1897.416,0,-60,1,0.15,2,3,0.0,1.0,12,40.0,30.0,3,0.861,1.0,1901.111,0.0,0,2018-03-12 14:16:26.000,199,2018-03-12 14:48:03.416,0.15,-90,-180,-120,-30,1
554,71,0,1932.993,0,-60,1,0.15,2,3,0.0,1.0,12,40.0,30.0,3,1.121,0.0,1938.017,0.22,1,2018-03-12 14:16:26.000,199,2018-03-12 14:48:38.993,0.15,90,-180,-120,150,1
555,72,0,1955.426,0,-60,1,0.15,2,9,0.0,1.0,6,40.0,30.0,9,0.991,1.0,1956.975,0.18,1,2018-03-12 14:16:26.000,199,2018-03-12 14:49:01.426,0.15,-90,0,60,-30,1
556,73,0,1967.207,0,-60,1,0.15,2,9,0.0,1.0,6,40.0,30.0,9,0.601,0.0,1975.602,0.0,0,2018-03-12 14:16:26.000,199,2018-03-12 14:49:13.207,0.15,90,0,60,150,1
583,43,0,1040.304,0,0,1,0.15,2,3,0.0,1.0,12,40.0,30.0,3,1.121,1.0,1044.189,0.0,0,2018-03-13 09:26:07.000,172,2018-03-13 09:43:27.304,0.15,-90,-180,-180,-90,1
584,45,0,1077.078,0,0,1,0.15,2,3,0.0,1.0,12,40.0,30.0,3,0.731,1.0,1080.134,0.0,0,2018-03-13 09:26:07.000,172,2018-03-13 09:44:04.078,0.15,-90,-180,-180,-90,1
585,47,0,1123.258,0,0,1,0.15,2,9,0.0,1.0,6,40.0,30.0,9,0.731,1.0,1125.83,0.2,1,2018-03-13 09:26:07.000,172,2018-03-13 09:44:50.258,0.15,-90,0,0,-90,1
586,48,0,1164.526,0,0,1,0.15,2,3,0.0,1.0,12,40.0,30.0,3,0.601,1.0,1166.352,0.0,0,2018-03-13 09:26:07.000,172,2018-03-13 09:45:31.526,0.15,-90,-180,-180,-90,1
587,51,0,1206.832,0,0,1,0.15,2,9,0.0,1.0,6,40.0,30.0,9,0.731,0.0,1208.417,0.0,0,2018-03-13 09:26:07.000,172,2018-03-13 09:46:13.832,0.15,90,0,0,90,1
588,53,0,1230.733,0,0,1,0.15,2,3,0.0,1.0,12,40.0,30.0,3,0.861,0.0,1232.553,0.2,1,2018-03-13 09:26:07.000,172,2018-03-13 09:46:37.733,0.15,90,-180,-180,90,1
589,54,0,1251.889,0,0,1,0.15,2,9,0.0,1.0,6,40.0,30.0,9,0.601,1.0,1253.622,0.2,1,2018-03-13 09:26:07.000,172,2018-03-13 09:46:58.889,0.15,-90,0,0,-90,1
590,55,0,1270.055,0,0,1,0.15,2,3,0.0,1.0,12,40.0,30.0,3,1.121,0.0,1271.532,0.2,1,2018-03-13 09:26:07.000,172,2018-03-13 09:47:17.055,0.15,90,-180,-180,90,1
591,56,0,1298.178,0,0,1,0.15,2,3,0.0,1.0,12,40.0,30.0,3,0.991,1.0,1299.945,0.0,0,2018-03-13 09:26:07.000,172,2018-03-13 09:47:45.178,0.15,-90,-180,-180,-90,1
592,58,0,1369.414,0,0,1,0.15,2,9,0.0,1.0,6,40.0,30.0,9,1.121,1.0,1370.849,0.2,1,2018-03-13 09:26:07.000,172,2018-03-13 09:48:56.414,0.15,-90,0,0,-90,1
838,69,0,1816.4,0,0,1,0.15,2,3,0.0,1.0,12,40.0,30.0,3,0.826,0.0,1817.548,0.2,1,2018-03-27 13:43:15.000,2,2018-03-27 14:13:31.400,0.15,90,-180,-180,90,1
839,70,0,1829.406,0,0,1,0.15,2,9,0.0,1.0,6,40.0,30.0,9,0.901,0.0,1830.612,0.0,0,2018-03-27 13:43:15.000,2,2018-03-27 14:13:44.406,0.15,90,0,0,90,1
840,73,0,1865.39,0,0,1,0.15,2,3,0.0,1.0,12,40.0,30.0,3,0.6759999999999999,0.0,1866.841,0.2,1,2018-03-27 13:43:15.000,2,2018-03-27 14:14:20.390,0.15,90,-180,-180,90,1
841,74,0,1873.668,0,0,1,0.15,2,3,0.0,1.0,12,40.0,30.0,3,0.601,0.0,1874.815,0.2,1,2018-03-27 13:43:15.000,2,2018-03-27 14:14:28.668,0.15,90,-180,-180,90,1
842,75,0,1906.785,0,0,1,0.15,2,9,0.0,1.0,6,40.0,30.0,9,0.901,1.0,1908.548,0.2,1,2018-03-27 13:43:15.000,2,2018-03-27 14:15:01.785,0.15,-90,0,0,-90,1
843,76,0,1939.62,0,0,1,0.15,2,3,0.0,1.0,12,40.0,30.0,3,0.901,0.0,1940.718,0.2,1,2018-03-27 13:43:15.000,2,2018-03-27 14:15:34.620,0.15,90,-180,-180,90,1
844,77,0,1949.194,0,0,1,0.15,2,3,0.0,1.0,12,40.0,30.0,3,0.7509999999999999,1.0,1951.067,0.0,0,2018-03-27 13:43:15.000,2,2018-03-27 14:15:44.194,0.15,-90,-180,-180,-90,1
845,79,0,1979.528,0,0,1,0.15,2,9,0.0,1.0,6,40.0,30.0,9,0.6759999999999999,1.0,1980.94,0.2,1,2018-03-27 13:43:15.000,2,2018-03-27 14:16:14.528,0.15,-90,0,0,-90,1
846,80,0,1988.939,0,0,1,0.15,2,3,0.0,1.0,12,40.0,30.0,3,0.601,0.0,1990.421,0.2,1,2018-03-27 13:43:15.000,2,2018-03-27 14:16:23.939,0.15,90,-180,-180,90,1
847,81,0,2028.052,0,0,1,0.15,2,9,0.0,1.0,6,40.0,30.0,9,0.901,1.0,2029.617,0.2,1,2018-03-27 13:43:15.000,2,2018-03-27 14:17:03.052,0.15,-90,0,0,-90,1
871,40,0,1007.266,0,180,1,0.15,2,9,0.0,1.0,6,40.0,30.0,9,0.7509999999999999,1.0,1008.29,0.2,1,2018-03-28 08:50:47.000,58,2018-03-28 09:07:34.266,0.15,-90,0,-180,90,1
872,41,0,1028.0510000000004,0,180,1,0.15,2,9,0.0,1.0,6,40.0,30.0,9,0.826,0.0,1030.009,0.0,0,2018-03-28 08:50:47.000,58,2018-03-28 09:07:55.051,0.15,90,0,-180,-90,1
873,43,0,1053.825,0,180,1,0.15,2,9,0.0,1.0,6,40.0,30.0,9,0.601,1.0,1055.0839999999996,0.2,1,2018-03-28 08:50:47.000,58,2018-03-28 09:08:20.825,0.15,-90,0,-180,90,1
874,44,0,1067.534,0,180,1,0.15,2,3,0.0,1.0,12,40.0,30.0,3,0.7509999999999999,0.0,1069.674,0.2,1,2018-03-28 08:50:47.000,58,2018-03-28 09:08:34.534,0.15,90,-180,0,-90,1
875,45,0,1143.753,0,180,1,0.15,2,9,0.0,1.0,6,40.0,30.0,9,0.901,1.0,1145.029,0.2,1,2018-03-28 08:50:47.000,58,2018-03-28 09:09:50.753,0.15,-90,0,-180,90,1
876,46,0,1160.474,0,180,1,0.15,2,3,0.0,1.0,12,40.0,30.0,3,0.7509999999999999,0.0,1162.347,0.2,1,2018-03-28 08:50:47.000,58,2018-03-28 09:10:07.474,0.15,90,-180,0,-90,1
877,47,0,1184.377,0,180,1,0.15,2,3,0.0,1.0,12,40.0,30.0,3,0.601,1.0,1185.977,0.0,0,2018-03-28 08:50:47.000,58,2018-03-28 09:10:31.377,0.15,-90,-180,0,90,1
878,49,0,1226.244,0,180,1,0.15,2,9,0.0,1.0,6,40.0,30.0,9,0.6759999999999999,1.0,1227.842,0.2,1,2018-03-28 08:50:47.000,58,2018-03-28 09:11:13.244,0.15,-90,0,-180,90,1
879,50,0,1237.833,0,180,1,0.15,2,3,0.0,1.0,12,40.0,30.0,3,0.826,0.0,1241.554,0.2,1,2018-03-28 08:50:47.000,58,2018-03-28 09:11:24.833,0.15,90,-180,0,-90,1
880,51,0,1265.757,0,180,1,0.15,2,3,0.0,1.0,12,40.0,30.0,3,0.601,0.0,1267.157,0.2,1,2018-03-28 08:50:47.000,58,2018-03-28 09:11:52.757,0.15,90,-180,0,-90,1
908,47,0,1129.017,0,0,1,0.25,2,3,0.0,1.0,12,40.0,30.0,3,0.901,0.0,1130.506,0.2,1,2018-03-30 09:07:39.000,99,2018-03-30 09:26:28.017,0.25,90,-180,-180,90,1
909,48,0,1151.309,0,0,1,0.25,2,9,0.0,1.0,6,40.0,30.0,9,0.826,1.0,1153.792,0.2,1,2018-03-30 09:07:39.000,99,2018-03-30 09:26:50.309,0.25,-90,0,0,-90,1
910,49,0,1187.152,0,0,1,0.25,2,9,0.0,1.0,6,40.0,30.0,9,0.7509999999999999,1.0,1188.779,0.2,1,2018-03-30 09:07:39.000,99,2018-03-30 09:27:26.152,0.25,-90,0,0,-90,1
911,50,0,1221.564,0,0,1,0.25,2,9,0.0,1.0,6,40.0,30.0,9,0.601,1.0,1223.118,0.2,1,2018-03-30 09:07:39.000,99,2018-03-30 09:28:00.564,0.25,-90,0,0,-90,1
912,51,0,1235.655,0,0,1,0.25,2,3,0.0,1.0,12,40.0,30.0,3,0.601,1.0,1237.671,0.0,0,2018-03-30 09:07:39.000,99,2018-03-30 09:28:14.655,0.25,-90,-180,-180,-90,1
913,53,0,1252.686,0,0,1,0.25,2,9,0.0,1.0,6,40.0,30.0,9,0.7509999999999999,1.0,1254.463,0.2,1,2018-03-30 09:07:39.000,99,2018-03-30 09:28:31.686,0.25,-90,0,0,-90,1
914,54,0,1277.443,0,0,1,0.25,2,3,0.0,1.0,12,40.0,30.0,3,0.826,0.0,1278.695,0.2,1,2018-03-30 09:07:39.000,99,2018-03-30 09:28:56.443,0.25,90,-180,-180,90,1
915,55,0,1297.92,0,0,1,0.25,2,9,0.0,1.0,6,40.0,30.0,9,0.901,0.0,1299.215,0.0,0,2018-03-30 09:07:39.000,99,2018-03-30 09:29:16.920,0.25,90,0,0,90,1
916,57,0,1323.034,0,0,1,0.25,2,3,0.0,1.0,12,40.0,30.0,3,0.7509999999999999,0.0,1325.155,0.2,1,2018-03-30 09:07:39.000,99,2018-03-30 09:29:42.034,0.25,90,-180,-180,90,1
917,58,0,1367.7620000000004,0,0,1,0.25,2,9,0.0,1.0,6,40.0,30.0,9,0.601,1.0,1369.547,0.2,1,2018-03-30 09:07:39.000,99,2018-03-30 09:30:26.762,0.25,-90,0,0,-90,1
1120,37,0,967.107,0,120,1,0.15,2,3,0.0,1.0,12,40.0,30.0,3,0.601,0.0,969.739,0.2,1,2018-04-05 09:39:37.000,30,2018-04-05 09:55:44.107,0.15,90,-180,60,-30,1
1121,38,0,979.505,0,120,1,0.15,2,9,0.0,1.0,6,40.0,30.0,9,0.701,1.0,983.363,0.2,1,2018-04-05 09:39:37.000,30,2018-04-05 09:55:56.505,0.15,-90,0,-120,150,1
1122,39,0,1006.012,0,120,1,0.15,2,3,0.0,1.0,12,40.0,30.0,3,0.6509999999999999,0.0,1012.081,0.2,1,2018-04-05 09:39:37.000,30,2018-04-05 09:56:23.012,0.15,90,-180,60,-30,1
1123,40,0,1060.567,0,120,1,0.15,2,9,0.0,1.0,6,40.0,30.0,9,0.6759999999999999,1.0,1063.9489999999996,0.2,1,2018-04-05 09:39:37.000,30,2018-04-05 09:57:17.567,0.15,-90,0,-120,150,1
1124,41,0,1085.698,0,120,1,0.15,2,3,0.0,1.0,12,40.0,30.0,3,0.701,0.0,1087.557,0.2,1,2018-04-05 09:39:37.000,30,2018-04-05 09:57:42.698,0.15,90,-180,60,-30,1
1125,42,0,1117.212,0,120,1,0.15,2,3,0.0,1.0,12,40.0,30.0,3,0.626,0.0,1118.891,0.2,1,2018-04-05 09:39:37.000,30,2018-04-05 09:58:14.212,0.15,90,-180,60,-30,1
1126,43,0,1128.438,0,120,1,0.15,2,9,0.0,1.0,6,40.0,30.0,9,0.601,0.0,1130.372,0.0,0,2018-04-05 09:39:37.000,30,2018-04-05 09:58:25.438,0.15,90,0,-120,-30,1
1127,48,0,1225.732,0,120,1,0.15,2,9,0.0,1.0,6,40.0,30.0,9,0.6759999999999999,0.0,1229.111,0.0,0,2018-04-05 09:39:37.000,30,2018-04-05 10:00:02.732,0.15,90,0,-120,-30,1
1128,50,0,1257.746,1,120,1,0.15,2,3,0.0,1.0,12,40.0,30.0,3,0.626,0.0,1259.877,0.2,1,2018-04-05 09:39:37.000,30,2018-04-05 10:00:34.746,0.15,90,-180,60,-30,1
1129,51,0,1271.848,0,120,1,0.15,2,9,0.0,1.0,6,40.0,30.0,9,0.626,1.0,1274.338,0.2,1,2018-04-05 09:39:37.000,30,2018-04-05 10:00:48.848,0.15,-90,0,-120,150,1
1158,47,0,896.67,0,0,1,0.15,2,9,0.0,1.0,6,40.0,30.0,9,0.601,1.0,898.944,0.2,1,2018-04-05 14:51:39.000,91,2018-04-05 15:06:35.670,0.15,-90,0,0,-90,1
1159,48,0,913.156,0,0,1,0.15,2,9,0.0,1.0,6,40.0,30.0,9,0.701,1.0,915.279,0.2,1,2018-04-05 14:51:39.000,91,2018-04-05 15:06:52.156,0.15,-90,0,0,-90,1
1160,49,0,932.808,0,0,1,0.15,2,3,0.0,1.0,12,40.0,30.0,3,0.6759999999999999,1.0,935.052,0.0,0,2018-04-05 14:51:39.000,91,2018-04-05 15:07:11.808,0.15,-90,-180,-180,-90,1
1161,51,0,963.473,0,0,1,0.15,2,9,0.0,1.0,6,40.0,30.0,9,0.6759999999999999,0.0,965.245,0.0,0,2018-04-05 14:51:39.000,91,2018-04-05 15:07:42.473,0.15,90,0,0,90,1
1162,53,0,983.067,0,0,1,0.15,2,3,0.0,1.0,12,40.0,30.0,3,0.601,0.0,986.269,0.2,1,2018-04-05 14:51:39.000,91,2018-04-05 15:08:02.067,0.15,90,-180,-180,90,1
1163,54,0,1028.521,0,0,1,0.15,2,9,0.0,1.0,6,40.0,30.0,9,0.6509999999999999,1.0,1030.345,0.2,1,2018-04-05 14:51:39.000,91,2018-04-05 15:08:47.521,0.15,-90,0,0,-90,1
1164,55,0,1052.889,0,0,1,0.15,2,9,0.0,1.0,6,40.0,30.0,9,0.626,1.0,1054.768,0.2,1,2018-04-05 14:51:39.000,91,2018-04-05 15:09:11.889,0.15,-90,0,0,-90,1
1165,56,0,1069.984,0,0,1,0.15,2,9,0.0,1.0,6,40.0,30.0,9,0.701,1.0,1071.923,0.2,1,2018-04-05 14:51:39.000,91,2018-04-05 15:09:28.984,0.15,-90,0,0,-90,1
1166,57,0,1094.784,0,0,1,0.15,2,3,0.0,1.0,12,40.0,30.0,3,0.601,0.0,1101.061,0.2,1,2018-04-05 14:51:39.000,91,2018-04-05 15:09:53.784,0.15,90,-180,-180,90,1
1167,58,0,1131.299,0,0,1,0.15,2,9,0.0,1.0,6,40.0,30.0,9,0.6759999999999999,1.0,1132.659,0.2,1,2018-04-05 14:51:39.000,91,2018-04-05 15:10:30.299,0.15,-90,0,0,-90,1
1186,27,0,797.7810000000002,0,150,1,0.15,2,3,0.0,1.0,12,40.0,30.0,3,0.601,0.0,800.933,0.2,1,2018-04-06 09:18:13.000,128,2018-04-06 09:31:30.781,0.15,90,-180,30,-60,1
1187,28,0,822.6489999999999,0,150,1,0.15,2,3,0.0,1.0,12,40.0,30.0,3,0.701,0.0,825.815,0.2,1,2018-04-06 09:18:13.000,128,2018-04-06 09:31:55.649,0.15,90,-180,30,-60,1
1188,29,0,851.918,0,150,1,0.15,2,3,0.0,1.0,12,40.0,30.0,3,0.6509999999999999,1.0,853.9110000000002,0.0,0,2018-04-06 09:18:13.000,128,2018-04-06 09:32:24.918,0.15,-90,-180,30,120,1
1189,32,0,995.176,0,150,1,0.15,2,3,0.0,1.0,12,40.0,30.0,3,0.6759999999999999,0.0,996.691,0.2,1,2018-04-06 09:18:13.000,128,2018-04-06 09:34:48.176,0.15,90,-180,30,-60,1
1190,33,0,1017.899,1,150,1,0.15,2,9,0.0,1.0,6,40.0,30.0,9,0.6509999999999999,1.0,1019.591,0.2,1,2018-04-06 09:18:13.000,128,2018-04-06 09:35:10.899,0.15,-90,0,-150,120,1
1191,34,0,1036.71,0,150,1,0.15,2,3,0.0,1.0,12,40.0,30.0,3,0.701,1.0,1038.288,0.0,0,2018-04-06 09:18:13.000,128,2018-04-06 09:35:29.710,0.15,-90,-180,30,120,1
1192,37,0,1125.883,0,150,1,0.15,2,9,0.0,1.0,6,40.0,30.0,9,0.701,0.0,1134.34,0.0,0,2018-04-06 09:18:13.000,128,2018-04-06 09:36:58.883,0.15,90,0,-150,-60,1
1193,39,0,1157.53,0,150,1,0.15,2,3,0.0,1.0,12,40.0,30.0,3,0.6509999999999999,0.0,1160.999,0.2,1,2018-04-06 09:18:13.000,128,2018-04-06 09:37:30.530,0.15,90,-180,30,-60,1
1194,40,0,1181.137,0,150,1,0.15,2,3,0.0,1.0,12,40.0,30.0,3,0.626,0.0,1184.5739999999996,0.2,1,2018-04-06 09:18:13.000,128,2018-04-06 09:37:54.137,0.15,90,-180,30,-60,1
1195,41,0,1193.328,0,150,1,0.15,2,3,0.0,1.0,12,40.0,30.0,3,0.601,1.0,1200.555,0.0,0,2018-04-06 09:18:13.000,128,2018-04-06 09:38:06.328,0.15,-90,-180,30,120,1
1246,33,0,761.448,0,0,1,0.15,2,9,0.0,1.0,6,40.0,30.0,9,0.6759999999999999,0.0,764.3610000000001,0.0,0,2018-04-23 09:39:11.000,107,2018-04-23 09:51:52.448,0.15,90,0,0,90,1
1247,35,0,798.17,0,0,1,0.15,2,3,0.0,1.0,12,40.0,30.0,3,0.601,1.0,799.318,0.0,0,2018-04-23 09:39:11.000,107,2018-04-23 09:52:29.170,0.15,-90,-180,-180,-90,1
1248,38,0,883.5139999999999,0,0,1,0.15,2,9,0.0,1.0,6,40.0,30.0,9,0.6759999999999999,1.0,886.2489999999998,0.2,1,2018-04-23 09:39:11.000,107,2018-04-23 09:53:54.514,0.15,-90,0,0,-90,1
1249,39,0,1001.822,0,0,1,0.15,2,3,0.0,1.0,12,40.0,30.0,3,0.601,0.0,1003.712,0.2,1,2018-04-23 09:39:11.000,107,2018-04-23 09:55:52.822,0.15,90,-180,-180,90,1
1250,40,0,1034.694,0,0,1,0.15,2,9,0.0,1.0,6,40.0,30.0,9,0.626,1.0,1037.624,0.2,1,2018-04-23 09:39:11.000,107,2018-04-23 09:56:25.694,0.15,-90,0,0,-90,1
1251,41,0,1064.8239999999996,0,0,1,0.15,2,9,0.0,1.0,6,40.0,30.0,9,0.6759999999999999,1.0,1066.421,0.2,1,2018-04-23 09:39:11.000,107,2018-04-23 09:56:55.824,0.15,-90,0,0,-90,1
1252,42,0,1082.442,0,0,1,0.15,2,3,0.0,1.0,12,40.0,30.0,3,0.601,0.0,1084.289,0.2,1,2018-04-23 09:39:11.000,107,2018-04-23 09:57:13.442,0.15,90,-180,-180,90,1
1253,43,0,1097.244,1,0,1,0.15,2,3,0.0,1.0,12,40.0,30.0,3,0.6509999999999999,1.0,1102.11,0.0,0,2018-04-23 09:39:11.000,107,2018-04-23 09:57:28.244,0.15,-90,-180,-180,-90,1
1254,45,0,1139.852,0,0,1,0.15,2,3,0.0,1.0,12,40.0,30.0,3,0.701,0.0,1141.075,0.2,1,2018-04-23 09:39:11.000,107,2018-04-23 09:58:10.852,0.15,90,-180,-180,90,1
1255,46,0,1168.352,0,0,1,0.15,2,3,0.0,1.0,12,40.0,30.0,3,0.701,0.0,1170.111,0.2,1,2018-04-23 09:39:11.000,107,2018-04-23 09:58:39.352,0.15,90,-180,-180,90,1
1343,21,0,539.0319999999998,0,-30,1,0.25,2,3,3.0,1.0,12,40.0,30.0,3,0.6509999999999999,1.0,541.086,0.0,0,2018-04-24 08:13:42.000,55,2018-04-24 08:22:41.032,0.25,-90,-180,-150,-60,1
1344,23,0,588.345,0,-30,1,0.25,2,3,3.0,1.0,12,40.0,30.0,3,0.601,0.0,589.65,0.2,1,2018-04-24 08:13:42.000,55,2018-04-24 08:23:30.345,0.25,90,-180,-150,120,1
1345,24,0,605.91,1,-30,1,0.25,2,3,3.0,1.0,12,40.0,30.0,3,0.701,0.0,607.57,0.2,1,2018-04-24 08:13:42.000,55,2018-04-24 08:23:47.910,0.25,90,-180,-150,120,1
1346,25,0,628.2869999999998,1,-30,1,0.25,2,9,3.0,1.0,6,40.0,30.0,9,0.6759999999999999,1.0,631.384,0.2,1,2018-04-24 08:13:42.000,55,2018-04-24 08:24:10.287,0.25,-90,0,30,-60,1
1347,26,0,647.0459999999998,0,-30,1,0.25,2,3,3.0,1.0,12,40.0,30.0,3,0.601,1.0,649.762,0.0,0,2018-04-24 08:13:42.000,55,2018-04-24 08:24:29.046,0.25,-90,-180,-150,-60,1
1348,28,0,714.572,0,-30,1,0.25,2,9,3.0,1.0,6,40.0,30.0,9,0.701,0.0,716.742,0.0,0,2018-04-24 08:13:42.000,55,2018-04-24 08:25:36.572,0.25,90,0,30,120,1
1349,30,0,766.122,1,-30,1,0.25,2,9,3.0,1.0,6,40.0,30.0,9,0.626,0.0,774.184,0.0,0,2018-04-24 08:13:42.000,55,2018-04-24 08:26:28.122,0.25,90,0,30,120,1
1350,32,0,817.96,1,-30,1,0.25,2,9,3.0,1.0,6,40.0,30.0,9,0.6759999999999999,1.0,823.336,0.2,1,2018-04-24 08:13:42.000,55,2018-04-24 08:27:19.960,0.25,-90,0,30,-60,1
1351,33,0,833.705,0,-30,1,0.25,2,3,3.0,1.0,12,40.0,30.0,3,0.601,0.0,836.1619999999998,0.2,1,2018-04-24 08:13:42.000,55,2018-04-24 08:27:35.705,0.25,90,-180,-150,120,1
1352,34,0,841.9839999999998,0,-30,1,0.25,2,9,3.0,1.0,6,40.0,30.0,9,0.626,0.0,843.672,0.0,0,2018-04-24 08:13:42.000,55,2018-04-24 08:27:43.984,0.25,90,0,30,120,1
1358,10,0,539.318,1,0,1,0.25,2,3,3.0,1.0,12,40.0,30.0,3,0.6509999999999999,0.0,541.13,0.2,1,2018-04-24 13:59:31.000,43,2018-04-24 14:08:30.318,0.25,90,-180,-180,90,1
1359,11,0,561.747,0,0,1,0.25,2,3,3.0,1.0,12,40.0,30.0,3,0.626,0.0,562.922,0.2,1,2018-04-24 13:59:31.000,43,2018-04-24 14:08:52.747,0.25,90,-180,-180,90,1
1360,12,0,611.507,1,0,1,0.25,2,9,3.0,1.0,6,40.0,30.0,9,0.601,1.0,621.503,0.2,1,2018-04-24 13:59:31.000,43,2018-04-24 14:09:42.507,0.25,-90,0,0,-90,1
1361,13,0,638.178,0,0,1,0.25,2,9,3.0,1.0,6,40.0,30.0,9,0.701,1.0,640.212,0.2,1,2018-04-24 13:59:31.000,43,2018-04-24 14:10:09.178,0.25,-90,0,0,-90,1
1362,14,0,670.1289999999998,0,0,1,0.25,2,3,3.0,1.0,12,40.0,30.0,3,0.6759999999999999,0.0,674.326,0.2,1,2018-04-24 13:59:31.000,43,2018-04-24 14:10:41.129,0.25,90,-180,-180,90,1
1363,15,0,708.525,1,0,1,0.25,2,9,3.0,1.0,6,40.0,30.0,9,0.6509999999999999,1.0,714.2810000000002,0.2,1,2018-04-24 13:59:31.000,43,2018-04-24 14:11:19.525,0.25,-90,0,0,-90,1
1364,16,0,782.368,0,0,1,0.25,2,3,3.0,1.0,12,40.0,30.0,3,0.6509999999999999,0.0,783.6139999999998,0.2,1,2018-04-24 13:59:31.000,43,2018-04-24 14:12:33.368,0.25,90,-180,-180,90,1
1365,17,0,803.048,0,0,1,0.25,2,3,3.0,1.0,12,40.0,30.0,3,0.601,0.0,804.434,0.2,1,2018-04-24 13:59:31.000,43,2018-04-24 14:12:54.048,0.25,90,-180,-180,90,1
1366,18,0,834.466,0,0,1,0.25,2,9,3.0,1.0,6,40.0,30.0,9,0.626,1.0,839.112,0.2,1,2018-04-24 13:59:31.000,43,2018-04-24 14:13:25.466,0.25,-90,0,0,-90,1
1367,19,0,877.804,1,0,1,0.25,2,3,2.0,1.0,12,40.0,30.0,3,0.701,1.0,882.704,0.0,0,2018-04-24 13:59:31.000,43,2018-04-24 14:14:08.804,0.25,-90,-180,-180,-90,1
1423,46,0,1274.978,0,30,1,0.25,2,3,0.0,1.0,12,40.0,30.0,3,0.6759999999999999,0.0,1278.619,0.2,1,2018-04-25 08:32:29.000,112,2018-04-25 08:53:43.978,0.25,90,-180,150,60,1
1424,47,0,1298.414,1,30,1,0.25,2,3,0.0,1.0,12,40.0,30.0,3,0.701,0.0,1305.901,0.2,1,2018-04-25 08:32:29.000,112,2018-04-25 08:54:07.414,0.25,90,-180,150,60,1
1425,48,0,1334.703,0,30,1,0.25,2,9,0.0,1.0,6,40.0,30.0,9,0.626,0.0,1338.979,0.0,0,2018-04-25 08:32:29.000,112,2018-04-25 08:54:43.703,0.25,90,0,-30,60,1
1426,50,0,1367.983,0,30,1,0.25,2,9,0.0,1.0,6,40.0,30.0,9,0.6509999999999999,0.0,1372.061,0.0,0,2018-04-25 08:32:29.000,112,2018-04-25 08:55:16.983,0.25,90,0,-30,60,1
1427,52,0,1389.417,1,30,1,0.25,2,9,0.0,1.0,6,40.0,30.0,9,0.701,1.0,1391.235,0.2,1,2018-04-25 08:32:29.000,112,2018-04-25 08:55:38.417,0.25,-90,0,-30,-120,1
1428,53,0,1419.257,1,30,1,0.25,2,3,0.0,1.0,12,40.0,30.0,3,0.6509999999999999,0.0,1424.139,0.2,1,2018-04-25 08:32:29.000,112,2018-04-25 08:56:08.257,0.25,90,-180,150,60,1
1429,54,0,1470.933,0,30,1,0.25,2,3,0.0,1.0,12,40.0,30.0,3,0.601,0.0,1472.2420000000004,0.2,1,2018-04-25 08:32:29.000,112,2018-04-25 08:56:59.933,0.25,90,-180,150,60,1
1430,55,0,1494.354,0,30,1,0.25,2,9,0.0,1.0,6,40.0,30.0,9,0.626,1.0,1498.4779999999996,0.2,1,2018-04-25 08:32:29.000,112,2018-04-25 08:57:23.354,0.25,-90,0,-30,-120,1
1431,56,0,1505.808,0,30,1,0.25,2,3,0.0,1.0,12,40.0,30.0,3,0.6759999999999999,0.0,1511.997,0.2,1,2018-04-25 08:32:29.000,112,2018-04-25 08:57:34.808,0.25,90,-180,150,60,1
1432,57,0,1518.779,0,30,1,0.25,2,9,0.0,1.0,6,40.0,30.0,9,0.6509999999999999,1.0,1520.405,0.2,1,2018-04-25 08:32:29.000,112,2018-04-25 08:57:47.779,0.25,-90,0,-30,-120,1
1453,33,0,895.205,1,60,1,0.25,2,3,0.0,1.0,12,40.0,30.0,3,0.701,0.0,899.42,0.2,1,2018-04-25 14:17:33.000,182,2018-04-25 14:32:28.205,0.25,90,-180,120,30,1
1454,34,0,933.885,1,60,1,0.25,2,9,0.0,1.0,6,40.0,30.0,9,0.626,1.0,941.985,0.2,1,2018-04-25 14:17:33.000,182,2018-04-25 14:33:06.885,0.25,-90,0,-60,-150,1
1455,35,0,974.375,1,60,1,0.25,2,9,0.0,1.0,6,40.0,30.0,9,0.6759999999999999,1.0,980.589,0.2,1,2018-04-25 14:17:33.000,182,2018-04-25 14:33:47.375,0.25,-90,0,-60,-150,1
1456,36,0,1009.246,1,60,1,0.25,2,9,0.0,1.0,6,40.0,30.0,9,0.601,0.0,1015.027,0.0,0,2018-04-25 14:17:33.000,182,2018-04-25 14:34:22.246,0.25,90,0,-60,30,1
1457,38,0,1038.6,1,60,1,0.25,2,3,0.0,1.0,12,40.0,30.0,3,0.6509999999999999,0.0,1040.428,0.2,1,2018-04-25 14:17:33.000,182,2018-04-25 14:34:51.600,0.25,90,-180,120,30,1
1458,39,0,1055.271,1,60,1,0.25,2,3,0.0,1.0,12,40.0,30.0,3,0.6759999999999999,1.0,1057.276,0.0,0,2018-04-25 14:17:33.000,182,2018-04-25 14:35:08.271,0.25,-90,-180,120,-150,1
1459,42,0,1144.909,1,60,1,0.25,2,3,0.0,1.0,12,40.0,30.0,3,0.601,1.0,1152.115,0.0,0,2018-04-25 14:17:33.000,182,2018-04-25 14:36:37.909,0.25,-90,-180,120,-150,1
1460,44,0,1182.428,1,60,1,0.25,2,9,0.0,1.0,6,40.0,30.0,9,0.626,1.0,1188.079,0.2,1,2018-04-25 14:17:33.000,182,2018-04-25 14:37:15.428,0.25,-90,0,-60,-150,1
1461,45,0,1206.479,1,60,1,0.25,2,9,0.0,1.0,6,40.0,30.0,9,0.6759999999999999,0.0,1210.121,0.0,0,2018-04-25 14:17:33.000,182,2018-04-25 14:37:39.479,0.25,90,0,-60,30,1
1462,48,0,1375.725,0,60,1,0.25,2,3,0.0,1.0,12,40.0,30.0,3,0.601,0.0,1386.217,0.2,1,2018-04-25 14:17:33.000,182,2018-04-25 14:40:28.725,0.25,90,-180,120,30,1
1474,21,0,607.58,0,0,1,0.25,2,3,0.0,1.0,12,40.0,30.0,3,0.601,0.0,614.742,0.2,1,2018-04-26 09:21:36.000,63,2018-04-26 09:31:43.580,0.25,90,-180,-180,90,1
1475,22,0,642.764,1,0,1,0.25,2,9,0.0,1.0,6,40.0,30.0,9,0.626,0.0,648.187,0.0,0,2018-04-26 09:21:36.000,63,2018-04-26 09:32:18.764,0.25,90,0,0,90,1
1476,25,0,696.568,0,0,1,0.25,2,3,0.0,1.0,12,40.0,30.0,3,0.6509999999999999,0.0,701.4810000000001,0.2,1,2018-04-26 09:21:36.000,63,2018-04-26 09:33:12.568,0.25,90,-180,-180,90,1
1477,26,0,719.081,0,0,1,0.25,2,9,0.0,1.0,6,40.0,30.0,9,0.6509999999999999,0.0,721.705,0.0,0,2018-04-26 09:21:36.000,63,2018-04-26 09:33:35.081,0.25,90,0,0,90,1
1478,28,0,781.084,0,0,1,0.25,2,9,0.0,1.0,6,40.0,30.0,9,0.6759999999999999,1.0,786.043,0.2,1,2018-04-26 09:21:36.000,63,2018-04-26 09:34:37.084,0.25,-90,0,0,-90,1
1479,29,0,800.711,0,0,1,0.25,2,3,0.0,1.0,12,40.0,30.0,3,0.701,0.0,805.8660000000001,0.2,1,2018-04-26 09:21:36.000,63,2018-04-26 09:34:56.711,0.25,90,-180,-180,90,1
1480,30,0,893.5310000000002,0,0,1,0.25,2,3,0.0,1.0,12,40.0,30.0,3,0.701,0.0,894.933,0.2,1,2018-04-26 09:21:36.000,63,2018-04-26 09:36:29.531,0.25,90,-180,-180,90,1
1481,31,0,922.746,0,0,1,0.25,2,9,0.0,1.0,6,40.0,30.0,9,0.6509999999999999,1.0,924.516,0.2,1,2018-04-26 09:21:36.000,63,2018-04-26 09:36:58.746,0.25,-90,0,0,-90,1
1482,32,0,940.731,0,0,1,0.25,2,3,0.0,1.0,12,40.0,30.0,3,0.626,0.0,942.433,0.2,1,2018-04-26 09:21:36.000,63,2018-04-26 09:37:16.731,0.25,90,-180,-180,90,1
1483,33,0,983.668,0,0,1,0.25,2,3,0.0,1.0,12,40.0,30.0,3,0.6759999999999999,1.0,985.367,0.0,0,2018-04-26 09:21:36.000,63,2018-04-26 09:37:59.668,0.25,-90,-180,-180,-90,1
1593,18,0,319.466,0,180,1,0.25,2,3,0.0,1.0,12,40.0,30.0,3,0.35100000000000003,0.0,321.256,0.2,1,2018-04-27 09:50:05.000,181,2018-04-27 09:55:24.466,0.25,90,-180,0,-90,1
1594,19,0,328.074,0,180,1,0.25,2,3,0.0,1.0,12,40.0,30.0,3,0.501,0.0,329.314,0.2,1,2018-04-27 09:50:05.000,181,2018-04-27 09:55:33.074,0.25,90,-180,0,-90,1
1595,20,0,339.039,1,180,1,0.25,2,9,0.0,1.0,6,40.0,30.0,9,0.401,0.0,342.27,0.0,0,2018-04-27 09:50:05.000,181,2018-04-27 09:55:44.039,0.25,90,0,-180,-90,1
1596,22,0,358.75,0,180,1,0.25,2,3,0.0,1.0,12,40.0,30.0,3,0.35100000000000003,1.0,360.043,0.0,0,2018-04-27 09:50:05.000,181,2018-04-27 09:56:03.750,0.25,-90,-180,0,90,1
1597,24,0,375.965,0,180,1,0.25,2,9,0.0,1.0,6,40.0,30.0,9,0.451,1.0,377.507,0.2,1,2018-04-27 09:50:05.000,181,2018-04-27 09:56:20.965,0.25,-90,0,-180,90,1
1598,25,0,386.171,0,180,1,0.25,2,3,0.0,1.0,12,40.0,30.0,3,0.301,0.0,388.685,0.2,1,2018-04-27 09:50:05.000,181,2018-04-27 09:56:31.171,0.25,90,-180,0,-90,1
1599,26,0,404.352,0,180,1,0.25,2,9,0.0,1.0,6,40.0,30.0,9,0.301,1.0,411.221,0.2,1,2018-04-27 09:50:05.000,181,2018-04-27 09:56:49.352,0.25,-90,0,-180,90,1
1600,27,0,420.084,0,180,1,0.25,2,9,0.0,1.0,6,40.0,30.0,9,0.35100000000000003,1.0,426.854,0.2,1,2018-04-27 09:50:05.000,181,2018-04-27 09:57:05.084,0.25,-90,0,-180,90,1
1601,28,0,433.958,0,180,1,0.25,2,3,0.0,1.0,12,40.0,30.0,3,0.401,1.0,435.69,0.0,0,2018-04-27 09:50:05.000,181,2018-04-27 09:57:18.958,0.25,-90,-180,0,90,1
1602,32,0,494.3130000000001,0,180,1,0.25,2,9,0.0,1.0,6,40.0,30.0,9,0.501,1.0,501.199,0.2,1,2018-04-27 09:50:05.000,181,2018-04-27 09:58:19.313,0.25,-90,0,-180,90,1
1709,75,0,1929.482,0,0,1,0.25,2,9,0.0,1.0,6,40.0,30.0,9,0.35100000000000003,1.0,1932.795,0.2,1,2018-04-30 11:16:19.000,117,2018-04-30 11:48:28.482,0.25,-90,0,0,-90,1
1710,76,0,1952.079,1,0,1,0.25,2,3,0.0,1.0,12,40.0,30.0,3,0.501,0.0,1953.36,0.2,1,2018-04-30 11:16:19.000,117,2018-04-30 11:48:51.079,0.25,90,-180,-180,90,1
1711,77,0,1967.668,0,0,1,0.25,2,9,0.0,1.0,6,40.0,30.0,9,0.401,1.0,1969.766,0.2,1,2018-04-30 11:16:19.000,117,2018-04-30 11:49:06.668,0.25,-90,0,0,-90,1
1712,78,0,1982.367,0,0,1,0.25,2,9,0.0,1.0,6,40.0,30.0,9,0.451,1.0,1984.241,0.2,1,2018-04-30 11:16:19.000,117,2018-04-30 11:49:21.367,0.25,-90,0,0,-90,1
1713,79,0,2008.2,0,0,1,0.25,2,9,0.0,1.0,6,40.0,30.0,9,0.301,1.0,2010.449,0.2,1,2018-04-30 11:16:19.000,117,2018-04-30 11:49:47.200,0.25,-90,0,0,-90,1
1714,80,0,2023.565,0,0,1,0.25,2,3,0.0,1.0,12,40.0,30.0,3,0.35100000000000003,0.0,2025.157,0.2,1,2018-04-30 11:16:19.000,117,2018-04-30 11:50:02.565,0.25,90,-180,-180,90,1
1715,81,0,2039.604,1,0,1,0.25,2,9,0.0,1.0,6,40.0,30.0,9,0.451,1.0,2044.884,0.2,1,2018-04-30 11:16:19.000,117,2018-04-30 11:50:18.604,0.25,-90,0,0,-90,1
1716,82,0,2058.609,1,0,1,0.25,2,3,0.0,1.0,12,40.0,30.0,3,0.501,0.0,2060.459,0.2,1,2018-04-30 11:16:19.000,117,2018-04-30 11:50:37.609,0.25,90,-180,-180,90,1
1717,83,0,2081.272,0,0,1,0.25,2,3,0.0,1.0,12,40.0,30.0,3,0.401,0.0,2082.501,0.2,1,2018-04-30 11:16:19.000,117,2018-04-30 11:51:00.272,0.25,90,-180,-180,90,1
1718,84,0,2101.487,0,0,1,0.25,2,9,0.0,1.0,6,40.0,30.0,9,0.35100000000000003,1.0,2103.185,0.2,1,2018-04-30 11:16:19.000,117,2018-04-30 11:51:20.487,0.25,-90,0,0,-90,1
2343,7,0,366.664,0,90,1,0.25,2,3,0.0,1.0,12,40.0,30.0,3,0.401,0.0,369.713,0.2,1,2018-05-09 08:53:02.000,12,2018-05-09 08:59:08.664,0.25,90,-180,90,0,1
2344,8,0,392.6,1,90,1,0.25,2,3,0.0,1.0,12,40.0,30.0,3,0.451,0.0,396.509,0.2,1,2018-05-09 08:53:02.000,12,2018-05-09 08:59:34.600,0.25,90,-180,90,0,1
2345,9,0,418.83,0,90,1,0.25,2,9,0.0,1.0,6,40.0,30.0,9,0.35100000000000003,1.0,421.057,0.2,1,2018-05-09 08:53:02.000,12,2018-05-09 09:00:00.830,0.25,-90,0,-90,-180,1
2346,10,0,448.663,0,90,1,0.25,2,3,0.0,1.0,12,40.0,30.0,3,0.501,1.0,454.549,0.0,0,2018-05-09 08:53:02.000,12,2018-05-09 09:00:30.663,0.25,-90,-180,90,-180,1
2347,12,0,502.954,1,90,1,0.25,2,3,0.0,1.0,12,40.0,30.0,3,0.401,0.0,507.141,0.2,1,2018-05-09 08:53:02.000,12,2018-05-09 09:01:24.954,0.25,90,-180,90,0,1
2348,13,0,526.365,0,90,1,0.25,2,3,0.0,1.0,12,40.0,30.0,3,0.301,1.0,528.714,0.0,0,2018-05-09 08:53:02.000,12,2018-05-09 09:01:48.365,0.25,-90,-180,90,-180,1
2349,15,0,616.42,0,90,1,0.25,2,3,0.0,1.0,12,40.0,30.0,3,0.35100000000000003,1.0,619.165,0.0,0,2018-05-09 08:53:02.000,12,2018-05-09 09:03:18.420,0.25,-90,-180,90,-180,1
2350,17,0,650.025,1,90,1,0.25,2,3,0.0,1.0,12,40.0,30.0,3,0.401,1.0,654.823,0.0,0,2018-05-09 08:53:02.000,12,2018-05-09 09:03:52.025,0.25,-90,-180,90,-180,1
2351,21,0,755.3580000000002,0,90,1,0.25,2,3,0.0,1.0,12,40.0,30.0,3,0.301,0.0,791.6310000000002,0.2,1,2018-05-09 08:53:02.000,12,2018-05-09 09:05:37.358,0.25,90,-180,90,0,1
2352,22,0,813.326,0,90,1,0.25,2,9,0.0,1.0,6,40.0,30.0,9,0.35100000000000003,0.0,858.453,0.0,0,2018-05-09 08:53:02.000,12,2018-05-09 09:06:35.326,0.25,90,0,-90,0,1
2417,19,0,918.54,0,-90,1,0.25,2,3,0.0,1.0,12,40.0,30.0,3,0.501,0.0,921.168,0.2,1,2018-05-10 08:43:02.000,119,2018-05-10 08:58:20.540,0.25,90,-180,-90,-180,1
2418,20,0,988.893,0,-90,1,0.25,2,3,0.0,1.0,12,40.0,30.0,3,0.35100000000000003,0.0,990.842,0.2,1,2018-05-10 08:43:02.000,119,2018-05-10 08:59:30.893,0.25,90,-180,-90,-180,1
2419,21,0,1014.315,0,-90,1,0.25,2,9,0.0,1.0,6,40.0,30.0,9,0.301,1.0,1017.571,0.2,1,2018-05-10 08:43:02.000,119,2018-05-10 08:59:56.315,0.25,-90,0,90,0,1
2420,22,0,1033.014,0,-90,1,0.25,2,9,0.0,1.0,6,40.0,30.0,9,0.401,1.0,1035.889,0.2,1,2018-05-10 08:43:02.000,119,2018-05-10 09:00:15.014,0.25,-90,0,90,0,1
2421,23,0,1055.966,1,-90,1,0.25,2,3,0.0,1.0,12,40.0,30.0,3,0.35100000000000003,1.0,1057.8339999999996,0.0,0,2018-05-10 08:43:02.000,119,2018-05-10 09:00:37.966,0.25,-90,-180,-90,0,1
2422,26,0,1130.193,0,-90,1,0.25,2,3,0.0,1.0,12,40.0,30.0,3,0.301,1.0,1131.864,0.0,0,2018-05-10 08:43:02.000,119,2018-05-10 09:01:52.193,0.25,-90,-180,-90,0,1
2423,28,0,1171.349,0,-90,1,0.25,2,9,0.0,1.0,6,40.0,30.0,9,0.35100000000000003,0.0,1174.606,0.0,0,2018-05-10 08:43:02.000,119,2018-05-10 09:02:33.349,0.25,90,0,90,-180,1
2424,30,0,1233.687,0,-90,1,0.25,2,9,0.0,1.0,6,40.0,30.0,9,0.451,1.0,1237.381,0.2,1,2018-05-10 08:43:02.000,119,2018-05-10 09:03:35.687,0.25,-90,0,90,0,1
2425,31,0,1252.866,1,-90,1,0.25,2,3,0.0,1.0,12,40.0,30.0,3,0.451,0.0,1256.284,0.2,1,2018-05-10 08:43:02.000,119,2018-05-10 09:03:54.866,0.25,90,-180,-90,-180,1
2426,32,0,1314.057,1,-90,1,0.25,2,9,0.0,1.0,6,40.0,30.0,9,0.401,0.0,1316.294,0.0,0,2018-05-10 08:43:02.000,119,2018-05-10 09:04:56.057,0.25,90,0,90,-180,1
2514,65,0,1687.741,0,0,1,0.25,2,3,0.0,1.0,12,40.0,30.0,3,0.301,0.0,1689.511,0.2,1,2018-05-11 09:25:04.000,177,2018-05-11 09:53:11.741,0.25,90,-180,-180,90,1
2515,66,0,1715.306,1,0,1,0.25,2,9,0.0,1.0,6,40.0,30.0,9,0.35100000000000003,1.0,1717.441,0.2,1,2018-05-11 09:25:04.000,177,2018-05-11 09:53:39.306,0.25,-90,0,0,-90,1
2516,67,0,1744.76,0,0,1,0.25,2,9,0.0,1.0,6,40.0,30.0,9,0.451,1.0,1746.4070000000004,0.2,1,2018-05-11 09:25:04.000,177,2018-05-11 09:54:08.760,0.25,-90,0,0,-90,1
2517,68,0,1772.612,1,0,1,0.25,2,3,0.0,1.0,12,40.0,30.0,3,0.501,0.0,1773.9070000000004,0.2,1,2018-05-11 09:25:04.000,177,2018-05-11 09:54:36.612,0.25,90,-180,-180,90,1
2518,69,0,1791.939,0,0,1,0.25,2,3,0.0,1.0,12,40.0,30.0,3,0.301,0.0,1793.703,0.2,1,2018-05-11 09:25:04.000,177,2018-05-11 09:54:55.939,0.25,90,-180,-180,90,1
2519,70,0,1817.803,0,0,1,0.25,2,9,0.0,1.0,6,40.0,30.0,9,0.401,1.0,1819.56,0.2,1,2018-05-11 09:25:04.000,177,2018-05-11 09:55:21.803,0.25,-90,0,0,-90,1
2520,71,0,1837.002,0,0,1,0.25,2,3,0.0,1.0,12,40.0,30.0,3,0.501,0.0,1838.749,0.2,1,2018-05-11 09:25:04.000,177,2018-05-11 09:55:41.002,0.25,90,-180,-180,90,1
2521,72,0,1886.428,0,0,1,0.25,2,9,0.0,1.0,6,40.0,30.0,9,0.451,1.0,1888.75,0.2,1,2018-05-11 09:25:04.000,177,2018-05-11 09:56:30.428,0.25,-90,0,0,-90,1
2522,73,0,1903.557,0,0,1,0.25,2,3,0.0,1.0,12,40.0,30.0,3,0.401,0.0,1905.385,0.2,1,2018-05-11 09:25:04.000,177,2018-05-11 09:56:47.557,0.25,90,-180,-180,90,1
2523,74,0,1944.242,1,0,1,0.25,2,9,0.0,1.0,6,40.0,30.0,9,0.301,0.0,1947.323,0.0,0,2018-05-11 09:25:04.000,177,2018-05-11 09:57:28.242,0.25,90,0,0,90,1
2731,16,0,541.567,0,-60,1,0.25,2,9,0.0,1.0,6,45.0,30.0,9,0.301,1.0,543.496,0.2,1,2018-05-23 08:50:28.000,40,2018-05-23 08:59:29.567,0.25,-90,0,60,-30,1
2732,17,0,569.955,0,-60,1,0.25,2,9,0.0,1.0,6,45.0,30.0,9,0.35100000000000003,1.0,574.118,0.2,1,2018-05-23 08:50:28.000,40,2018-05-23 08:59:57.955,0.25,-90,0,60,-30,1
2733,18,0,588.285,0,-60,1,0.25,2,9,0.0,1.0,6,45.0,30.0,9,0.451,1.0,590.247,0.2,1,2018-05-23 08:50:28.000,40,2018-05-23 09:00:16.285,0.25,-90,0,60,-30,1
2734,19,0,637.823,1,-60,1,0.25,2,9,0.0,1.0,6,45.0,30.0,9,0.501,0.0,639.1709999999998,0.0,0,2018-05-23 08:50:28.000,40,2018-05-23 09:01:05.823,0.25,90,0,60,150,1
2735,21,0,703.921,0,-60,1,0.25,2,3,0.0,1.0,12,45.0,30.0,3,0.35100000000000003,0.0,705.793,0.2,1,2018-05-23 08:50:28.000,40,2018-05-23 09:02:11.921,0.25,90,-180,-120,150,1
2736,22,0,721.368,0,-60,1,0.25,2,3,0.0,1.0,12,45.0,30.0,3,0.301,0.0,722.556,0.2,1,2018-05-23 08:50:28.000,40,2018-05-23 09:02:29.368,0.25,90,-180,-120,150,1
2737,23,0,778.4,0,-60,1,0.25,2,9,0.0,1.0,6,45.0,30.0,9,0.501,0.0,779.8810000000002,0.0,0,2018-05-23 08:50:28.000,40,2018-05-23 09:03:26.400,0.25,90,0,60,150,1
2738,29,0,993.758,0,-60,1,0.25,2,9,0.0,1.0,6,45.0,30.0,9,0.301,0.0,998.015,0.0,0,2018-05-23 08:50:28.000,40,2018-05-23 09:07:01.758,0.25,90,0,60,150,1
2739,33,0,1074.886,0,-60,1,0.25,2,9,0.0,1.0,6,45.0,30.0,9,0.401,0.0,1076.68,0.0,0,2018-05-23 08:50:28.000,40,2018-05-23 09:08:22.886,0.25,90,0,60,150,1
2740,35,0,1148.16,0,-60,1,0.25,2,3,0.0,1.0,12,45.0,30.0,3,0.451,0.0,1150.398,0.2,1,2018-05-23 08:50:28.000,40,2018-05-23 09:09:36.160,0.25,90,-180,-120,150,1
2785,68,0,2107.128,0,0,1,0.25,2,3,0.0,1.0,12,45.0,30.0,3,0.401,0.0,2108.273,0.2,1,2018-05-23 14:01:15.000,86,2018-05-23 14:36:22.128,0.25,90,-180,-180,90,1
2786,69,0,2175.014,0,0,1,0.25,2,9,0.0,1.0,6,45.0,30.0,9,0.501,1.0,2178.063,0.2,1,2018-05-23 14:01:15.000,86,2018-05-23 14:37:30.014,0.25,-90,0,0,-90,1
2787,70,0,2194.211,0,0,1,0.25,2,9,0.0,1.0,6,45.0,30.0,9,0.35100000000000003,1.0,2196.275,0.2,1,2018-05-23 14:01:15.000,86,2018-05-23 14:37:49.211,0.25,-90,0,0,-90,1
2788,71,0,2237.291,0,0,1,0.25,2,3,0.0,1.0,12,45.0,30.0,3,0.501,0.0,2239.636,0.2,1,2018-05-23 14:01:15.000,86,2018-05-23 14:38:32.291,0.25,90,-180,-180,90,1
2789,72,0,2255.133,0,0,1,0.25,2,9,0.0,1.0,6,45.0,30.0,9,0.401,1.0,2257.362,0.2,1,2018-05-23 14:01:15.000,86,2018-05-23 14:38:50.133,0.25,-90,0,0,-90,1
2790,73,0,2294.042,0,0,1,0.25,2,3,0.0,1.0,12,45.0,30.0,3,0.451,0.0,2295.483,0.2,1,2018-05-23 14:01:15.000,86,2018-05-23 14:39:29.042,0.25,90,-180,-180,90,1
2791,74,0,2360.597,0,0,1,0.25,2,3,0.0,1.0,12,45.0,30.0,3,0.301,0.0,2361.626,0.2,1,2018-05-23 14:01:15.000,86,2018-05-23 14:40:35.597,0.25,90,-180,-180,90,1
2792,75,0,2417.854,0,0,1,0.25,2,9,0.0,1.0,6,45.0,30.0,9,0.35100000000000003,1.0,2420.544,0.2,1,2018-05-23 14:01:15.000,86,2018-05-23 14:41:32.854,0.25,-90,0,0,-90,1
2793,76,0,2478.1220000000008,1,0,1,0.25,2,3,0.0,1.0,12,45.0,30.0,3,0.451,0.0,2479.208,0.2,1,2018-05-23 14:01:15.000,86,2018-05-23 14:42:33.122,0.25,90,-180,-180,90,1
2794,77,0,2512.217,0,0,1,0.25,2,3,0.0,1.0,12,45.0,30.0,3,0.35100000000000003,1.0,2514.112,0.0,0,2018-05-23 14:01:15.000,86,2018-05-23 14:43:07.217,0.25,-90,-180,-180,-90,1
2800,8,0,340.004,0,120,1,0.25,2,9,0.0,1.0,6,45.0,30.0,9,0.451,0.0,343.63199999999995,0.0,0,2018-05-24 08:48:42.000,200,2018-05-24 08:54:22.004,0.25,90,0,-120,-30,1
2801,12,0,463.133,0,120,1,0.25,2,9,0.0,1.0,6,45.0,30.0,9,0.401,1.0,465.255,0.2,1,2018-05-24 08:48:42.000,200,2018-05-24 08:56:25.133,0.25,-90,0,-120,150,1
2802,13,0,486.418,1,120,1,0.25,2,9,0.0,1.0,6,45.0,30.0,9,0.301,1.0,488.085,0.2,1,2018-05-24 08:48:42.000,200,2018-05-24 08:56:48.418,0.25,-90,0,-120,150,1
2803,14,0,516.408,0,120,1,0.25,2,3,0.0,1.0,12,45.0,30.0,3,0.501,1.0,517.947,0.0,0,2018-05-24 08:48:42.000,200,2018-05-24 08:57:18.408,0.25,-90,-180,60,150,1
2804,16,0,621.684,0,120,1,0.25,2,9,0.0,1.0,6,45.0,30.0,9,0.451,0.0,627.183,0.0,0,2018-05-24 08:48:42.000,200,2018-05-24 08:59:03.684,0.25,90,0,-120,-30,1
2805,18,0,794.05,0,120,1,0.25,2,3,0.0,1.0,12,45.0,30.0,3,0.35100000000000003,1.0,796.4730000000002,0.0,0,2018-05-24 08:48:42.000,200,2018-05-24 09:01:56.050,0.25,-90,-180,60,150,1
2806,20,0,862.378,0,120,1,0.25,2,3,0.0,1.0,12,45.0,30.0,3,0.401,0.0,864.54,0.2,1,2018-05-24 08:48:42.000,200,2018-05-24 09:03:04.378,0.25,90,-180,60,-30,1
2807,21,0,910.876,1,120,1,0.25,2,9,0.0,1.0,6,45.0,30.0,9,0.35100000000000003,1.0,913.268,0.2,1,2018-05-24 08:48:42.000,200,2018-05-24 09:03:52.876,0.25,-90,0,-120,150,1
2808,22,0,946.463,0,120,1,0.25,2,9,0.0,1.0,6,45.0,30.0,9,0.501,1.0,950.695,0.2,1,2018-05-24 08:48:42.000,200,2018-05-24 09:04:28.463,0.25,-90,0,-120,150,1
2809,23,0,1011.151,0,120,1,0.25,2,9,0.0,1.0,6,45.0,30.0,9,0.301,1.0,1012.385,0.2,1,2018-05-24 08:48:42.000,200,2018-05-24 09:05:33.151,0.25,-90,0,-120,150,1
2907,54,0,1164.389,0,-150,1,0.25,2,3,0.0,1.0,12,45.0,30.0,3,0.35100000000000003,0.0,1170.184,0.2,1,2018-05-25 08:38:24.000,186,2018-05-25 08:57:48.389,0.25,90,-180,-30,-120,1
2908,55,0,1179.161,0,-150,1,0.25,2,3,0.0,1.0,12,45.0,30.0,3,0.501,0.0,1181.615,0.2,1,2018-05-25 08:38:24.000,186,2018-05-25 08:58:03.161,0.25,90,-180,-30,-120,1
2909,56,0,1189.358,0,-150,1,0.25,2,9,0.0,1.0,6,45.0,30.0,9,0.35100000000000003,1.0,1190.891,0.2,1,2018-05-25 08:38:24.000,186,2018-05-25 08:58:13.358,0.25,-90,0,150,60,1
2910,57,0,1214.216,0,-150,1,0.25,2,3,0.0,1.0,12,45.0,30.0,3,0.401,0.0,1215.581,0.2,1,2018-05-25 08:38:24.000,186,2018-05-25 08:58:38.216,0.25,90,-180,-30,-120,1
2911,58,0,1233.263,1,-150,1,0.25,2,9,0.0,1.0,6,45.0,30.0,9,0.451,1.0,1235.082,0.2,1,2018-05-25 08:38:24.000,186,2018-05-25 08:58:57.263,0.25,-90,0,150,60,1
2912,59,0,1254.763,0,-150,1,0.25,2,3,0.0,1.0,12,45.0,30.0,3,0.301,1.0,1266.017,0.0,0,2018-05-25 08:38:24.000,186,2018-05-25 08:59:18.763,0.25,-90,-180,-30,60,1
2913,61,0,1281.329,1,-150,1,0.25,2,3,0.0,1.0,12,45.0,30.0,3,0.401,0.0,1283.458,0.2,1,2018-05-25 08:38:24.000,186,2018-05-25 08:59:45.329,0.25,90,-180,-30,-120,1
2914,62,0,1299.189,0,-150,1,0.25,2,9,0.0,1.0,6,45.0,30.0,9,0.35100000000000003,1.0,1301.262,0.2,1,2018-05-25 08:38:24.000,186,2018-05-25 09:00:03.189,0.25,-90,0,150,60,1
2915,63,0,1308.952,0,-150,1,0.25,2,9,0.0,1.0,6,45.0,30.0,9,0.501,1.0,1309.958,0.2,1,2018-05-25 08:38:24.000,186,2018-05-25 09:00:12.952,0.25,-90,0,150,60,1
2916,64,0,1326.224,0,-150,1,0.25,2,3,0.0,1.0,12,45.0,30.0,3,0.301,0.0,1328.8570000000002,0.2,1,2018-05-25 08:38:24.000,186,2018-05-25 09:00:30.224,0.25,90,-180,-30,-120,1
2959,61,0,1326.822,0,150,1,0.25,2,3,0.0,1.0,12,45.0,30.0,3,0.501,0.0,1329.313,0.2,1,2018-05-25 14:01:49.000,13,2018-05-25 14:23:55.822,0.25,90,-180,30,-60,1
2960,62,0,1337.487,0,150,1,0.25,2,3,0.0,1.0,12,45.0,30.0,3,0.451,0.0,1341.386,0.2,1,2018-05-25 14:01:49.000,13,2018-05-25 14:24:06.487,0.25,90,-180,30,-60,1
2961,63,0,1347.698,0,150,1,0.25,2,9,0.0,1.0,6,45.0,30.0,9,0.35100000000000003,1.0,1352.428,0.2,1,2018-05-25 14:01:49.000,13,2018-05-25 14:24:16.698,0.25,-90,0,-150,120,1
2962,64,0,1372.599,0,150,1,0.25,2,9,0.0,1.0,6,45.0,30.0,9,0.301,0.0,1375.463,0.0,0,2018-05-25 14:01:49.000,13,2018-05-25 14:24:41.599,0.25,90,0,-150,-60,1
2963,67,0,1405.372,0,150,1,0.25,2,3,0.0,1.0,12,45.0,30.0,3,0.501,0.0,1407.1470000000004,0.2,1,2018-05-25 14:01:49.000,13,2018-05-25 14:25:14.372,0.25,90,-180,30,-60,1
2964,68,0,1413.207,0,150,1,0.25,2,9,0.0,1.0,6,45.0,30.0,9,0.35100000000000003,0.0,1422.6,0.0,0,2018-05-25 14:01:49.000,13,2018-05-25 14:25:22.207,0.25,90,0,-150,-60,1
2965,70,0,1448.2520000000004,0,150,1,0.25,2,9,0.0,1.0,6,45.0,30.0,9,0.401,1.0,1451.433,0.2,1,2018-05-25 14:01:49.000,13,2018-05-25 14:25:57.252,0.25,-90,0,-150,120,1
2966,71,0,1470.703,0,150,1,0.25,2,9,0.0,1.0,6,45.0,30.0,9,0.35100000000000003,1.0,1474.326,0.2,1,2018-05-25 14:01:49.000,13,2018-05-25 14:26:19.703,0.25,-90,0,-150,120,1
2967,72,0,1480.511,0,150,1,0.25,2,9,0.0,1.0,6,45.0,30.0,9,0.301,0.0,1482.425,0.0,0,2018-05-25 14:01:49.000,13,2018-05-25 14:26:29.511,0.25,90,0,-150,-60,1
2968,74,0,1496.948,0,150,1,0.25,2,9,0.0,1.0,6,45.0,30.0,9,0.401,0.0,1498.465,0.0,0,2018-05-25 14:01:49.000,13,2018-05-25 14:26:45.948,0.25,90,0,-150,-60,1
2979,12,0,344.599,0,-150,1,0.25,2,3,0.0,1.0,12,45.0,30.0,3,0.35100000000000003,0.0,346.9840000000001,0.2,1,2018-05-28 09:53:17.000,15,2018-05-28 09:59:01.599,0.25,90,-180,-30,-120,1
2980,13,0,362.811,0,-150,1,0.25,2,3,0.0,1.0,12,45.0,30.0,3,0.501,0.0,365.229,0.2,1,2018-05-28 09:53:17.000,15,2018-05-28 09:59:19.811,0.25,90,-180,-30,-120,1
2981,14,0,372.84,0,-150,1,0.25,2,3,0.0,1.0,12,45.0,30.0,3,0.451,0.0,374.13,0.2,1,2018-05-28 09:53:17.000,15,2018-05-28 09:59:29.840,0.25,90,-180,-30,-120,1
2982,15,0,404.739,1,-150,1,0.25,2,3,0.0,1.0,12,45.0,30.0,3,0.401,0.0,406.029,0.2,1,2018-05-28 09:53:17.000,15,2018-05-28 10:00:01.739,0.25,90,-180,-30,-120,1
2983,16,0,429.103,0,-150,1,0.25,2,3,0.0,1.0,12,45.0,30.0,3,0.451,0.0,434.897,0.2,1,2018-05-28 09:53:17.000,15,2018-05-28 10:00:26.103,0.25,90,-180,-30,-120,1
2984,17,0,443.589,1,-150,1,0.25,2,9,0.0,1.0,6,45.0,30.0,9,0.35100000000000003,0.0,445.958,0.0,0,2018-05-28 09:53:17.000,15,2018-05-28 10:00:40.589,0.25,90,0,150,-120,1
2985,19,0,477.735,0,-150,1,0.25,2,9,0.0,1.0,6,45.0,30.0,9,0.301,1.0,480.176,0.2,1,2018-05-28 09:53:17.000,15,2018-05-28 10:01:14.735,0.25,-90,0,150,60,1
2986,20,0,504.885,0,-150,1,0.25,2,9,0.0,1.0,6,45.0,30.0,9,0.501,0.0,513.096,0.0,0,2018-05-28 09:53:17.000,15,2018-05-28 10:01:41.885,0.25,90,0,150,-120,1
2987,22,0,530.982,0,-150,1,0.25,2,3,0.0,1.0,12,45.0,30.0,3,0.501,0.0,532.5319999999998,0.2,1,2018-05-28 09:53:17.000,15,2018-05-28 10:02:07.982,0.25,90,-180,-30,-120,1
2988,23,0,550.316,1,-150,1,0.25,2,3,0.0,1.0,12,45.0,30.0,3,0.301,0.0,551.928,0.2,1,2018-05-28 09:53:17.000,15,2018-05-28 10:02:27.316,0.25,90,-180,-30,-120,1
3008,27,0,730.0139999999999,0,180,1,0.25,2,3,0.0,1.0,12,45.0,30.0,3,0.301,0.0,734.555,0.2,1,2018-05-28 15:07:06.000,36,2018-05-28 15:19:16.014,0.25,90,-180,0,-90,1
3009,28,0,752.703,0,180,1,0.25,2,9,0.0,1.0,6,45.0,30.0,9,0.451,1.0,754.503,0.2,1,2018-05-28 15:07:06.000,36,2018-05-28 15:19:38.703,0.25,-90,0,-180,90,1
3010,29,0,769.091,0,180,1,0.25,2,9,0.0,1.0,6,45.0,30.0,9,0.35100000000000003,1.0,770.3489999999998,0.2,1,2018-05-28 15:07:06.000,36,2018-05-28 15:19:55.091,0.25,-90,0,-180,90,1
3011,30,0,781.487,0,180,1,0.25,2,3,0.0,1.0,12,45.0,30.0,3,0.501,0.0,786.85,0.2,1,2018-05-28 15:07:06.000,36,2018-05-28 15:20:07.487,0.25,90,-180,0,-90,1
3012,31,0,796.737,0,180,1,0.25,2,9,0.0,1.0,6,45.0,30.0,9,0.301,0.0,798.442,0.0,0,2018-05-28 15:07:06.000,36,2018-05-28 15:20:22.737,0.25,90,0,-180,-90,1
3013,34,0,878.096,0,180,1,0.25,2,9,0.0,1.0,6,45.0,30.0,9,0.401,0.0,880.8639999999998,0.0,0,2018-05-28 15:07:06.000,36,2018-05-28 15:21:44.096,0.25,90,0,-180,-90,1
3014,36,0,911.397,0,180,1,0.25,2,9,0.0,1.0,6,45.0,30.0,9,0.501,0.0,912.991,0.0,0,2018-05-28 15:07:06.000,36,2018-05-28 15:22:17.397,0.25,90,0,-180,-90,1
3015,38,0,963.892,0,180,1,0.25,2,3,0.0,1.0,12,45.0,30.0,3,0.451,0.0,970.578,0.2,1,2018-05-28 15:07:06.000,36,2018-05-28 15:23:09.892,0.25,90,-180,0,-90,1
3016,39,0,978.895,1,180,1,0.25,2,3,0.0,1.0,12,45.0,30.0,3,0.401,0.0,980.951,0.2,1,2018-05-28 15:07:06.000,36,2018-05-28 15:23:24.895,0.25,90,-180,0,-90,1
3017,40,0,987.706,0,180,1,0.25,2,3,0.0,1.0,12,45.0,30.0,3,0.301,0.0,991.472,0.2,1,2018-05-28 15:07:06.000,36,2018-05-28 15:23:33.706,0.25,90,-180,0,-90,1
3061,61,0,1353.899,0,0,1,0.25,2,9,0.0,1.0,6,45.0,30.0,9,0.401,0.0,1355.247,0.0,0,2018-05-29 10:52:47.000,103,2018-05-29 11:15:20.899,0.25,90,0,0,90,1
3062,63,0,2107.093,0,0,1,0.25,2,9,0.0,1.0,6,45.0,30.0,9,0.35100000000000003,1.0,2110.016,0.2,1,2018-05-29 10:52:47.000,103,2018-05-29 11:27:54.093,0.25,-90,0,0,-90,1
3063,64,0,2517.459,0,0,1,0.25,2,3,0.0,1.0,12,45.0,30.0,3,0.451,0.0,2522.8720000000008,0.2,1,2018-05-29 10:52:47.000,103,2018-05-29 11:34:44.459,0.25,90,-180,-180,90,1
3064,65,0,2561.806,0,0,1,0.25,2,3,0.0,1.0,12,45.0,30.0,3,0.501,0.0,2563.199,0.2,1,2018-05-29 10:52:47.000,103,2018-05-29 11:35:28.806,0.25,90,-180,-180,90,1
3065,66,0,2574.459,0,0,1,0.25,2,9,0.0,1.0,6,45.0,30.0,9,0.451,0.0,2576.375,0.0,0,2018-05-29 10:52:47.000,103,2018-05-29 11:35:41.459,0.25,90,0,0,90,1
3066,72,0,2613.01,1,0,1,0.25,2,9,0.0,1.0,6,45.0,30.0,9,0.451,0.0,2614.704,0.0,0,2018-05-29 10:52:47.000,103,2018-05-29 11:36:20.010,0.25,90,0,0,90,1
3067,75,0,2637.47,1,0,1,0.25,2,9,0.0,1.0,6,45.0,30.0,9,0.501,0.0,2639.616,0.0,0,2018-05-29 10:52:47.000,103,2018-05-29 11:36:44.470,0.25,90,0,0,90,1
3068,80,0,2689.1020000000008,0,0,1,0.25,2,9,0.0,1.0,6,45.0,30.0,9,0.451,1.0,2691.003,0.2,1,2018-05-29 10:52:47.000,103,2018-05-29 11:37:36.102,0.25,-90,0,0,-90,1
3069,81,0,2711.492,0,0,1,0.25,2,9,0.0,1.0,6,45.0,30.0,9,0.35100000000000003,0.0,2712.9640000000004,0.0,0,2018-05-29 10:52:47.000,103,2018-05-29 11:37:58.492,0.25,90,0,0,90,1
3070,83,0,2780.915,0,0,1,0.25,2,9,0.0,1.0,6,45.0,30.0,9,0.501,0.0,2795.647,0.0,0,2018-05-29 10:52:47.000,103,2018-05-29 11:39:07.915,0.25,90,0,0,90,1
3097,13,0,728.947,1,-60,1,0.25,2,9,0.0,1.0,6,45.0,30.0,9,0.301,0.0,732.985,0.0,0,2018-05-30 09:43:24.000,134,2018-05-30 09:55:32.947,0.25,90,0,60,150,1
3098,15,0,816.5169999999998,0,-60,1,0.25,2,3,0.0,1.0,12,45.0,30.0,3,0.451,0.0,817.693,0.2,1,2018-05-30 09:43:24.000,134,2018-05-30 09:57:00.517,0.25,90,-180,-120,150,1
3099,16,0,877.564,0,-60,1,0.25,2,9,0.0,1.0,6,45.0,30.0,9,0.401,1.0,880.8639999999998,0.2,1,2018-05-30 09:43:24.000,134,2018-05-30 09:58:01.564,0.25,-90,0,60,-30,1
3100,17,0,905.803,0,-60,1,0.25,2,9,0.0,1.0,6,45.0,30.0,9,0.301,1.0,907.287,0.2,1,2018-05-30 09:43:24.000,134,2018-05-30 09:58:29.803,0.25,-90,0,60,-30,1
3101,18,0,952.612,0,-60,1,0.25,2,9,0.0,1.0,6,45.0,30.0,9,0.451,0.0,954.323,0.0,0,2018-05-30 09:43:24.000,134,2018-05-30 09:59:16.612,0.25,90,0,60,150,1
3102,20,0,982.959,0,-60,1,0.25,2,9,0.0,1.0,6,45.0,30.0,9,0.35100000000000003,0.0,985.203,0.0,0,2018-05-30 09:43:24.000,134,2018-05-30 09:59:46.959,0.25,90,0,60,150,1
3103,22,0,1012.224,0,-60,1,0.25,2,9,0.0,1.0,6,45.0,30.0,9,0.301,1.0,1014.116,0.2,1,2018-05-30 09:43:24.000,134,2018-05-30 10:00:16.224,0.25,-90,0,60,-30,1
3104,23,0,1044.901,0,-60,1,0.25,2,3,0.0,1.0,12,45.0,30.0,3,0.501,0.0,1046.878,0.2,1,2018-05-30 09:43:24.000,134,2018-05-30 10:00:48.901,0.25,90,-180,-120,150,1
3105,24,0,1086.538,0,-60,1,0.25,2,3,0.0,1.0,12,45.0,30.0,3,0.35100000000000003,1.0,1090.135,0.0,0,2018-05-30 09:43:24.000,134,2018-05-30 10:01:30.538,0.25,-90,-180,-120,-30,1
3106,26,0,1122.708,0,-60,1,0.25,2,9,0.0,1.0,6,45.0,30.0,9,0.501,1.0,1125.78,0.2,1,2018-05-30 09:43:24.000,134,2018-05-30 10:02:06.708,0.25,-90,0,60,-30,1
3143,49,0,1624.009,0,60,1,0.25,2,9,0.0,1.0,6,45.0,30.0,9,0.401,0.0,1625.489,0.0,0,2018-05-30 15:25:08.000,96,2018-05-30 15:52:12.009,0.25,90,0,-60,30,1
3144,51,0,1672.8729999999996,0,60,1,0.25,2,9,0.0,1.0,6,45.0,30.0,9,0.35100000000000003,1.0,1674.9879999999996,0.2,1,2018-05-30 15:25:08.000,96,2018-05-30 15:53:00.873,0.25,-90,0,-60,-150,1
3145,52,0,1703.09,0,60,1,0.25,2,9,0.0,1.0,6,45.0,30.0,9,0.401,1.0,1704.851,0.2,1,2018-05-30 15:25:08.000,96,2018-05-30 15:53:31.090,0.25,-90,0,-60,-150,1
3146,53,0,1722.437,0,60,1,0.25,2,9,0.0,1.0,6,45.0,30.0,9,0.451,1.0,1724.99,0.2,1,2018-05-30 15:25:08.000,96,2018-05-30 15:53:50.437,0.25,-90,0,-60,-150,1
3147,54,0,1742.1329999999996,0,60,1,0.25,2,3,0.0,1.0,12,45.0,30.0,3,0.501,0.0,1743.754,0.2,1,2018-05-30 15:25:08.000,96,2018-05-30 15:54:10.133,0.25,90,-180,120,30,1
3148,55,0,1770.221,0,60,1,0.25,2,3,0.0,1.0,12,45.0,30.0,3,0.301,0.0,1773.77,0.2,1,2018-05-30 15:25:08.000,96,2018-05-30 15:54:38.221,0.25,90,-180,120,30,1
3149,56,0,1794.856,0,60,1,0.25,2,3,0.0,1.0,12,45.0,30.0,3,0.451,0.0,1796.401,0.2,1,2018-05-30 15:25:08.000,96,2018-05-30 15:55:02.856,0.25,90,-180,120,30,1
3150,57,0,1809.652,0,60,1,0.25,2,9,0.0,1.0,6,45.0,30.0,9,0.35100000000000003,0.0,1811.466,0.0,0,2018-05-30 15:25:08.000,96,2018-05-30 15:55:17.652,0.25,90,0,-60,30,1
3151,64,0,1913.076,0,60,1,0.25,2,9,0.0,1.0,6,45.0,30.0,9,0.451,0.0,1915.649,0.0,0,2018-05-30 15:25:08.000,96,2018-05-30 15:57:01.076,0.25,90,0,-60,30,1
3152,66,0,1950.946,0,60,1,0.25,2,9,0.0,1.0,6,45.0,30.0,9,0.451,0.0,1952.611,0.0,0,2018-05-30 15:25:08.000,96,2018-05-30 15:57:38.946,0.25,90,0,-60,30,1
3179,39,0,946.133,0,-60,1,0.25,2,3,0.0,1.0,12,45.0,30.0,3,0.501,0.0,947.196,0.2,1,2018-05-31 08:49:43.000,195,2018-05-31 09:05:29.133,0.25,90,-180,-120,150,1
3180,40,0,965.167,0,-60,1,0.25,2,9,0.0,1.0,6,45.0,30.0,9,0.451,0.0,966.267,0.0,0,2018-05-31 08:49:43.000,195,2018-05-31 09:05:48.167,0.25,90,0,60,150,1
3181,44,0,1018.759,0,-60,1,0.25,2,3,0.0,1.0,12,45.0,30.0,3,0.401,0.0,1020.216,0.2,1,2018-05-31 08:49:43.000,195,2018-05-31 09:06:41.759,0.25,90,-180,-120,150,1
3182,45,0,1050.734,0,-60,1,0.25,2,3,0.0,1.0,12,45.0,30.0,3,0.301,0.0,1051.782,0.2,1,2018-05-31 08:49:43.000,195,2018-05-31 09:07:13.734,0.25,90,-180,-120,150,1
3183,46,0,1076.248,0,-60,1,0.25,2,3,0.0,1.0,12,45.0,30.0,3,0.35100000000000003,0.0,1077.24,0.2,1,2018-05-31 08:49:43.000,195,2018-05-31 09:07:39.248,0.25,90,-180,-120,150,1
3184,47,0,1113.697,0,-60,1,0.25,2,3,0.0,1.0,12,45.0,30.0,3,0.301,0.0,1114.772,0.2,1,2018-05-31 08:49:43.000,195,2018-05-31 09:08:16.697,0.25,90,-180,-120,150,1
3185,48,0,1147.469,0,-60,1,0.25,2,3,0.0,1.0,12,45.0,30.0,3,0.451,0.0,1148.408,0.2,1,2018-05-31 08:49:43.000,195,2018-05-31 09:08:50.469,0.25,90,-180,-120,150,1
3186,49,0,1185.169,0,-60,1,0.25,2,9,0.0,1.0,6,45.0,30.0,9,0.401,1.0,1189.072,0.2,1,2018-05-31 08:49:43.000,195,2018-05-31 09:09:28.169,0.25,-90,0,60,-30,1
3187,50,0,1208.827,0,-60,1,0.25,2,3,0.0,1.0,12,45.0,30.0,3,0.501,0.0,1210.023,0.2,1,2018-05-31 08:49:43.000,195,2018-05-31 09:09:51.827,0.25,90,-180,-120,150,1
3188,51,0,1224.619,0,-60,1,0.25,2,9,0.0,1.0,6,45.0,30.0,9,0.35100000000000003,0.0,1225.457,0.0,0,2018-05-31 08:49:43.000,195,2018-05-31 09:10:07.619,0.25,90,0,60,150,1
3249,76,0,2024.574,1,120,1,0.25,2,9,0.0,1.0,6,45.0,30.0,9,0.401,1.0,2027.84,0.2,1,2018-05-31 14:11:22.000,94,2018-05-31 14:45:06.574,0.25,-90,0,-120,150,1
3250,77,0,2043.518,1,120,1,0.25,2,3,0.0,1.0,12,45.0,30.0,3,0.501,0.0,2045.067,0.2,1,2018-05-31 14:11:22.000,94,2018-05-31 14:45:25.518,0.25,90,-180,60,-30,1
3251,78,0,2053.31,0,120,1,0.25,2,3,0.0,1.0,12,45.0,30.0,3,0.35100000000000003,0.0,2055.809,0.2,1,2018-05-31 14:11:22.000,94,2018-05-31 14:45:35.310,0.25,90,-180,60,-30,1
3252,79,0,2084.666,0,120,1,0.25,2,9,0.0,1.0,6,45.0,30.0,9,0.451,0.0,2089.887,0.0,0,2018-05-31 14:11:22.000,94,2018-05-31 14:46:06.666,0.25,90,0,-120,-30,1
3253,82,0,2133.439,0,120,1,0.25,2,9,0.0,1.0,6,45.0,30.0,9,0.35100000000000003,1.0,2135.24,0.2,1,2018-05-31 14:11:22.000,94,2018-05-31 14:46:55.439,0.25,-90,0,-120,150,1
3254,83,0,2151.944,1,120,1,0.25,2,3,0.0,1.0,12,45.0,30.0,3,0.501,0.0,2153.969,0.2,1,2018-05-31 14:11:22.000,94,2018-05-31 14:47:13.944,0.25,90,-180,60,-30,1
3255,84,0,2165.303,0,120,1,0.25,2,3,0.0,1.0,12,45.0,30.0,3,0.401,0.0,2166.595,0.2,1,2018-05-31 14:11:22.000,94,2018-05-31 14:47:27.303,0.25,90,-180,60,-30,1
3256,85,0,2185.322,0,120,1,0.25,2,9,0.0,1.0,6,45.0,30.0,9,0.451,0.0,2186.807,0.0,0,2018-05-31 14:11:22.000,94,2018-05-31 14:47:47.322,0.25,90,0,-120,-30,1
3257,88,0,2213.417,0,120,1,0.25,2,9,0.0,1.0,6,45.0,30.0,9,0.401,1.0,2215.14,0.2,1,2018-05-31 14:11:22.000,94,2018-05-31 14:48:15.417,0.25,-90,0,-120,150,1
3258,89,0,2232.328,0,120,1,0.25,2,3,0.0,1.0,12,45.0,30.0,3,0.451,1.0,2234.572,0.0,0,2018-05-31 14:11:22.000,94,2018-05-31 14:48:34.328,0.25,-90,-180,60,150,1
3291,52,0,1451.543,0,-90,1,0.25,2,3,0.0,1.0,12,45.0,30.0,3,0.451,1.0,1452.917,0.0,0,2018-06-01 08:27:53.000,25,2018-06-01 08:52:04.543,0.25,-90,-180,-90,0,1
3292,54,0,1517.192,0,-90,1,0.25,2,3,0.0,1.0,12,45.0,30.0,3,0.301,0.0,1518.497,0.2,1,2018-06-01 08:27:53.000,25,2018-06-01 08:53:10.192,0.25,90,-180,-90,-180,1
3293,55,0,1551.235,0,-90,1,0.25,2,9,0.0,1.0,6,45.0,30.0,9,0.35100000000000003,0.0,1552.945,0.0,0,2018-06-01 08:27:53.000,25,2018-06-01 08:53:44.235,0.25,90,0,90,-180,1
3294,57,0,1578.149,0,-90,1,0.25,2,9,0.0,1.0,6,45.0,30.0,9,0.35100000000000003,1.0,1580.571,0.2,1,2018-06-01 08:27:53.000,25,2018-06-01 08:54:11.149,0.25,-90,0,90,0,1
3295,58,0,1654.974,1,-90,1,0.25,2,9,0.0,1.0,6,45.0,30.0,9,0.451,0.0,1657.2020000000002,0.0,0,2018-06-01 08:27:53.000,25,2018-06-01 08:55:27.974,0.25,90,0,90,-180,1
3296,60,0,1682.5079999999996,0,-90,1,0.25,2,3,0.0,1.0,12,45.0,30.0,3,0.301,0.0,1684.035,0.2,1,2018-06-01 08:27:53.000,25,2018-06-01 08:55:55.508,0.25,90,-180,-90,-180,1
3297,61,0,1693.024,0,-90,1,0.25,2,9,0.0,1.0,6,45.0,30.0,9,0.35100000000000003,1.0,1694.547,0.2,1,2018-06-01 08:27:53.000,25,2018-06-01 08:56:06.024,0.25,-90,0,90,0,1
3298,62,0,1706.81,0,-90,1,0.25,2,9,0.0,1.0,6,45.0,30.0,9,0.451,1.0,1708.36,0.2,1,2018-06-01 08:27:53.000,25,2018-06-01 08:56:19.810,0.25,-90,0,90,0,1
3299,63,0,1753.3629999999996,0,-90,1,0.25,2,9,0.0,1.0,6,45.0,30.0,9,0.501,0.0,1755.89,0.0,0,2018-06-01 08:27:53.000,25,2018-06-01 08:57:06.363,0.25,90,0,90,-180,1
3300,65,0,1890.529,0,-90,1,0.25,2,9,0.0,1.0,6,45.0,30.0,9,0.401,0.0,1895.132,0.0,0,2018-06-01 08:27:53.000,25,2018-06-01 08:59:23.529,0.25,90,0,90,-180,1
3363,92,0,2670.592,0,0,1,0.25,2,3,0.0,1.0,12,45.0,30.0,3,0.35100000000000003,0.0,2672.777,0.2,1,2018-06-01 13:45:34.000,20,2018-06-01 14:30:04.592,0.25,90,-180,-180,90,1
3364,93,0,2695.2,0,0,1,0.25,2,9,0.0,1.0,6,45.0,30.0,9,0.401,0.0,2696.467,0.0,0,2018-06-01 13:45:34.000,20,2018-06-01 14:30:29.200,0.25,90,0,0,90,1
3365,95,0,2756.25,0,0,1,0.25,2,3,0.0,1.0,12,45.0,30.0,3,0.501,0.0,2757.554,0.2,1,2018-06-01 13:45:34.000,20,2018-06-01 14:31:30.250,0.25,90,-180,-180,90,1
3366,96,0,2768.2470000000008,0,0,1,0.25,2,9,0.0,1.0,6,45.0,30.0,9,0.401,1.0,2769.802,0.2,1,2018-06-01 13:45:34.000,20,2018-06-01 14:31:42.247,0.25,-90,0,0,-90,1
3367,97,0,2784.039,0,0,1,0.25,2,9,0.0,1.0,6,45.0,30.0,9,0.451,1.0,2786.009,0.2,1,2018-06-01 13:45:34.000,20,2018-06-01 14:31:58.039,0.25,-90,0,0,-90,1
3368,98,0,2798.321,0,0,1,0.25,2,9,0.0,1.0,6,45.0,30.0,9,0.301,0.0,2800.361,0.0,0,2018-06-01 13:45:34.000,20,2018-06-01 14:32:12.321,0.25,90,0,0,90,1
3369,101,0,2861.777,0,0,1,0.25,2,9,0.0,1.0,6,45.0,30.0,9,0.501,1.0,2863.309,0.2,1,2018-06-01 13:45:34.000,20,2018-06-01 14:33:15.777,0.25,-90,0,0,-90,1
3370,102,0,2882.96,0,0,1,0.25,2,9,0.0,1.0,6,45.0,30.0,9,0.301,1.0,2884.599,0.2,1,2018-06-01 13:45:34.000,20,2018-06-01 14:33:36.960,0.25,-90,0,0,-90,1
3371,103,0,2926.522,0,0,1,0.25,2,9,0.0,1.0,6,45.0,30.0,9,0.451,0.0,2927.672,0.0,0,2018-06-01 13:45:34.000,20,2018-06-01 14:34:20.522,0.25,90,0,0,90,1
3372,105,0,3099.784,0,0,1,0.25,2,3,0.0,1.0,12,45.0,30.0,3,0.401,1.0,3104.368,0.0,0,2018-06-01 13:45:34.000,20,2018-06-01 14:37:13.784,0.25,-90,-180,-180,-90,1
3544,61,0,819.332,1,150,1,0.25,2,9,0.0,1.0,6,45.0,30.0,9,0.401,0.0,820.689,0.0,0,2018-06-20 08:48:00.000,41,2018-06-20 09:01:39.332,0.25,90,0,-150,-60,1
3545,64,0,868.2819999999998,1,150,1,0.25,2,3,0.0,1.0,12,45.0,30.0,3,0.501,0.0,869.8689999999998,0.2,1,2018-06-20 08:48:00.000,41,2018-06-20 09:02:28.282,0.25,90,-180,30,-60,1
3546,65,0,877.11,1,150,1,0.25,2,9,0.0,1.0,6,45.0,30.0,9,0.301,1.0,878.475,0.2,1,2018-06-20 08:48:00.000,41,2018-06-20 09:02:37.110,0.25,-90,0,-150,120,1
3547,66,0,893.288,1,150,1,0.25,2,3,0.0,1.0,12,45.0,30.0,3,0.301,1.0,895.107,0.0,0,2018-06-20 08:48:00.000,41,2018-06-20 09:02:53.288,0.25,-90,-180,30,120,1
3548,68,0,916.61,1,150,1,0.25,2,3,0.0,1.0,12,45.0,30.0,3,0.501,0.0,917.477,0.2,1,2018-06-20 08:48:00.000,41,2018-06-20 09:03:16.610,0.25,90,-180,30,-60,1
3549,69,0,927.336,1,150,1,0.25,2,3,0.0,1.0,12,45.0,30.0,3,0.401,0.0,928.709,0.2,1,2018-06-20 08:48:00.000,41,2018-06-20 09:03:27.336,0.25,90,-180,30,-60,1
3550,70,0,942.352,1,150,1,0.25,2,3,0.0,1.0,12,45.0,30.0,3,0.35100000000000003,0.0,943.768,0.2,1,2018-06-20 08:48:00.000,41,2018-06-20 09:03:42.352,0.25,90,-180,30,-60,1
3551,71,0,950.949,1,150,1,0.25,2,3,0.0,1.0,12,45.0,30.0,3,0.35100000000000003,0.0,952.669,0.2,1,2018-06-20 08:48:00.000,41,2018-06-20 09:03:50.949,0.25,90,-180,30,-60,1
3552,72,0,960.161,1,150,1,0.25,2,9,0.0,1.0,6,45.0,30.0,9,0.301,0.0,961.833,0.0,0,2018-06-20 08:48:00.000,41,2018-06-20 09:04:00.161,0.25,90,0,-150,-60,1
3553,74,0,984.666,1,150,1,0.25,2,3,0.0,1.0,12,45.0,30.0,3,0.401,0.0,985.801,0.2,1,2018-06-20 08:48:00.000,41,2018-06-20 09:04:24.666,0.25,90,-180,30,-60,1
3631,100,0,1157.759,1,-30,1,0.25,2,9,0.0,1.0,6,45.0,30.0,9,0.301,1.0,1160.731,0.2,1,2018-06-20 13:50:22.000,210,2018-06-20 14:09:39.759,0.25,-90,0,30,-60,1
3632,101,0,1168.993,1,-30,1,0.25,2,3,0.0,1.0,12,45.0,30.0,3,0.501,0.0,1170.494,0.2,1,2018-06-20 13:50:22.000,210,2018-06-20 14:09:50.993,0.25,90,-180,-150,120,1
3633,102,0,1178.448,1,-30,1,0.25,2,3,0.0,1.0,12,45.0,30.0,3,0.35100000000000003,0.0,1179.911,0.2,1,2018-06-20 13:50:22.000,210,2018-06-20 14:10:00.448,0.25,90,-180,-150,120,1
3634,103,0,1187.502,1,-30,1,0.25,2,9,0.0,1.0,6,45.0,30.0,9,0.401,0.0,1189.265,0.0,0,2018-06-20 13:50:22.000,210,2018-06-20 14:10:09.502,0.25,90,0,30,120,1
3635,105,0,1205.23,1,-30,1,0.25,2,3,0.0,1.0,12,45.0,30.0,3,0.301,0.0,1206.193,0.2,1,2018-06-20 13:50:22.000,210,2018-06-20 14:10:27.230,0.25,90,-180,-150,120,1
3636,106,0,1215.312,1,-30,1,0.25,2,9,0.0,1.0,6,45.0,30.0,9,0.35100000000000003,1.0,1216.472,0.2,1,2018-06-20 13:50:22.000,210,2018-06-20 14:10:37.312,0.25,-90,0,30,-60,1
3637,107,0,1230.743,1,-30,1,0.25,2,3,0.0,1.0,12,45.0,30.0,3,0.501,0.0,1234.326,0.2,1,2018-06-20 13:50:22.000,210,2018-06-20 14:10:52.743,0.25,90,-180,-150,120,1
3638,108,0,1247.798,1,-30,1,0.25,2,3,0.0,1.0,12,45.0,30.0,3,0.301,1.0,1249.208,0.0,0,2018-06-20 13:50:22.000,210,2018-06-20 14:11:09.798,0.25,-90,-180,-150,-60,1
3639,110,0,1589.651,1,-30,1,0.25,2,3,0.0,1.0,12,45.0,30.0,3,0.401,0.0,1598.318,0.2,1,2018-06-20 13:50:22.000,210,2018-06-20 14:16:51.651,0.25,90,-180,-150,120,1
3640,111,0,1606.785,1,-30,1,0.25,2,3,0.0,1.0,12,45.0,30.0,3,0.301,1.0,1608.9260000000004,0.0,0,2018-06-20 13:50:22.000,210,2018-06-20 14:17:08.785,0.25,-90,-180,-150,-60,1
3718,103,0,1703.822,1,-150,1,0.25,2,3,0.0,1.0,12,45.0,30.0,3,0.501,0.0,1706.965,0.2,1,2018-06-21 08:47:19.000,179,2018-06-21 09:15:42.822,0.25,90,-180,-30,-120,1
3719,104,0,1714.136,1,-150,1,0.25,2,9,0.0,1.0,6,45.0,30.0,9,0.451,0.0,1715.814,0.0,0,2018-06-21 08:47:19.000,179,2018-06-21 09:15:53.136,0.25,90,0,150,-120,1
3720,106,0,1732.078,1,-150,1,0.25,2,3,0.0,1.0,12,45.0,30.0,3,0.501,0.0,1733.691,0.2,1,2018-06-21 08:47:19.000,179,2018-06-21 09:16:11.078,0.25,90,-180,-30,-120,1
3721,107,0,1750.1370000000004,1,-150,1,0.25,2,3,0.0,1.0,12,45.0,30.0,3,0.35100000000000003,0.0,1751.536,0.2,1,2018-06-21 08:47:19.000,179,2018-06-21 09:16:29.137,0.25,90,-180,-30,-120,1
3722,108,0,1761.945,1,-150,1,0.25,2,3,0.0,1.0,12,45.0,30.0,3,0.301,0.0,1764.374,0.2,1,2018-06-21 08:47:19.000,179,2018-06-21 09:16:40.945,0.25,90,-180,-30,-120,1
3723,109,0,1774.172,1,-150,1,0.25,2,9,0.0,1.0,6,45.0,30.0,9,0.401,1.0,1775.572,0.2,1,2018-06-21 08:47:19.000,179,2018-06-21 09:16:53.172,0.25,-90,0,150,60,1
3724,110,0,1785.9070000000004,1,-150,1,0.25,2,9,0.0,1.0,6,45.0,30.0,9,0.451,0.0,1787.4129999999998,0.0,0,2018-06-21 08:47:19.000,179,2018-06-21 09:17:04.907,0.25,90,0,150,-120,1
3725,114,0,1837.559,1,-150,1,0.25,2,3,0.0,1.0,12,45.0,30.0,3,0.451,0.0,1839.254,0.2,1,2018-06-21 08:47:19.000,179,2018-06-21 09:17:56.559,0.25,90,-180,-30,-120,1
3726,115,0,1853.782,1,-150,1,0.25,2,3,0.0,1.0,12,45.0,30.0,3,0.301,0.0,1855.021,0.2,1,2018-06-21 08:47:19.000,179,2018-06-21 09:18:12.782,0.25,90,-180,-30,-120,1
3727,116,0,1864.467,1,-150,1,0.25,2,9,0.0,1.0,6,45.0,30.0,9,0.451,0.0,1866.237,0.0,0,2018-06-21 08:47:19.000,179,2018-06-21 09:18:23.467,0.25,90,0,150,-120,1
3782,68,0,1060.697,1,30,1,0.25,2,3,0.0,1.0,12,45.0,30.0,3,0.35100000000000003,0.0,1062.226,0.2,1,2018-06-21 14:11:27.000,147,2018-06-21 14:29:07.697,0.25,90,-180,150,60,1
3783,69,0,1108.204,1,30,1,0.25,2,3,0.0,1.0,12,45.0,30.0,3,0.401,0.0,1109.606,0.2,1,2018-06-21 14:11:27.000,147,2018-06-21 14:29:55.204,0.25,90,-180,150,60,1
3784,70,0,1117.275,1,30,1,0.25,2,9,0.0,1.0,6,45.0,30.0,9,0.301,0.0,1119.149,0.0,0,2018-06-21 14:11:27.000,147,2018-06-21 14:30:04.275,0.25,90,0,-30,60,1
3785,72,0,1142.411,1,30,1,0.25,2,9,0.0,1.0,6,45.0,30.0,9,0.401,1.0,1143.737,0.2,1,2018-06-21 14:11:27.000,147,2018-06-21 14:30:29.411,0.25,-90,0,-30,-120,1
3786,73,0,1155.634,1,30,1,0.25,2,9,0.0,1.0,6,45.0,30.0,9,0.301,0.0,1157.621,0.0,0,2018-06-21 14:11:27.000,147,2018-06-21 14:30:42.634,0.25,90,0,-30,60,1
3787,75,0,1183.01,1,30,1,0.25,2,9,0.0,1.0,6,45.0,30.0,9,0.451,0.0,1186.966,0.0,0,2018-06-21 14:11:27.000,147,2018-06-21 14:31:10.010,0.25,90,0,-30,60,1
3788,77,0,1215.091,1,30,1,0.25,2,9,0.0,1.0,6,45.0,30.0,9,0.501,1.0,1217.953,0.2,1,2018-06-21 14:11:27.000,147,2018-06-21 14:31:42.091,0.25,-90,0,-30,-120,1
3789,78,0,1237.758,1,30,1,0.25,2,9,0.0,1.0,6,45.0,30.0,9,0.401,0.0,1239.377,0.0,0,2018-06-21 14:11:27.000,147,2018-06-21 14:32:04.758,0.25,90,0,-30,60,1
3790,80,0,1293.56,1,30,1,0.25,2,9,0.0,1.0,6,45.0,30.0,9,0.301,1.0,1296.102,0.2,1,2018-06-21 14:11:27.000,147,2018-06-21 14:33:00.560,0.25,-90,0,-30,-120,1
3791,81,0,1418.124,1,30,1,0.25,2,9,0.0,1.0,6,45.0,30.0,9,0.451,0.0,1420.382,0.0,0,2018-06-21 14:11:27.000,147,2018-06-21 14:35:05.124,0.25,90,0,-30,60,1
3830,46,0,950.033,1,0,1,0.25,2,3,0.0,1.0,12,45.0,30.0,3,0.501,0.0,951.663,0.2,1,2018-06-22 07:06:59.000,146,2018-06-22 07:22:49.033,0.25,90,-180,-180,90,1
3831,47,0,959.846,1,0,1,0.25,2,9,0.0,1.0,6,45.0,30.0,9,0.301,1.0,961.23,0.2,1,2018-06-22 07:06:59.000,146,2018-06-22 07:22:58.846,0.25,-90,0,0,-90,1
3832,48,0,971.688,1,0,1,0.25,2,9,0.0,1.0,6,45.0,30.0,9,0.401,0.0,974.05,0.0,0,2018-06-22 07:06:59.000,146,2018-06-22 07:23:10.688,0.25,90,0,0,90,1
3833,52,0,1005.1,1,0,1,0.25,2,3,0.0,1.0,12,45.0,30.0,3,0.501,0.0,1006.118,0.2,1,2018-06-22 07:06:59.000,146,2018-06-22 07:23:44.100,0.25,90,-180,-180,90,1
3834,53,0,1014.814,1,0,1,0.25,2,9,0.0,1.0,6,45.0,30.0,9,0.451,1.0,1016.52,0.2,1,2018-06-22 07:06:59.000,146,2018-06-22 07:23:53.814,0.25,-90,0,0,-90,1
3835,54,0,1033.157,1,0,1,0.25,2,9,0.0,1.0,6,45.0,30.0,9,0.401,1.0,1034.797,0.2,1,2018-06-22 07:06:59.000,146,2018-06-22 07:24:12.157,0.25,-90,0,0,-90,1
3836,55,0,1047.705,1,0,1,0.25,2,3,0.0,1.0,12,45.0,30.0,3,0.35100000000000003,0.0,1049.133,0.2,1,2018-06-22 07:06:59.000,146,2018-06-22 07:24:26.705,0.25,90,-180,-180,90,1
3837,56,0,1070.495,1,0,1,0.25,2,9,0.0,1.0,6,45.0,30.0,9,0.401,0.0,1071.67,0.0,0,2018-06-22 07:06:59.000,146,2018-06-22 07:24:49.495,0.25,90,0,0,90,1
3838,58,0,1127.299,1,0,1,0.25,2,9,0.0,1.0,6,45.0,30.0,9,0.301,0.0,1154.1760000000004,0.0,0,2018-06-22 07:06:59.000,146,2018-06-22 07:25:46.299,0.25,90,0,0,90,1
3839,60,0,1557.989,1,0,1,0.25,2,9,0.0,1.0,6,45.0,30.0,9,0.451,1.0,1562.152,0.2,1,2018-06-22 07:06:59.000,146,2018-06-22 07:32:56.989,0.25,-90,0,0,-90,1
3896,79,0,1237.981,1,180,1,0.25,2,9,0.0,1.0,6,45.0,30.0,9,0.501,0.0,1239.585,0.0,0,2018-06-22 13:40:58.000,90,2018-06-22 14:01:35.981,0.25,90,0,-180,-90,1
3897,81,0,1260.076,1,180,1,0.25,2,9,0.0,1.0,6,45.0,30.0,9,0.401,1.0,1261.221,0.2,1,2018-06-22 13:40:58.000,90,2018-06-22 14:01:58.076,0.25,-90,0,-180,90,1
3898,82,0,1270.063,1,180,1,0.25,2,9,0.0,1.0,6,45.0,30.0,9,0.451,1.0,1271.331,0.2,1,2018-06-22 13:40:58.000,90,2018-06-22 14:02:08.063,0.25,-90,0,-180,90,1
3899,83,0,1283.207,1,180,1,0.25,2,9,0.0,1.0,6,45.0,30.0,9,0.301,0.0,1286.893,0.0,0,2018-06-22 13:40:58.000,90,2018-06-22 14:02:21.207,0.25,90,0,-180,-90,1
3900,85,0,1305.239,1,180,1,0.25,2,9,0.0,1.0,6,45.0,30.0,9,0.501,0.0,1306.894,0.0,0,2018-06-22 13:40:58.000,90,2018-06-22 14:02:43.239,0.25,90,0,-180,-90,1
3901,90,0,1352.821,1,180,1,0.25,2,3,0.0,1.0,12,45.0,30.0,3,0.451,0.0,1355.1229999999996,0.2,1,2018-06-22 13:40:58.000,90,2018-06-22 14:03:30.821,0.25,90,-180,0,-90,1
3902,91,0,1364.017,1,180,1,0.25,2,3,0.0,1.0,12,45.0,30.0,3,0.301,0.0,1365.608,0.2,1,2018-06-22 13:40:58.000,90,2018-06-22 14:03:42.017,0.25,90,-180,0,-90,1
3903,92,0,1383.894,1,180,1,0.25,2,9,0.0,1.0,6,45.0,30.0,9,0.401,1.0,1384.987,0.2,1,2018-06-22 13:40:58.000,90,2018-06-22 14:04:01.894,0.25,-90,0,-180,90,1
3904,93,0,1394.315,1,180,1,0.25,2,9,0.0,1.0,6,45.0,30.0,9,0.501,0.0,1396.504,0.0,0,2018-06-22 13:40:58.000,90,2018-06-22 14:04:12.315,0.25,90,0,-180,-90,1
3905,96,0,1424.319,1,180,1,0.25,2,3,0.0,1.0,12,45.0,30.0,3,0.451,1.0,1425.906,0.0,0,2018-06-22 13:40:58.000,90,2018-06-22 14:04:42.319,0.25,-90,-180,0,90,1
3941,41,0,602.347,1,0,1,0.25,2,3,0.0,1.0,12,45.0,30.0,3,0.301,0.0,603.562,0.2,1,2018-06-25 10:01:41.000,46,2018-06-25 10:11:43.347,0.25,90,-180,-180,90,1
3942,42,0,613.321,1,0,1,0.25,2,9,0.0,1.0,6,45.0,30.0,9,0.35100000000000003,1.0,615.097,0.2,1,2018-06-25 10:01:41.000,46,2018-06-25 10:11:54.321,0.25,-90,0,0,-90,1
3943,43,0,624.256,1,0,1,0.25,2,3,0.0,1.0,12,45.0,30.0,3,0.451,0.0,626.115,0.2,1,2018-06-25 10:01:41.000,46,2018-06-25 10:12:05.256,0.25,90,-180,-180,90,1
3944,44,0,638.567,1,0,1,0.25,2,3,0.0,1.0,12,45.0,30.0,3,0.501,0.0,639.918,0.2,1,2018-06-25 10:01:41.000,46,2018-06-25 10:12:19.567,0.25,90,-180,-180,90,1
3945,45,0,649.0369999999998,1,0,1,0.25,2,3,0.0,1.0,12,45.0,30.0,3,0.401,0.0,650.273,0.2,1,2018-06-25 10:01:41.000,46,2018-06-25 10:12:30.037,0.25,90,-180,-180,90,1
3946,46,0,660.117,1,0,1,0.25,2,9,0.0,1.0,6,45.0,30.0,9,0.501,1.0,661.683,0.2,1,2018-06-25 10:01:41.000,46,2018-06-25 10:12:41.117,0.25,-90,0,0,-90,1
3947,47,0,670.456,1,0,1,0.25,2,3,0.0,1.0,12,45.0,30.0,3,0.401,0.0,672.005,0.2,1,2018-06-25 10:01:41.000,46,2018-06-25 10:12:51.456,0.25,90,-180,-180,90,1
3948,48,0,678.7230000000002,1,0,1,0.25,2,9,0.0,1.0,6,45.0,30.0,9,0.451,0.0,679.988,0.0,0,2018-06-25 10:01:41.000,46,2018-06-25 10:12:59.723,0.25,90,0,0,90,1
3949,50,0,709.414,1,0,1,0.25,2,9,0.0,1.0,6,45.0,30.0,9,0.35100000000000003,1.0,710.909,0.2,1,2018-06-25 10:01:41.000,46,2018-06-25 10:13:30.414,0.25,-90,0,0,-90,1
3950,51,0,717.436,1,0,1,0.25,2,9,0.0,1.0,6,45.0,30.0,9,0.401,0.0,720.1060000000001,0.0,0,2018-06-25 10:01:41.000,46,2018-06-25 10:13:38.436,0.25,90,0,0,90,1
4112,39,0,532.408,1,150,1,0.25,2,3,0.0,1.0,12,45.0,30.0,3,0.401,0.0,533.997,0.2,1,2018-06-27 10:02:24.000,209,2018-06-27 10:11:16.408,0.25,90,-180,30,-60,1
4113,40,0,549.127,1,150,1,0.25,2,9,0.0,1.0,6,45.0,30.0,9,0.35100000000000003,1.0,550.031,0.2,1,2018-06-27 10:02:24.000,209,2018-06-27 10:11:33.127,0.25,-90,0,-150,120,1
4114,41,0,562.798,1,150,1,0.25,2,3,0.0,1.0,12,45.0,30.0,3,0.401,0.0,564.298,0.2,1,2018-06-27 10:02:24.000,209,2018-06-27 10:11:46.798,0.25,90,-180,30,-60,1
4115,42,0,570.487,1,150,1,0.25,2,3,0.0,1.0,12,45.0,30.0,3,0.451,0.0,572.146,0.2,1,2018-06-27 10:02:24.000,209,2018-06-27 10:11:54.487,0.25,90,-180,30,-60,1
4116,43,0,578.813,1,150,1,0.25,2,9,0.0,1.0,6,45.0,30.0,9,0.501,0.0,581.484,0.0,0,2018-06-27 10:02:24.000,209,2018-06-27 10:12:02.813,0.25,90,0,-150,-60,1
4117,46,0,609.2769999999998,1,150,1,0.25,2,9,0.0,1.0,6,45.0,30.0,9,0.501,0.0,610.918,0.0,0,2018-06-27 10:02:24.000,209,2018-06-27 10:12:33.277,0.25,90,0,-150,-60,1
4118,48,0,627.46,1,150,1,0.25,2,3,0.0,1.0,12,45.0,30.0,3,0.35100000000000003,0.0,628.883,0.2,1,2018-06-27 10:02:24.000,209,2018-06-27 10:12:51.460,0.25,90,-180,30,-60,1
4119,49,0,635.096,1,150,1,0.25,2,9,0.0,1.0,6,45.0,30.0,9,0.301,1.0,643.7040000000002,0.2,1,2018-06-27 10:02:24.000,209,2018-06-27 10:12:59.096,0.25,-90,0,-150,120,1
4120,50,0,657.573,1,150,1,0.25,2,3,0.0,1.0,12,45.0,30.0,3,0.401,0.0,658.7539999999998,0.2,1,2018-06-27 10:02:24.000,209,2018-06-27 10:13:21.573,0.25,90,-180,30,-60,1
4121,51,0,665.6060000000001,1,150,1,0.25,2,9,0.0,1.0,6,45.0,30.0,9,0.301,1.0,667.312,0.2,1,2018-06-27 10:02:24.000,209,2018-06-27 10:13:29.606,0.25,-90,0,-150,120,1
4160,46,0,615.382,1,-120,1,0.25,2,3,0.0,1.0,12,45.0,30.0,3,0.501,0.0,616.548,0.2,1,2018-06-27 14:52:38.000,109,2018-06-27 15:02:53.382,0.25,90,-180,-60,-150,1
4161,47,0,624.297,1,-120,1,0.25,2,9,0.0,1.0,6,45.0,30.0,9,0.401,0.0,626.365,0.0,0,2018-06-27 14:52:38.000,109,2018-06-27 15:03:02.297,0.25,90,0,120,-150,1
4162,50,0,649.765,1,-120,1,0.25,2,3,0.0,1.0,12,45.0,30.0,3,0.35100000000000003,0.0,652.516,0.2,1,2018-06-27 14:52:38.000,109,2018-06-27 15:03:27.765,0.25,90,-180,-60,-150,1
4163,51,0,659.291,1,-120,1,0.25,2,3,0.0,1.0,12,45.0,30.0,3,0.501,0.0,660.6460000000002,0.2,1,2018-06-27 14:52:38.000,109,2018-06-27 15:03:37.291,0.25,90,-180,-60,-150,1
4164,52,0,667.947,1,-120,1,0.25,2,9,0.0,1.0,6,45.0,30.0,9,0.301,0.0,669.4,0.0,0,2018-06-27 14:52:38.000,109,2018-06-27 15:03:45.947,0.25,90,0,120,-150,1
4165,56,0,699.85,1,-120,1,0.25,2,3,0.0,1.0,12,45.0,30.0,3,0.501,0.0,701.535,0.2,1,2018-06-27 14:52:38.000,109,2018-06-27 15:04:17.850,0.25,90,-180,-60,-150,1
4166,57,0,707.961,1,-120,1,0.25,2,9,0.0,1.0,6,45.0,30.0,9,0.401,0.0,709.622,0.0,0,2018-06-27 14:52:38.000,109,2018-06-27 15:04:25.961,0.25,90,0,120,-150,1
4167,59,0,733.052,1,-120,1,0.25,2,9,0.0,1.0,6,45.0,30.0,9,0.35100000000000003,0.0,735.6360000000002,0.0,0,2018-06-27 14:52:38.000,109,2018-06-27 15:04:51.052,0.25,90,0,120,-150,1
4168,63,0,781.367,1,-120,1,0.25,2,3,0.0,1.0,12,45.0,30.0,3,0.301,0.0,784.26,0.2,1,2018-06-27 14:52:38.000,109,2018-06-27 15:05:39.367,0.25,90,-180,-60,-150,1
4169,64,0,790.993,1,-120,1,0.25,2,9,0.0,1.0,6,45.0,30.0,9,0.451,0.0,792.215,0.0,0,2018-06-27 14:52:38.000,109,2018-06-27 15:05:48.993,0.25,90,0,120,-150,1
4213,57,0,723.6089999999998,1,60,1,0.25,2,9,0.0,1.0,6,45.0,30.0,9,0.401,1.0,725.043,0.2,1,2018-06-28 08:22:14.000,135,2018-06-28 08:34:17.609,0.25,-90,0,-60,-150,1
4214,58,0,736.453,1,60,1,0.25,2,3,0.0,1.0,12,45.0,30.0,3,0.301,0.0,737.7719999999998,0.2,1,2018-06-28 08:22:14.000,135,2018-06-28 08:34:30.453,0.25,90,-180,120,30,1
4215,59,0,748.5139999999999,1,60,1,0.25,2,3,0.0,1.0,12,45.0,30.0,3,0.35100000000000003,0.0,749.4639999999998,0.2,1,2018-06-28 08:22:14.000,135,2018-06-28 08:34:42.514,0.25,90,-180,120,30,1
4216,60,0,758.5989999999998,1,60,1,0.25,2,9,0.0,1.0,6,45.0,30.0,9,0.451,1.0,759.97,0.2,1,2018-06-28 08:22:14.000,135,2018-06-28 08:34:52.599,0.25,-90,0,-60,-150,1
4217,61,0,771.7510000000002,1,60,1,0.25,2,3,0.0,1.0,12,45.0,30.0,3,0.301,0.0,773.183,0.2,1,2018-06-28 08:22:14.000,135,2018-06-28 08:35:05.751,0.25,90,-180,120,30,1
4218,62,0,779.507,1,60,1,0.25,2,3,0.0,1.0,12,45.0,30.0,3,0.501,0.0,780.212,0.2,1,2018-06-28 08:22:14.000,135,2018-06-28 08:35:13.507,0.25,90,-180,120,30,1
4219,63,0,787.8989999999999,1,60,1,0.25,2,9,0.0,1.0,6,45.0,30.0,9,0.451,0.0,790.7710000000002,0.0,0,2018-06-28 08:22:14.000,135,2018-06-28 08:35:21.899,0.25,90,0,-60,30,1
4220,65,0,810.717,1,60,1,0.25,2,9,0.0,1.0,6,45.0,30.0,9,0.35100000000000003,0.0,812.173,0.0,0,2018-06-28 08:22:14.000,135,2018-06-28 08:35:44.717,0.25,90,0,-60,30,1
4221,69,0,857.654,1,60,1,0.25,2,3,0.0,1.0,12,45.0,30.0,3,0.501,0.0,858.821,0.2,1,2018-06-28 08:22:14.000,135,2018-06-28 08:36:31.654,0.25,90,-180,120,30,1
4222,70,0,866.066,1,60,1,0.25,2,9,0.0,1.0,6,45.0,30.0,9,0.301,0.0,868.3789999999998,0.0,0,2018-06-28 08:22:14.000,135,2018-06-28 08:36:40.066,0.25,90,0,-60,30,1
4276,75,0,998.423,1,-60,1,0.25,2,3,0.0,1.0,12,45.0,30.0,3,0.501,0.0,999.714,0.2,1,2018-06-28 14:15:57.000,1,2018-06-28 14:32:35.423,0.25,90,-180,-120,150,1
4277,76,0,1008.108,1,-60,1,0.25,2,9,0.0,1.0,6,45.0,30.0,9,0.301,0.0,1009.033,0.0,0,2018-06-28 14:15:57.000,1,2018-06-28 14:32:45.108,0.25,90,0,60,150,1
4278,82,0,1046.606,1,-60,1,0.25,2,3,0.0,1.0,12,45.0,30.0,3,0.401,0.0,1048.346,0.2,1,2018-06-28 14:15:57.000,1,2018-06-28 14:33:23.606,0.25,90,-180,-120,150,1
4279,83,0,1054.927,1,-60,1,0.25,2,3,0.0,1.0,12,45.0,30.0,3,0.35100000000000003,0.0,1056.18,0.2,1,2018-06-28 14:15:57.000,1,2018-06-28 14:33:31.927,0.25,90,-180,-120,150,1
4280,84,0,1073.537,1,-60,1,0.25,2,3,0.0,1.0,12,45.0,30.0,3,0.301,0.0,1074.62,0.2,1,2018-06-28 14:15:57.000,1,2018-06-28 14:33:50.537,0.25,90,-180,-120,150,1
4281,85,0,1082.461,1,-60,1,0.25,2,3,0.0,1.0,12,45.0,30.0,3,0.501,0.0,1083.588,0.2,1,2018-06-28 14:15:57.000,1,2018-06-28 14:33:59.461,0.25,90,-180,-120,150,1
4282,86,0,1091.282,1,-60,1,0.25,2,3,0.0,1.0,12,45.0,30.0,3,0.451,0.0,1086.943,0.2,1,2018-06-28 14:15:57.000,1,2018-06-28 14:34:08.282,0.25,90,-180,-120,150,1
4283,87,0,1100.659,1,-60,1,0.25,2,3,0.0,1.0,12,45.0,30.0,3,0.35100000000000003,0.0,1101.877,0.2,1,2018-06-28 14:15:57.000,1,2018-06-28 14:34:17.659,0.25,90,-180,-120,150,1
4284,88,0,1111.704,1,-60,1,0.25,2,9,0.0,1.0,6,45.0,30.0,9,0.501,1.0,1114.108,0.2,1,2018-06-28 14:15:57.000,1,2018-06-28 14:34:28.704,0.25,-90,0,60,-30,1
4285,89,0,1125.113,1,-60,1,0.25,2,9,0.0,1.0,6,45.0,30.0,9,0.401,0.0,1127.251,0.0,0,2018-06-28 14:15:57.000,1,2018-06-28 14:34:42.113,0.25,90,0,60,150,1
4331,67,0,985.737,1,-90,1,0.25,2,9,0.0,1.0,6,45.0,30.0,9,0.35100000000000003,0.0,987.436,0.0,0,2018-06-29 08:34:05.000,77,2018-06-29 08:50:30.737,0.25,90,0,90,-180,1
4332,71,0,1016.298,1,-90,1,0.25,2,9,0.0,1.0,6,45.0,30.0,9,0.451,1.0,1017.625,0.2,1,2018-06-29 08:34:05.000,77,2018-06-29 08:51:01.298,0.25,-90,0,90,0,1
4333,72,0,1056.169,1,-90,1,0.25,2,9,0.0,1.0,6,45.0,30.0,9,0.501,1.0,1064.423,0.2,1,2018-06-29 08:34:05.000,77,2018-06-29 08:51:41.169,0.25,-90,0,90,0,1
4334,73,0,1069.154,1,-90,1,0.25,2,9,0.0,1.0,6,45.0,30.0,9,0.401,0.0,1071.076,0.0,0,2018-06-29 08:34:05.000,77,2018-06-29 08:51:54.154,0.25,90,0,90,-180,1
4335,76,0,1088.933,1,-90,1,0.25,2,3,0.0,1.0,12,45.0,30.0,3,0.451,0.0,1091.059,0.2,1,2018-06-29 08:34:05.000,77,2018-06-29 08:52:13.933,0.25,90,-180,-90,-180,1
4336,77,0,1104.101,1,-90,1,0.25,2,3,0.0,1.0,12,45.0,30.0,3,0.501,0.0,1105.246,0.2,1,2018-06-29 08:34:05.000,77,2018-06-29 08:52:29.101,0.25,90,-180,-90,-180,1
4337,78,0,1112.254,1,-90,1,0.25,2,9,0.0,1.0,6,45.0,30.0,9,0.35100000000000003,0.0,1113.356,0.0,0,2018-06-29 08:34:05.000,77,2018-06-29 08:52:37.254,0.25,90,0,90,-180,1
4338,80,0,1148.933,1,-90,1,0.25,2,9,0.0,1.0,6,45.0,30.0,9,0.301,0.0,1150.874,0.0,0,2018-06-29 08:34:05.000,77,2018-06-29 08:53:13.933,0.25,90,0,90,-180,1
4339,82,0,1164.648,1,-90,1,0.25,2,9,0.0,1.0,6,45.0,30.0,9,0.301,1.0,1165.897,0.2,1,2018-06-29 08:34:05.000,77,2018-06-29 08:53:29.648,0.25,-90,0,90,0,1
4340,83,0,1179.214,1,-90,1,0.25,2,3,0.0,1.0,12,45.0,30.0,3,0.35100000000000003,0.0,1181.054,0.2,1,2018-06-29 08:34:05.000,77,2018-06-29 08:53:44.214,0.25,90,-180,-90,-180,1
4400,76,0,950.04,1,0,1,0.25,2,9,0.0,1.0,6,45.0,30.0,9,0.401,0.0,951.41,0.0,0,2018-06-29 15:11:06.000,104,2018-06-29 15:26:56.040,0.25,90,0,0,90,1
4401,78,0,976.125,1,0,1,0.25,2,9,0.0,1.0,6,45.0,30.0,9,0.35100000000000003,0.0,977.655,0.0,0,2018-06-29 15:11:06.000,104,2018-06-29 15:27:22.125,0.25,90,0,0,90,1
4402,81,0,1002.245,1,0,1,0.25,2,3,0.0,1.0,12,45.0,30.0,3,0.35100000000000003,0.0,1003.309,0.2,1,2018-06-29 15:11:06.000,104,2018-06-29 15:27:48.245,0.25,90,-180,-180,90,1
4403,82,0,1010.485,1,0,1,0.25,2,3,0.0,1.0,12,45.0,30.0,3,0.451,0.0,1011.325,0.2,1,2018-06-29 15:11:06.000,104,2018-06-29 15:27:56.485,0.25,90,-180,-180,90,1
4404,83,0,1018.216,1,0,1,0.25,2,3,0.0,1.0,12,45.0,30.0,3,0.401,0.0,1019.144,0.2,1,2018-06-29 15:11:06.000,104,2018-06-29 15:28:04.216,0.25,90,-180,-180,90,1
4405,84,0,1027.686,1,0,1,0.25,2,3,0.0,1.0,12,45.0,30.0,3,0.301,0.0,1028.748,0.2,1,2018-06-29 15:11:06.000,104,2018-06-29 15:28:13.686,0.25,90,-180,-180,90,1
4406,85,0,1045.579,1,0,1,0.25,2,3,0.0,1.0,12,45.0,30.0,3,0.501,0.0,1046.644,0.2,1,2018-06-29 15:11:06.000,104,2018-06-29 15:28:31.579,0.25,90,-180,-180,90,1
4407,86,0,1052.927,1,0,1,0.25,2,9,0.0,1.0,6,45.0,30.0,9,0.301,1.0,1054.849,0.2,1,2018-06-29 15:11:06.000,104,2018-06-29 15:28:38.927,0.25,-90,0,0,-90,1
4408,87,0,1061.107,1,0,1,0.25,2,9,0.0,1.0,6,45.0,30.0,9,0.401,1.0,1062.556,0.2,1,2018-06-29 15:11:06.000,104,2018-06-29 15:28:47.107,0.25,-90,0,0,-90,1
4409,88,0,1108.861,1,0,1,0.25,2,9,0.0,1.0,6,45.0,30.0,9,0.35100000000000003,0.0,1112.019,0.0,0,2018-06-29 15:11:06.000,104,2018-06-29 15:29:34.861,0.25,90,0,0,90,1
4629,60,0,852.4730000000002,1,90,1,0.25,2,9,0.0,1.0,6,45.0,30.0,9,0.401,1.0,853.847,0.2,1,2018-07-10 14:47:01.000,102,2018-07-10 15:01:13.473,0.25,-90,0,-90,-180,1
4630,61,0,872.5930000000002,1,90,1,0.25,2,3,0.0,1.0,12,45.0,30.0,3,0.35100000000000003,0.0,874.043,0.2,1,2018-07-10 14:47:01.000,102,2018-07-10 15:01:33.593,0.25,90,-180,90,0,1
4631,62,0,882.579,1,90,1,0.25,2,3,0.0,1.0,12,45.0,30.0,3,0.451,0.0,884.038,0.2,1,2018-07-10 14:47:01.000,102,2018-07-10 15:01:43.579,0.25,90,-180,90,0,1
4632,63,0,891.791,1,90,1,0.25,2,3,0.0,1.0,12,45.0,30.0,3,0.401,0.0,892.847,0.2,1,2018-07-10 14:47:01.000,102,2018-07-10 15:01:52.791,0.25,90,-180,90,0,1
4633,64,0,900.2760000000002,1,90,1,0.25,2,3,0.0,1.0,12,45.0,30.0,3,0.301,0.0,901.579,0.2,1,2018-07-10 14:47:01.000,102,2018-07-10 15:02:01.276,0.25,90,-180,90,0,1
4634,65,0,908.244,1,90,1,0.25,2,3,0.0,1.0,12,45.0,30.0,3,0.501,0.0,909.264,0.2,1,2018-07-10 14:47:01.000,102,2018-07-10 15:02:09.244,0.25,90,-180,90,0,1
4635,66,0,917.191,1,90,1,0.25,2,3,0.0,1.0,12,45.0,30.0,3,0.35100000000000003,0.0,918.337,0.2,1,2018-07-10 14:47:01.000,102,2018-07-10 15:02:18.191,0.25,90,-180,90,0,1
4636,67,0,926.023,1,90,1,0.25,2,9,0.0,1.0,6,45.0,30.0,9,0.401,1.0,930.309,0.2,1,2018-07-10 14:47:01.000,102,2018-07-10 15:02:27.023,0.25,-90,0,-90,-180,1
4637,68,0,935.744,1,90,1,0.25,2,3,0.0,1.0,12,45.0,30.0,3,0.301,0.0,936.976,0.2,1,2018-07-10 14:47:01.000,102,2018-07-10 15:02:36.744,0.25,90,-180,90,0,1
4638,69,0,944.698,1,90,1,0.25,2,9,0.0,1.0,6,45.0,30.0,9,0.501,0.0,950.314,0.0,0,2018-07-10 14:47:01.000,102,2018-07-10 15:02:45.698,0.25,90,0,-90,0,1
4676,50,0,623.73,1,120,1,0.25,2,3,0.0,1.0,12,45.0,30.0,3,0.301,0.0,625.008,0.2,1,2018-07-11 09:09:17.000,154,2018-07-11 09:19:40.730,0.25,90,-180,60,-30,1
4677,51,0,631.632,1,120,1,0.25,2,9,0.0,1.0,6,45.0,30.0,9,0.451,1.0,632.9209999999998,0.25,1,2018-07-11 09:09:17.000,154,2018-07-11 09:19:48.632,0.25,-90,0,-120,150,1
4678,52,0,641.238,1,120,1,0.25,2,3,0.0,1.0,12,45.0,30.0,3,0.501,0.0,642.344,0.2,1,2018-07-11 09:09:17.000,154,2018-07-11 09:19:58.238,0.25,90,-180,60,-30,1
4679,53,0,648.352,1,120,1,0.25,2,9,0.0,1.0,6,45.0,30.0,9,0.35100000000000003,1.0,650.488,0.25,1,2018-07-11 09:09:17.000,154,2018-07-11 09:20:05.352,0.25,-90,0,-120,150,1
4680,54,0,659.8510000000001,1,120,1,0.25,2,3,0.0,1.0,12,45.0,30.0,3,0.301,0.0,660.918,0.2,1,2018-07-11 09:09:17.000,154,2018-07-11 09:20:16.851,0.25,90,-180,60,-30,1
4681,55,0,666.115,1,120,1,0.25,2,9,0.0,1.0,6,45.0,30.0,9,0.401,1.0,669.7710000000002,0.25,1,2018-07-11 09:09:17.000,154,2018-07-11 09:20:23.115,0.25,-90,0,-120,150,1
4682,56,0,689.956,1,120,1,0.25,2,3,0.0,1.0,12,45.0,30.0,3,0.35100000000000003,0.0,691.2289999999998,0.2,1,2018-07-11 09:09:17.000,154,2018-07-11 09:20:46.956,0.25,90,-180,60,-30,1
4683,57,0,697.658,1,120,1,0.25,2,9,0.0,1.0,6,45.0,30.0,9,0.451,1.0,699.3639999999998,0.25,1,2018-07-11 09:09:17.000,154,2018-07-11 09:20:54.658,0.25,-90,0,-120,150,1
4684,58,0,717.318,1,120,1,0.25,2,9,0.0,1.0,6,45.0,30.0,9,0.501,0.0,718.689,0.0,0,2018-07-11 09:09:17.000,154,2018-07-11 09:21:14.318,0.25,90,0,-120,-30,1
4685,60,0,728.922,1,120,1,0.25,2,3,0.0,1.0,12,45.0,30.0,3,0.401,0.0,730.2080000000002,0.2,1,2018-07-11 09:09:17.000,154,2018-07-11 09:21:25.922,0.25,90,-180,60,-30,1
4723,44,0,920.538,1,60,1,0.25,2,3,0.0,1.0,12,45.0,30.0,3,0.401,0.0,921.695,0.2,1,2018-07-11 15:09:07.000,89,2018-07-11 15:24:27.538,0.25,90,-180,120,30,1
4724,45,0,943.5,1,60,1,0.25,2,3,0.0,1.0,12,45.0,30.0,3,0.501,0.0,955.163,0.2,1,2018-07-11 15:09:07.000,89,2018-07-11 15:24:50.500,0.25,90,-180,120,30,1
4725,46,0,970.995,1,60,1,0.25,2,3,0.0,1.0,12,45.0,30.0,3,0.451,1.0,980.291,0.0,0,2018-07-11 15:09:07.000,89,2018-07-11 15:25:17.995,0.25,-90,-180,120,-150,1
4726,48,0,999.854,1,60,1,0.25,2,3,0.0,1.0,12,45.0,30.0,3,0.301,0.0,1000.999,0.2,1,2018-07-11 15:09:07.000,89,2018-07-11 15:25:46.854,0.25,90,-180,120,30,1
4727,49,0,1006.59,1,60,1,0.25,2,3,0.0,1.0,12,45.0,30.0,3,0.401,0.0,1007.587,0.2,1,2018-07-11 15:09:07.000,89,2018-07-11 15:25:53.590,0.25,90,-180,120,30,1
4728,50,0,1014.323,1,60,1,0.25,2,9,0.0,1.0,6,45.0,30.0,9,0.501,1.0,1016.296,0.25,1,2018-07-11 15:09:07.000,89,2018-07-11 15:26:01.323,0.25,-90,0,-60,-150,1
4729,51,0,1031.927,1,60,1,0.25,2,3,0.0,1.0,12,45.0,30.0,3,0.35100000000000003,0.0,1039.306,0.2,1,2018-07-11 15:09:07.000,89,2018-07-11 15:26:18.927,0.25,90,-180,120,30,1
4730,52,0,1044.313,1,60,1,0.25,2,3,0.0,1.0,12,45.0,30.0,3,0.301,0.0,1045.871,0.2,1,2018-07-11 15:09:07.000,89,2018-07-11 15:26:31.313,0.25,90,-180,120,30,1
4731,53,0,1057.224,1,60,1,0.25,2,3,0.0,1.0,12,45.0,30.0,3,0.451,0.0,1058.369,0.2,1,2018-07-11 15:09:07.000,89,2018-07-11 15:26:44.224,0.25,90,-180,120,30,1
4732,54,0,1065.467,1,60,1,0.25,2,9,0.0,1.0,6,45.0,30.0,9,0.401,1.0,1066.671,0.25,1,2018-07-11 15:09:07.000,89,2018-07-11 15:26:52.467,0.25,-90,0,-60,-150,1
4756,41,0,633.515,0,150,1,0.25,2,9,0.0,1.0,6,45.0,30.0,9,0.501,1.0,639.936,0.25,1,2018-07-12 09:15:33.000,120,2018-07-12 09:26:06.515,0.25,-90,0,-150,120,1
4757,42,0,649.581,0,150,1,0.25,2,3,0.0,1.0,12,45.0,30.0,3,0.301,0.0,651.371,0.2,1,2018-07-12 09:15:33.000,120,2018-07-12 09:26:22.581,0.25,90,-180,30,-60,1
4758,43,0,676.3610000000001,0,150,1,0.25,2,3,0.0,1.0,12,45.0,30.0,3,0.35100000000000003,0.0,677.882,0.2,1,2018-07-12 09:15:33.000,120,2018-07-12 09:26:49.361,0.25,90,-180,30,-60,1
4759,44,0,685.804,0,150,1,0.25,2,3,0.0,1.0,12,45.0,30.0,3,0.401,0.0,689.054,0.2,1,2018-07-12 09:15:33.000,120,2018-07-12 09:26:58.804,0.25,90,-180,30,-60,1
4760,45,0,698.059,0,150,1,0.25,2,9,0.0,1.0,6,45.0,30.0,9,0.451,0.0,700.8380000000002,0.0,0,2018-07-12 09:15:33.000,120,2018-07-12 09:27:11.059,0.25,90,0,-150,-60,1
4761,47,0,722.818,0,150,1,0.25,2,9,0.0,1.0,6,45.0,30.0,9,0.451,1.0,724.503,0.25,1,2018-07-12 09:15:33.000,120,2018-07-12 09:27:35.818,0.25,-90,0,-150,120,1
4762,48,0,744.084,0,150,1,0.25,2,3,0.0,1.0,12,45.0,30.0,3,0.301,0.0,745.275,0.2,1,2018-07-12 09:15:33.000,120,2018-07-12 09:27:57.084,0.25,90,-180,30,-60,1
4763,49,0,756.742,0,150,1,0.25,2,3,0.0,1.0,12,45.0,30.0,3,0.35100000000000003,0.0,757.904,0.2,1,2018-07-12 09:15:33.000,120,2018-07-12 09:28:09.742,0.25,90,-180,30,-60,1
4764,50,0,784.6239999999998,0,150,1,0.25,2,9,0.0,1.0,6,45.0,30.0,9,0.501,1.0,786.203,0.25,1,2018-07-12 09:15:33.000,120,2018-07-12 09:28:37.624,0.25,-90,0,-150,120,1
4765,51,0,827.9910000000001,0,150,1,0.25,2,9,0.0,1.0,6,45.0,30.0,9,0.501,0.0,851.7819999999998,0.0,0,2018-07-12 09:15:33.000,120,2018-07-12 09:29:20.991,0.25,90,0,-150,-60,1
4808,52,0,781.915,0,180,1,0.25,2,9,0.0,1.0,6,45.0,30.0,9,0.301,0.0,784.127,0.0,0,2018-07-12 15:03:46.000,67,2018-07-12 15:16:47.915,0.25,90,0,-180,-90,1
4809,54,0,817.967,0,180,1,0.25,2,3,0.0,1.0,12,45.0,30.0,3,0.35100000000000003,0.0,819.36,0.2,1,2018-07-12 15:03:46.000,67,2018-07-12 15:17:23.967,0.25,90,-180,0,-90,1
4810,55,0,828.485,0,180,1,0.25,2,9,0.0,1.0,6,45.0,30.0,9,0.501,0.0,829.7489999999998,0.0,0,2018-07-12 15:03:46.000,67,2018-07-12 15:17:34.485,0.25,90,0,-180,-90,1
4811,57,0,846.716,0,180,1,0.25,2,9,0.0,1.0,6,45.0,30.0,9,0.451,1.0,847.543,0.25,1,2018-07-12 15:03:46.000,67,2018-07-12 15:17:52.716,0.25,-90,0,-180,90,1
4812,58,0,862.955,0,180,1,0.25,2,9,0.0,1.0,6,45.0,30.0,9,0.501,1.0,863.975,0.25,1,2018-07-12 15:03:46.000,67,2018-07-12 15:18:08.955,0.25,-90,0,-180,90,1
4813,59,0,878.1439999999999,0,180,1,0.25,2,9,0.0,1.0,6,45.0,30.0,9,0.35100000000000003,0.0,880.709,0.0,0,2018-07-12 15:03:46.000,67,2018-07-12 15:18:24.144,0.25,90,0,-180,-90,1
4814,61,0,895.429,0,180,1,0.25,2,9,0.0,1.0,6,45.0,30.0,9,0.451,1.0,896.5,0.25,1,2018-07-12 15:03:46.000,67,2018-07-12 15:18:41.429,0.25,-90,0,-180,90,1
4815,62,0,906.448,0,180,1,0.25,2,9,0.0,1.0,6,45.0,30.0,9,0.401,0.0,907.728,0.0,0,2018-07-12 15:03:46.000,67,2018-07-12 15:18:52.448,0.25,90,0,-180,-90,1
4816,64,0,922.369,0,180,1,0.25,2,9,0.0,1.0,6,45.0,30.0,9,0.35100000000000003,0.0,923.619,0.0,0,2018-07-12 15:03:46.000,67,2018-07-12 15:19:08.369,0.25,90,0,-180,-90,1
4817,69,0,1002.103,0,180,1,0.25,2,9,0.0,1.0,6,45.0,30.0,9,0.301,0.0,1002.969,0.0,0,2018-07-12 15:03:46.000,67,2018-07-12 15:20:28.103,0.25,90,0,-180,-90,1
4860,58,0,1177.653,0,0,1,0.25,2,9,0.0,1.0,6,45.0,30.0,9,0.301,1.0,1180.45,0.25,1,2018-07-13 08:41:28.000,88,2018-07-13 09:01:05.653,0.25,-90,0,0,-90,1
4861,59,0,1209.756,0,0,1,0.25,2,3,0.0,1.0,12,45.0,30.0,3,0.35100000000000003,0.0,1212.099,0.2,1,2018-07-13 08:41:28.000,88,2018-07-13 09:01:37.756,0.25,90,-180,-180,90,1
4862,60,0,1243.28,0,0,1,0.25,2,3,0.0,1.0,12,45.0,30.0,3,0.501,0.0,1244.419,0.2,1,2018-07-13 08:41:28.000,88,2018-07-13 09:02:11.280,0.25,90,-180,-180,90,1
4863,61,0,1253.297,0,0,1,0.25,2,3,0.0,1.0,12,45.0,30.0,3,0.401,0.0,1254.683,0.2,1,2018-07-13 08:41:28.000,88,2018-07-13 09:02:21.297,0.25,90,-180,-180,90,1
4864,62,0,1265.735,0,0,1,0.25,2,9,0.0,1.0,6,45.0,30.0,9,0.451,1.0,1267.798,0.25,1,2018-07-13 08:41:28.000,88,2018-07-13 09:02:33.735,0.25,-90,0,0,-90,1
4865,63,0,1286.483,0,0,1,0.25,2,9,0.0,1.0,6,45.0,30.0,9,0.501,0.0,1287.786,0.0,0,2018-07-13 08:41:28.000,88,2018-07-13 09:02:54.483,0.25,90,0,0,90,1
4866,65,0,1532.66,0,0,1,0.25,2,3,0.0,1.0,12,45.0,30.0,3,0.301,0.0,1533.838,0.2,1,2018-07-13 08:41:28.000,88,2018-07-13 09:07:00.660,0.25,90,-180,-180,90,1
4867,66,0,1624.507,0,0,1,0.25,2,9,0.0,1.0,6,45.0,30.0,9,0.401,1.0,1626.84,0.25,1,2018-07-13 08:41:28.000,88,2018-07-13 09:08:32.507,0.25,-90,0,0,-90,1
4868,67,0,1646.213,0,0,1,0.25,2,3,0.0,1.0,12,45.0,30.0,3,0.451,0.0,1647.743,0.2,1,2018-07-13 08:41:28.000,88,2018-07-13 09:08:54.213,0.25,90,-180,-180,90,1
4869,68,0,1657.049,0,0,1,0.25,2,9,0.0,1.0,6,45.0,30.0,9,0.35100000000000003,1.0,1660.208,0.25,1,2018-07-13 08:41:28.000,88,2018-07-13 09:09:05.049,0.25,-90,0,0,-90,1
4925,66,0,1042.632,0,-120,1,0.25,2,3,0.0,1.0,12,45.0,30.0,3,0.401,0.0,1043.85,0.2,1,2018-07-13 15:20:10.000,42,2018-07-13 15:37:32.632,0.25,90,-180,-60,-150,1
4926,67,0,1051.139,0,-120,1,0.25,2,3,0.0,1.0,12,45.0,30.0,3,0.501,0.0,1052.359,0.2,1,2018-07-13 15:20:10.000,42,2018-07-13 15:37:41.139,0.25,90,-180,-60,-150,1
4927,68,0,1060.03,0,-120,1,0.25,2,3,0.0,1.0,12,45.0,30.0,3,0.35100000000000003,0.0,1061.286,0.2,1,2018-07-13 15:20:10.000,42,2018-07-13 15:37:50.030,0.25,90,-180,-60,-150,1
4928,69,0,1074.797,0,-120,1,0.25,2,9,0.0,1.0,6,45.0,30.0,9,0.451,1.0,1075.977,0.25,1,2018-07-13 15:20:10.000,42,2018-07-13 15:38:04.797,0.25,-90,0,120,30,1
4929,70,0,1083.515,0,-120,1,0.25,2,9,0.0,1.0,6,45.0,30.0,9,0.301,1.0,1084.472,0.25,1,2018-07-13 15:20:10.000,42,2018-07-13 15:38:13.515,0.25,-90,0,120,30,1
4930,71,0,1106.769,0,-120,1,0.25,2,3,0.0,1.0,12,45.0,30.0,3,0.35100000000000003,0.0,1108.077,0.2,1,2018-07-13 15:20:10.000,42,2018-07-13 15:38:36.769,0.25,90,-180,-60,-150,1
4931,72,0,1113.938,0,-120,1,0.25,2,9,0.0,1.0,6,45.0,30.0,9,0.401,1.0,1115.453,0.25,1,2018-07-13 15:20:10.000,42,2018-07-13 15:38:43.938,0.25,-90,0,120,30,1
4932,73,0,1122.162,0,-120,1,0.25,2,3,0.0,1.0,12,45.0,30.0,3,0.501,0.0,1123.603,0.2,1,2018-07-13 15:20:10.000,42,2018-07-13 15:38:52.162,0.25,90,-180,-60,-150,1
4933,74,0,1128.369,0,-120,1,0.25,2,3,0.0,1.0,12,45.0,30.0,3,0.451,0.0,1129.771,0.2,1,2018-07-13 15:20:10.000,42,2018-07-13 15:38:58.369,0.25,90,-180,-60,-150,1
4934,75,0,1181.978,0,-120,1,0.25,2,3,0.0,1.0,12,45.0,30.0,3,0.301,1.0,1183.478,0.0,0,2018-07-13 15:20:10.000,42,2018-07-13 15:39:51.978,0.25,-90,-180,-60,30,1
4956,27,0,472.577,0,0,1,0.25,2,9,0.0,1.0,6,45.0,30.0,9,0.501,1.0,473.652,0.25,1,2018-07-16 09:27:41.000,9,2018-07-16 09:35:33.577,0.25,-90,0,0,-90,1
4957,28,0,513.964,0,0,1,0.25,2,3,0.0,1.0,12,45.0,30.0,3,0.35100000000000003,0.0,515.365,0.2,1,2018-07-16 09:27:41.000,9,2018-07-16 09:36:14.964,0.25,90,-180,-180,90,1
4958,29,0,525.091,0,0,1,0.25,2,3,0.0,1.0,12,45.0,30.0,3,0.301,0.0,526.061,0.2,1,2018-07-16 09:27:41.000,9,2018-07-16 09:36:26.091,0.25,90,-180,-180,90,1
4959,30,0,535.74,0,0,1,0.25,2,3,0.0,1.0,12,45.0,30.0,3,0.401,0.0,536.77,0.2,1,2018-07-16 09:27:41.000,9,2018-07-16 09:36:36.740,0.25,90,-180,-180,90,1
4960,31,0,545.15,0,0,1,0.25,2,9,0.0,1.0,6,45.0,30.0,9,0.35100000000000003,1.0,547.572,0.25,1,2018-07-16 09:27:41.000,9,2018-07-16 09:36:46.150,0.25,-90,0,0,-90,1
4961,32,0,558.836,0,0,1,0.25,2,9,0.0,1.0,6,45.0,30.0,9,0.401,0.0,559.953,0.0,0,2018-07-16 09:27:41.000,9,2018-07-16 09:36:59.836,0.25,90,0,0,90,1
4962,34,0,581.814,0,0,1,0.25,2,3,0.0,1.0,12,45.0,30.0,3,0.301,0.0,583.255,0.2,1,2018-07-16 09:27:41.000,9,2018-07-16 09:37:22.814,0.25,90,-180,-180,90,1
4963,35,0,594.146,0,0,1,0.25,2,9,0.0,1.0,6,45.0,30.0,9,0.451,1.0,595.819,0.25,1,2018-07-16 09:27:41.000,9,2018-07-16 09:37:35.146,0.25,-90,0,0,-90,1
4964,36,0,645.276,0,0,1,0.25,2,3,0.0,1.0,12,45.0,30.0,3,0.501,0.0,646.2669999999998,0.2,1,2018-07-16 09:27:41.000,9,2018-07-16 09:38:26.276,0.25,90,-180,-180,90,1
4965,37,0,661.6310000000002,0,0,1,0.25,2,9,0.0,1.0,6,45.0,30.0,9,0.451,0.0,662.757,0.0,0,2018-07-16 09:27:41.000,9,2018-07-16 09:38:42.631,0.25,90,0,0,90,1
5012,55,0,848.329,0,-60,1,0.25,2,3,0.0,1.0,12,45.0,30.0,3,0.501,0.0,849.4839999999998,0.2,1,2018-07-16 14:26:00.000,47,2018-07-16 14:40:08.329,0.25,90,-180,-120,150,1
5013,56,0,858.1189999999998,0,-60,1,0.25,2,3,0.0,1.0,12,45.0,30.0,3,0.401,0.0,859.64,0.2,1,2018-07-16 14:26:00.000,47,2018-07-16 14:40:18.119,0.25,90,-180,-120,150,1
5014,57,0,866.7230000000002,0,-60,1,0.25,2,9,0.0,1.0,6,45.0,30.0,9,0.301,1.0,868.163,0.25,1,2018-07-16 14:26:00.000,47,2018-07-16 14:40:26.723,0.25,-90,0,60,-30,1
5015,58,0,875.722,0,-60,1,0.25,2,9,0.0,1.0,6,45.0,30.0,9,0.35100000000000003,0.0,877.819,0.0,0,2018-07-16 14:26:00.000,47,2018-07-16 14:40:35.722,0.25,90,0,60,150,1
5016,60,0,918.221,0,-60,1,0.25,2,3,0.0,1.0,12,45.0,30.0,3,0.501,0.0,919.508,0.2,1,2018-07-16 14:26:00.000,47,2018-07-16 14:41:18.221,0.25,90,-180,-120,150,1
5017,61,0,927.927,0,-60,1,0.25,2,9,0.0,1.0,6,45.0,30.0,9,0.301,1.0,929.714,0.25,1,2018-07-16 14:26:00.000,47,2018-07-16 14:41:27.927,0.25,-90,0,60,-30,1
5018,62,0,957.309,0,-60,1,0.25,2,3,0.0,1.0,12,45.0,30.0,3,0.451,0.0,958.378,0.2,1,2018-07-16 14:26:00.000,47,2018-07-16 14:41:57.309,0.25,90,-180,-120,150,1
5019,63,0,966.503,0,-60,1,0.25,2,3,0.0,1.0,12,45.0,30.0,3,0.501,0.0,967.453,0.2,1,2018-07-16 14:26:00.000,47,2018-07-16 14:42:06.503,0.25,90,-180,-120,150,1
5020,64,0,974.204,0,-60,1,0.25,2,3,0.0,1.0,12,45.0,30.0,3,0.35100000000000003,0.0,975.233,0.2,1,2018-07-16 14:26:00.000,47,2018-07-16 14:42:14.204,0.25,90,-180,-120,150,1
5021,65,0,982.52,0,-60,1,0.25,2,9,0.0,1.0,6,45.0,30.0,9,0.401,1.0,984.006,0.25,1,2018-07-16 14:26:00.000,47,2018-07-16 14:42:22.520,0.25,-90,0,60,-30,1
5050,37,0,457.961,0,-30,1,0.25,2,3,0.0,1.0,12,45.0,30.0,3,0.401,0.0,459.06,0.2,1,2018-07-17 09:17:06.000,144,2018-07-17 09:24:43.961,0.25,90,-180,-150,120,1
5051,38,0,468.142,0,-30,1,0.25,2,9,0.0,1.0,6,45.0,30.0,9,0.501,1.0,469.924,0.25,1,2018-07-17 09:17:06.000,144,2018-07-17 09:24:54.142,0.25,-90,0,30,-60,1
5052,39,0,516.431,0,-30,1,0.25,2,3,0.0,1.0,12,45.0,30.0,3,0.451,0.0,517.32,0.2,1,2018-07-17 09:17:06.000,144,2018-07-17 09:25:42.431,0.25,90,-180,-150,120,1
5053,40,0,524.655,0,-30,1,0.25,2,3,0.0,1.0,12,45.0,30.0,3,0.35100000000000003,0.0,525.586,0.2,1,2018-07-17 09:17:06.000,144,2018-07-17 09:25:50.655,0.25,90,-180,-150,120,1
5054,41,0,541.604,0,-30,1,0.25,2,3,0.0,1.0,12,45.0,30.0,3,0.35100000000000003,0.0,542.665,0.2,1,2018-07-17 09:17:06.000,144,2018-07-17 09:26:07.604,0.25,90,-180,-150,120,1
