,Trial,CorrectionTrial,StartTime,CenterReward,CenterSpoutRotation,nStimReps,Duration,Modality,LED Location,LED_trial_V,LED_bgnd_V,Speaker Location,Speaker_trial_V,Speaker_bgnd_V,TargetSpout,HoldTime,Response,RespTime,ValveTime,Correct,SessionDate,SessionID,StartDateTime,StimulusTotalDuration,response_angle_world,speaker_angle_world,speaker_angle_platform,response_angle_platform,not_probe
34,1,0,24.015,0,90,1,0.15,2,3,0.0,1.0,12,40.0,30.0,3,0.991,0.0,26.25,0.2,1,2018-02-13 14:54:23.000,158,2018-02-13 14:54:47.015,0.15,90,-180,90,0,1
35,2,0,46.302,1,90,1,0.15,2,9,0.0,1.0,6,40.0,30.0,9,0.861,1.0,52.216,0.2,1,2018-02-13 14:54:23.000,158,2018-02-13 14:55:09.302,0.15,-90,0,-90,-180,1
36,3,0,72.391,0,90,1,0.15,2,9,0.0,1.0,6,40.0,30.0,9,0.731,0.0,76.557,0.0,0,2018-02-13 14:54:23.000,158,2018-02-13 14:55:35.391,0.15,90,0,-90,0,1
37,5,0,120.217,0,90,1,0.15,2,9,0.0,1.0,6,40.0,30.0,9,1.121,1.0,131.643,0.2,1,2018-02-13 14:54:23.000,158,2018-02-13 14:56:23.217,0.15,-90,0,-90,-180,1
38,6,0,143.786,0,90,1,0.15,2,9,0.0,1.0,6,40.0,30.0,9,0.731,0.0,148.12,0.0,0,2018-02-13 14:54:23.000,158,2018-02-13 14:56:46.786,0.15,90,0,-90,0,1
39,8,0,176.27,0,90,1,0.15,2,9,0.0,1.0,6,40.0,30.0,9,0.991,1.0,178.52700000000004,0.2,1,2018-02-13 14:54:23.000,158,2018-02-13 14:57:19.270,0.15,-90,0,-90,-180,1
40,9,0,201.327,0,90,1,0.15,2,3,0.0,1.0,12,40.0,30.0,3,0.861,0.0,203.496,0.2,1,2018-02-13 14:54:23.000,158,2018-02-13 14:57:44.327,0.15,90,-180,90,0,1
41,10,0,219.723,0,90,1,0.15,2,3,0.0,1.0,12,40.0,30.0,3,0.601,1.0,222.899,0.0,0,2018-02-13 14:54:23.000,158,2018-02-13 14:58:02.723,0.15,-90,-180,90,-180,1
42,12,0,265.793,0,90,1,0.15,2,3,0.0,1.0,12,40.0,30.0,3,0.601,0.0,267.498,0.2,1,2018-02-13 14:54:23.000,158,2018-02-13 14:58:48.793,0.15,90,-180,90,0,1
43,13,0,290.029,0,90,1,0.15,2,3,0.0,1.0,12,40.0,30.0,3,0.991,1.0,292.175,0.0,0,2018-02-13 14:54:23.000,158,2018-02-13 14:59:13.029,0.15,-90,-180,90,-180,1
82,1,0,51.11,0,-30,1,0.15,2,3,0.0,1.0,12,40.0,30.0,3,0.731,0.0,53.16,0.2,1,2018-02-16 15:00:36.000,17,2018-02-16 15:01:27.110,0.15,90,-180,-150,120,1
83,2,0,72.128,0,-30,1,0.15,2,9,0.0,1.0,6,40.0,30.0,9,0.601,1.0,74.062,0.2,1,2018-02-16 15:00:36.000,17,2018-02-16 15:01:48.128,0.15,-90,0,30,-60,1
84,3,0,92.473,0,-30,1,0.15,2,3,0.0,1.0,12,40.0,30.0,3,0.861,0.0,94.93,0.2,1,2018-02-16 15:00:36.000,17,2018-02-16 15:02:08.473,0.15,90,-180,-150,120,1
85,4,0,124.415,0,-30,1,0.15,2,9,0.0,1.0,6,40.0,30.0,9,1.121,0.0,125.785,0.0,0,2018-02-16 15:00:36.000,17,2018-02-16 15:02:40.415,0.15,90,0,30,120,1
86,6,0,154.809,0,-30,1,0.15,2,9,0.0,1.0,6,40.0,30.0,9,0.861,1.0,155.986,0.2,1,2018-02-16 15:00:36.000,17,2018-02-16 15:03:10.809,0.15,-90,0,30,-60,1
87,7,0,173.817,0,-30,1,0.15,2,3,0.0,1.0,12,40.0,30.0,3,0.731,0.0,175.89,0.2,1,2018-02-16 15:00:36.000,17,2018-02-16 15:03:29.817,0.15,90,-180,-150,120,1
88,8,0,225.516,0,-30,1,0.15,2,9,0.0,1.0,6,40.0,30.0,9,0.991,1.0,226.967,0.2,1,2018-02-16 15:00:36.000,17,2018-02-16 15:04:21.516,0.15,-90,0,30,-60,1
89,9,0,243.944,0,-30,1,0.15,2,3,0.0,1.0,12,40.0,30.0,3,1.121,1.0,245.225,0.0,0,2018-02-16 15:00:36.000,17,2018-02-16 15:04:39.944,0.15,-90,-180,-150,-60,1
90,11,0,274.327,0,-30,1,0.15,2,3,0.0,1.0,12,40.0,30.0,3,0.731,1.0,275.807,0.0,0,2018-02-16 15:00:36.000,17,2018-02-16 15:05:10.327,0.15,-90,-180,-150,-60,1
91,13,0,361.864,0,-30,1,0.15,2,3,0.0,1.0,12,40.0,30.0,3,0.601,1.0,364.364,0.0,0,2018-02-16 15:00:36.000,17,2018-02-16 15:06:37.864,0.15,-90,-180,-150,-60,1
139,1,0,173.855,1,-120,1,0.15,2,3,0.0,1.0,12,40.0,30.0,3,0.861,1.0,190.042,0.0,0,2018-02-21 15:42:41.000,137,2018-02-21 15:45:34.855,0.15,-90,-180,-60,30,1
140,6,0,326.574,1,-120,1,0.15,2,3,0.0,1.0,12,40.0,30.0,3,1.121,1.0,339.186,0.0,0,2018-02-21 15:42:41.000,137,2018-02-21 15:48:07.574,0.15,-90,-180,-60,30,1
141,8,0,390.25,0,-120,1,0.15,2,3,0.0,1.0,12,40.0,30.0,3,0.991,1.0,396.765,0.0,0,2018-02-21 15:42:41.000,137,2018-02-21 15:49:11.250,0.15,-90,-180,-60,30,1
142,10,0,465.977,0,-120,1,0.15,2,3,0.0,1.0,12,40.0,30.0,3,0.861,0.0,467.703,0.2,1,2018-02-21 15:42:41.000,137,2018-02-21 15:50:26.977,0.15,90,-180,-60,-150,1
143,11,0,488.312,0,-120,1,0.15,2,9,0.0,1.0,6,40.0,30.0,9,0.731,0.0,490.197,0.0,0,2018-02-21 15:42:41.000,137,2018-02-21 15:50:49.312,0.15,90,0,120,-150,1
144,14,0,582.6030000000002,1,-120,1,0.15,2,3,0.0,1.0,12,40.0,30.0,3,1.121,0.0,594.196,0.2,1,2018-02-21 15:42:41.000,137,2018-02-21 15:52:23.603,0.15,90,-180,-60,-150,1
145,15,0,609.888,1,-120,1,0.15,2,3,0.0,1.0,12,40.0,30.0,3,0.601,0.0,612.184,0.2,1,2018-02-21 15:42:41.000,137,2018-02-21 15:52:50.888,0.15,90,-180,-60,-150,1
146,16,0,632.915,1,-120,1,0.15,2,3,0.0,1.0,12,40.0,30.0,3,0.731,0.0,637.991,0.2,1,2018-02-21 15:42:41.000,137,2018-02-21 15:53:13.915,0.15,90,-180,-60,-150,1
147,17,0,657.673,0,-120,1,0.15,2,3,0.0,1.0,12,40.0,30.0,3,0.991,0.0,662.423,0.2,1,2018-02-21 15:42:41.000,137,2018-02-21 15:53:38.673,0.15,90,-180,-60,-150,1
148,18,0,685.4169999999998,0,-120,1,0.15,2,9,0.0,1.0,6,40.0,30.0,9,1.121,1.0,690.791,0.2,1,2018-02-21 15:42:41.000,137,2018-02-21 15:54:06.417,0.15,-90,0,120,30,1
184,1,0,12.085,0,-150,1,0.15,2,3,0.0,1.0,12,40.0,30.0,3,0.601,0.0,20.349,0.2,1,2018-02-22 08:57:56.000,73,2018-02-22 08:58:08.085,0.15,90,-180,-30,-120,1
185,2,0,42.00100000000001,0,-150,1,0.15,2,3,0.0,1.0,12,40.0,30.0,3,0.731,0.0,45.416,0.2,1,2018-02-22 08:57:56.000,73,2018-02-22 08:58:38.001,0.15,90,-180,-30,-120,1
186,3,0,70.737,0,-150,1,0.15,2,9,0.0,1.0,6,40.0,30.0,9,0.991,0.0,71.92399999999998,0.0,0,2018-02-22 08:57:56.000,73,2018-02-22 08:59:06.737,0.15,90,0,150,-120,1
187,6,0,177.987,0,-150,1,0.15,2,3,0.0,1.0,12,40.0,30.0,3,1.121,0.0,180.958,0.2,1,2018-02-22 08:57:56.000,73,2018-02-22 09:00:53.987,0.15,90,-180,-30,-120,1
188,7,0,198.854,0,-150,1,0.15,2,3,0.0,1.0,12,40.0,30.0,3,0.731,1.0,201.064,0.0,0,2018-02-22 08:57:56.000,73,2018-02-22 09:01:14.854,0.15,-90,-180,-30,60,1
189,10,0,242.123,0,-150,1,0.15,2,9,0.0,1.0,6,40.0,30.0,9,0.601,0.0,244.319,0.0,0,2018-02-22 08:57:56.000,73,2018-02-22 09:01:58.123,0.15,90,0,150,-120,1
190,12,0,278.91,0,-150,1,0.15,2,3,0.0,1.0,12,40.0,30.0,3,0.601,0.0,282.212,0.2,1,2018-02-22 08:57:56.000,73,2018-02-22 09:02:34.910,0.15,90,-180,-30,-120,1
191,13,0,304.223,0,-150,1,0.15,2,9,0.0,1.0,6,40.0,30.0,9,0.991,0.0,307.018,0.0,0,2018-02-22 08:57:56.000,73,2018-02-22 09:03:00.223,0.15,90,0,150,-120,1
192,15,0,338.536,0,-150,1,0.15,2,3,0.0,1.0,12,40.0,30.0,3,0.861,1.0,339.78,0.0,0,2018-02-22 08:57:56.000,73,2018-02-22 09:03:34.536,0.15,-90,-180,-30,60,1
193,17,0,373.418,0,-150,1,0.15,2,9,0.0,1.0,6,40.0,30.0,9,1.121,0.0,375.866,0.0,0,2018-02-22 08:57:56.000,73,2018-02-22 09:04:09.418,0.15,90,0,150,-120,1
229,1,0,22.586,0,0,1,0.15,2,9,0.0,1.0,6,40.0,30.0,9,0.861,1.0,26.458,0.2,1,2018-03-05 08:27:55.000,60,2018-03-05 08:28:17.586,0.15,-90,0,0,-90,1
230,2,0,56.969,0,0,1,0.15,2,9,0.0,1.0,6,40.0,30.0,9,1.121,1.0,62.179,0.2,1,2018-03-05 08:27:55.000,60,2018-03-05 08:28:51.969,0.15,-90,0,0,-90,1
231,3,0,75.536,0,0,1,0.15,2,9,0.0,1.0,6,40.0,30.0,9,0.601,0.0,77.19800000000002,0.0,0,2018-03-05 08:27:55.000,60,2018-03-05 08:29:10.536,0.15,90,0,0,90,1
232,5,0,113.909,0,0,1,0.15,2,9,0.0,1.0,6,40.0,30.0,9,0.731,1.0,115.55,0.2,1,2018-03-05 08:27:55.000,60,2018-03-05 08:29:48.909,0.15,-90,0,0,-90,1
233,6,0,136.621,0,0,1,0.15,2,9,0.0,1.0,6,40.0,30.0,9,0.731,1.0,140.045,0.2,1,2018-03-05 08:27:55.000,60,2018-03-05 08:30:11.621,0.15,-90,0,0,-90,1
234,7,0,168.41299999999995,0,0,1,0.15,2,3,0.0,1.0,12,40.0,30.0,3,0.991,1.0,171.482,0.0,0,2018-03-05 08:27:55.000,60,2018-03-05 08:30:43.413,0.15,-90,-180,-180,-90,1
235,12,0,413.223,0,0,1,0.15,2,3,0.0,1.0,12,40.0,30.0,3,0.861,0.0,414.717,0.2,1,2018-03-05 08:27:55.000,60,2018-03-05 08:34:48.223,0.15,90,-180,-180,90,1
236,13,0,433.43300000000005,0,0,1,0.15,2,9,0.0,1.0,6,40.0,30.0,9,0.601,1.0,435.437,0.2,1,2018-03-05 08:27:55.000,60,2018-03-05 08:35:08.433,0.15,-90,0,0,-90,1
237,14,0,449.335,0,0,1,0.15,2,9,0.0,1.0,6,40.0,30.0,9,0.731,1.0,451.198,0.2,1,2018-03-05 08:27:55.000,60,2018-03-05 08:35:24.335,0.15,-90,0,0,-90,1
238,15,0,465.615,0,0,1,0.15,2,9,0.0,1.0,6,40.0,30.0,9,0.991,1.0,466.97,0.2,1,2018-03-05 08:27:55.000,60,2018-03-05 08:35:40.615,0.15,-90,0,0,-90,1
411,1,0,63.11,0,30,1,0.15,2,9,0.0,1.0,6,40.0,30.0,9,1.121,1.0,67.89699999999999,0.18,1,2018-03-09 15:12:13.000,196,2018-03-09 15:13:16.110,0.15,-90,0,-30,-120,1
412,2,0,84.045,0,30,1,0.15,2,9,0.0,1.0,6,40.0,30.0,9,0.601,0.0,85.695,0.0,0,2018-03-09 15:12:13.000,196,2018-03-09 15:13:37.045,0.15,90,0,-30,60,1
413,5,0,121.913,0,30,1,0.15,2,3,0.0,1.0,12,40.0,30.0,3,0.991,1.0,123.309,0.0,0,2018-03-09 15:12:13.000,196,2018-03-09 15:14:14.913,0.15,-90,-180,150,-120,1
414,8,0,229.774,0,30,1,0.15,2,9,0.0,1.0,6,40.0,30.0,9,1.121,1.0,231.858,0.18,1,2018-03-09 15:12:13.000,196,2018-03-09 15:16:02.774,0.15,-90,0,-30,-120,1
415,9,0,248.80900000000003,0,30,1,0.15,2,3,0.0,1.0,12,40.0,30.0,3,0.601,0.0,250.787,0.22,1,2018-03-09 15:12:13.000,196,2018-03-09 15:16:21.809,0.15,90,-180,150,60,1
416,10,0,279.433,0,30,1,0.15,2,3,0.0,1.0,12,40.0,30.0,3,0.861,0.0,280.56,0.22,1,2018-03-09 15:12:13.000,196,2018-03-09 15:16:52.433,0.15,90,-180,150,60,1
417,11,0,314.398,0,30,1,0.15,2,3,0.0,1.0,12,40.0,30.0,3,0.861,0.0,315.465,0.22,1,2018-03-09 15:12:13.000,196,2018-03-09 15:17:27.398,0.15,90,-180,150,60,1
418,12,0,359.902,0,30,1,0.15,2,9,0.0,1.0,6,40.0,30.0,9,0.731,0.0,361.256,0.0,0,2018-03-09 15:12:13.000,196,2018-03-09 15:18:12.902,0.15,90,0,-30,60,1
419,15,0,409.249,0,30,1,0.15,2,9,0.0,1.0,6,40.0,30.0,9,0.991,1.0,410.695,0.18,1,2018-03-09 15:12:13.000,196,2018-03-09 15:19:02.249,0.15,-90,0,-30,-120,1
420,16,0,431.358,0,30,1,0.15,2,9,0.0,1.0,6,40.0,30.0,9,0.731,1.0,433.804,0.18,1,2018-03-09 15:12:13.000,196,2018-03-09 15:19:24.358,0.15,-90,0,-30,-120,1
482,1,0,25.85,0,0,1,0.15,2,3,0.0,1.0,12,40.0,30.0,3,0.861,0.0,27.437,0.2,1,2018-03-12 09:07:36.000,110,2018-03-12 09:08:01.850,0.15,90,-180,-180,90,1
483,2,0,60.456,0,0,1,0.15,2,9,0.0,1.0,6,40.0,30.0,9,0.991,1.0,62.088,0.2,1,2018-03-12 09:07:36.000,110,2018-03-12 09:08:36.456,0.15,-90,0,0,-90,1
484,3,0,76.62,1,0,1,0.15,2,9,0.0,1.0,6,40.0,30.0,9,0.601,1.0,78.514,0.2,1,2018-03-12 09:07:36.000,110,2018-03-12 09:08:52.620,0.15,-90,0,0,-90,1
485,4,0,92.136,0,0,1,0.15,2,3,0.0,1.0,12,40.0,30.0,3,0.731,0.0,94.237,0.2,1,2018-03-12 09:07:36.000,110,2018-03-12 09:09:08.136,0.15,90,-180,-180,90,1
486,5,0,378.015,0,0,1,0.15,2,9,0.0,1.0,6,40.0,30.0,9,1.121,0.0,379.148,0.0,0,2018-03-12 09:07:36.000,110,2018-03-12 09:13:54.015,0.15,90,0,0,90,1
487,7,0,439.354,0,0,1,0.15,2,3,0.0,1.0,12,40.0,30.0,3,1.121,0.0,442.764,0.2,1,2018-03-12 09:07:36.000,110,2018-03-12 09:14:55.354,0.15,90,-180,-180,90,1
488,8,0,460.2,0,0,1,0.15,2,9,0.0,1.0,6,40.0,30.0,9,0.731,1.0,462.925,0.2,1,2018-03-12 09:07:36.000,110,2018-03-12 09:15:16.200,0.15,-90,0,0,-90,1
489,9,0,505.393,0,0,1,0.15,2,9,0.0,1.0,6,40.0,30.0,9,0.991,0.0,506.903,0.0,0,2018-03-12 09:07:36.000,110,2018-03-12 09:16:01.393,0.15,90,0,0,90,1
490,11,0,535.572,0,0,1,0.15,2,3,0.0,1.0,12,40.0,30.0,3,0.861,1.0,537.6709999999998,0.0,0,2018-03-12 09:07:36.000,110,2018-03-12 09:16:31.572,0.15,-90,-180,-180,-90,1
491,13,0,571.153,0,0,1,0.15,2,9,0.0,1.0,6,40.0,30.0,9,0.731,1.0,574.066,0.2,1,2018-03-12 09:07:36.000,110,2018-03-12 09:17:07.153,0.15,-90,0,0,-90,1
509,1,0,71.725,0,-60,1,0.15,2,3,0.0,1.0,12,40.0,30.0,3,0.861,1.0,78.449,0.0,0,2018-03-12 14:16:26.000,199,2018-03-12 14:17:37.725,0.15,-90,-180,-120,-30,1
510,3,0,188.692,0,-60,1,0.15,2,9,0.0,1.0,6,40.0,30.0,9,1.121,0.0,190.127,0.0,0,2018-03-12 14:16:26.000,199,2018-03-12 14:19:34.692,0.15,90,0,60,150,1
511,5,0,226.226,0,-60,1,0.15,2,9,0.0,1.0,6,40.0,30.0,9,0.601,1.0,230.606,0.2,1,2018-03-12 14:16:26.000,199,2018-03-12 14:20:12.226,0.15,-90,0,60,-30,1
512,6,0,250.789,0,-60,1,0.15,2,3,0.0,1.0,12,40.0,30.0,3,0.861,0.0,253.428,0.2,1,2018-03-12 14:16:26.000,199,2018-03-12 14:20:36.789,0.15,90,-180,-120,150,1
513,7,0,265.96,0,-60,1,0.15,2,9,0.0,1.0,6,40.0,30.0,9,0.731,1.0,268.1,0.2,1,2018-03-12 14:16:26.000,199,2018-03-12 14:20:51.960,0.15,-90,0,60,-30,1
514,8,0,287.4290000000001,0,-60,1,0.15,2,3,0.0,1.0,12,40.0,30.0,3,0.601,0.0,289.874,0.2,1,2018-03-12 14:16:26.000,199,2018-03-12 14:21:13.429,0.15,90,-180,-120,150,1
515,9,0,334.606,0,-60,1,0.15,2,9,0.0,1.0,6,40.0,30.0,9,1.121,1.0,336.82,0.2,1,2018-03-12 14:16:26.000,199,2018-03-12 14:22:00.606,0.15,-90,0,60,-30,1
516,10,0,356.57,0,-60,1,0.15,2,9,0.0,1.0,6,40.0,30.0,9,0.991,0.0,358.214,0.0,0,2018-03-12 14:16:26.000,199,2018-03-12 14:22:22.570,0.15,90,0,60,150,1
517,12,0,408.015,0,-60,1,0.15,2,9,0.0,1.0,6,40.0,30.0,9,0.601,0.0,409.946,0.0,0,2018-03-12 14:16:26.000,199,2018-03-12 14:23:14.015,0.15,90,0,60,150,1
518,15,0,484.685,0,-60,1,0.15,2,9,0.0,1.0,6,40.0,30.0,9,0.731,1.0,487.398,0.22,1,2018-03-12 14:16:26.000,199,2018-03-12 14:24:30.685,0.15,-90,0,60,-30,1
557,1,0,54.177,0,0,1,0.15,2,9,0.0,1.0,6,40.0,30.0,9,0.991,1.0,56.609,0.2,1,2018-03-13 09:26:07.000,172,2018-03-13 09:27:01.177,0.15,-90,0,0,-90,1
558,2,0,72.627,0,0,1,0.15,2,3,0.0,1.0,12,40.0,30.0,3,1.121,0.0,73.94,0.2,1,2018-03-13 09:26:07.000,172,2018-03-13 09:27:19.627,0.15,90,-180,-180,90,1
559,3,0,96.982,0,0,1,0.15,2,3,0.0,1.0,12,40.0,30.0,3,0.861,1.0,98.487,0.0,0,2018-03-13 09:26:07.000,172,2018-03-13 09:27:43.982,0.15,-90,-180,-180,-90,1
560,6,0,136.595,0,0,1,0.15,2,3,0.0,1.0,12,40.0,30.0,3,0.601,0.0,138.161,0.2,1,2018-03-13 09:26:07.000,172,2018-03-13 09:28:23.595,0.15,90,-180,-180,90,1
561,7,0,159.77200000000005,0,0,1,0.15,2,3,0.0,1.0,12,40.0,30.0,3,0.991,1.0,161.84799999999996,0.0,0,2018-03-13 09:26:07.000,172,2018-03-13 09:28:46.772,0.15,-90,-180,-180,-90,1
562,9,0,246.79,0,0,1,0.15,2,9,0.0,1.0,6,40.0,30.0,9,1.121,0.0,248.346,0.0,0,2018-03-13 09:26:07.000,172,2018-03-13 09:30:13.790,0.15,90,0,0,90,1
563,11,0,288.362,0,0,1,0.15,2,3,0.0,1.0,12,40.0,30.0,3,0.731,0.0,290.68,0.2,1,2018-03-13 09:26:07.000,172,2018-03-13 09:30:55.362,0.15,90,-180,-180,90,1
564,12,0,308.151,0,0,1,0.15,2,9,0.0,1.0,6,40.0,30.0,9,1.121,0.0,309.848,0.0,0,2018-03-13 09:26:07.000,172,2018-03-13 09:31:15.151,0.15,90,0,0,90,1
565,14,0,333.051,0,0,1,0.15,2,9,0.0,1.0,6,40.0,30.0,9,0.861,1.0,334.717,0.2,1,2018-03-13 09:26:07.000,172,2018-03-13 09:31:40.051,0.15,-90,0,0,-90,1
566,15,0,352.504,0,0,1,0.15,2,3,0.0,1.0,12,40.0,30.0,3,0.991,1.0,354.055,0.0,0,2018-03-13 09:26:07.000,172,2018-03-13 09:31:59.504,0.15,-90,-180,-180,-90,1
790,1,0,242.37,0,0,1,0.15,2,9,0.0,1.0,6,40.0,30.0,9,0.6759999999999999,1.0,246.767,0.2,1,2018-03-27 13:43:15.000,2,2018-03-27 13:47:17.370,0.15,-90,0,0,-90,1
791,2,0,285.663,0,0,1,0.15,2,9,0.0,1.0,6,40.0,30.0,9,0.901,0.0,287.378,0.0,0,2018-03-27 13:43:15.000,2,2018-03-27 13:48:00.663,0.15,90,0,0,90,1
792,4,0,317.774,0,0,1,0.15,2,3,0.0,1.0,12,40.0,30.0,3,0.601,0.0,319.5440000000001,0.2,1,2018-03-27 13:43:15.000,2,2018-03-27 13:48:32.774,0.15,90,-180,-180,90,1
793,5,0,324.715,0,0,1,0.15,2,3,0.0,1.0,12,40.0,30.0,3,0.7509999999999999,0.0,326.469,0.2,1,2018-03-27 13:43:15.000,2,2018-03-27 13:48:39.715,0.15,90,-180,-180,90,1
794,6,0,361.48800000000006,0,0,1,0.15,2,9,0.0,1.0,6,40.0,30.0,9,0.901,1.0,362.974,0.2,1,2018-03-27 13:43:15.000,2,2018-03-27 13:49:16.488,0.15,-90,0,0,-90,1
795,7,0,378.12,0,0,1,0.15,2,3,0.0,1.0,12,40.0,30.0,3,0.601,1.0,380.416,0.0,0,2018-03-27 13:43:15.000,2,2018-03-27 13:49:33.120,0.15,-90,-180,-180,-90,1
796,10,0,433.687,0,0,1,0.15,2,3,0.0,1.0,12,40.0,30.0,3,0.826,0.0,435.396,0.2,1,2018-03-27 13:43:15.000,2,2018-03-27 13:50:28.687,0.15,90,-180,-180,90,1
797,11,0,465.352,0,0,1,0.15,2,9,0.0,1.0,6,40.0,30.0,9,0.826,1.0,466.643,0.2,1,2018-03-27 13:43:15.000,2,2018-03-27 13:51:00.352,0.15,-90,0,0,-90,1
798,12,0,482.903,0,0,1,0.15,2,9,0.0,1.0,6,40.0,30.0,9,0.7509999999999999,1.0,484.85,0.2,1,2018-03-27 13:43:15.000,2,2018-03-27 13:51:17.903,0.15,-90,0,0,-90,1
799,13,0,501.209,0,0,1,0.15,2,3,0.0,1.0,12,40.0,30.0,3,0.6759999999999999,1.0,503.413,0.0,0,2018-03-27 13:43:15.000,2,2018-03-27 13:51:36.209,0.15,-90,-180,-180,-90,1
848,1,0,41.489,0,180,1,0.15,2,9,0.0,1.0,6,40.0,30.0,9,0.901,0.0,66.068,0.0,0,2018-03-28 08:50:47.000,58,2018-03-28 08:51:28.489,0.15,90,0,-180,-90,1
849,3,0,107.402,0,180,1,0.15,2,3,0.0,1.0,12,40.0,30.0,3,0.6759999999999999,1.0,112.067,0.0,0,2018-03-28 08:50:47.000,58,2018-03-28 08:52:34.402,0.15,-90,-180,0,90,1
850,5,0,200.74,0,180,1,0.15,2,3,0.0,1.0,12,40.0,30.0,3,0.601,0.0,207.715,0.2,1,2018-03-28 08:50:47.000,58,2018-03-28 08:54:07.740,0.15,90,-180,0,-90,1
851,6,0,308.5370000000001,0,180,1,0.15,2,3,0.0,1.0,12,40.0,30.0,3,0.601,1.0,312.031,0.0,0,2018-03-28 08:50:47.000,58,2018-03-28 08:55:55.537,0.15,-90,-180,0,90,1
852,10,0,427.646,0,180,1,0.15,2,3,0.0,1.0,12,40.0,30.0,3,0.6759999999999999,1.0,431.42800000000005,0.0,0,2018-03-28 08:50:47.000,58,2018-03-28 08:57:54.646,0.15,-90,-180,0,90,1
853,12,0,453.617,0,180,1,0.15,2,3,0.0,1.0,12,40.0,30.0,3,0.826,0.0,455.153,0.2,1,2018-03-28 08:50:47.000,58,2018-03-28 08:58:20.617,0.15,90,-180,0,-90,1
854,13,0,476.659,0,180,1,0.15,2,9,0.0,1.0,6,40.0,30.0,9,0.7509999999999999,0.0,478.424,0.0,0,2018-03-28 08:50:47.000,58,2018-03-28 08:58:43.659,0.15,90,0,-180,-90,1
855,15,0,500.824,0,180,1,0.15,2,9,0.0,1.0,6,40.0,30.0,9,0.601,1.0,502.069,0.2,1,2018-03-28 08:50:47.000,58,2018-03-28 08:59:07.824,0.15,-90,0,-180,90,1
856,16,0,522.6759999999998,0,180,1,0.15,2,3,0.0,1.0,12,40.0,30.0,3,0.601,0.0,525.515,0.2,1,2018-03-28 08:50:47.000,58,2018-03-28 08:59:29.676,0.15,90,-180,0,-90,1
857,17,0,545.882,0,180,1,0.15,2,9,0.0,1.0,6,40.0,30.0,9,0.901,0.0,547.548,0.0,0,2018-03-28 08:50:47.000,58,2018-03-28 08:59:52.882,0.15,90,0,-180,-90,1
881,1,0,74.969,0,0,1,0.25,2,9,0.0,1.0,6,40.0,30.0,9,0.826,1.0,76.657,0.18,1,2018-03-30 09:07:39.000,99,2018-03-30 09:08:53.969,0.25,-90,0,0,-90,1
882,2,0,89.28200000000002,0,0,1,0.25,2,3,0.0,1.0,12,40.0,30.0,3,0.6759999999999999,1.0,90.549,0.0,0,2018-03-30 09:07:39.000,99,2018-03-30 09:09:08.282,0.25,-90,-180,-180,-90,1
883,8,0,201.861,0,0,1,0.25,2,9,0.0,1.0,6,40.0,30.0,9,0.826,1.0,202.996,0.18,1,2018-03-30 09:07:39.000,99,2018-03-30 09:11:00.861,0.25,-90,0,0,-90,1
884,9,0,219.172,0,0,1,0.25,2,3,0.0,1.0,12,40.0,30.0,3,0.6759999999999999,1.0,220.481,0.0,0,2018-03-30 09:07:39.000,99,2018-03-30 09:11:18.172,0.25,-90,-180,-180,-90,1
885,11,0,235.813,0,0,1,0.25,2,3,0.0,1.0,12,40.0,30.0,3,0.7509999999999999,0.0,237.061,0.22,1,2018-03-30 09:07:39.000,99,2018-03-30 09:11:34.813,0.25,90,-180,-180,90,1
886,12,0,290.599,0,0,1,0.25,2,9,0.0,1.0,6,40.0,30.0,9,0.901,1.0,292.393,0.18,1,2018-03-30 09:07:39.000,99,2018-03-30 09:12:29.599,0.25,-90,0,0,-90,1
887,13,0,306.367,0,0,1,0.25,2,3,0.0,1.0,12,40.0,30.0,3,0.601,1.0,307.726,0.0,0,2018-03-30 09:07:39.000,99,2018-03-30 09:12:45.367,0.25,-90,-180,-180,-90,1
888,15,0,493.268,0,0,1,0.25,2,3,0.0,1.0,12,40.0,30.0,3,0.6759999999999999,0.0,502.78,0.22,1,2018-03-30 09:07:39.000,99,2018-03-30 09:15:52.268,0.25,90,-180,-180,90,1
889,16,0,528.431,0,0,1,0.25,2,3,0.0,1.0,12,40.0,30.0,3,0.7509999999999999,0.0,530.422,0.22,1,2018-03-30 09:07:39.000,99,2018-03-30 09:16:27.431,0.25,90,-180,-180,90,1
890,17,0,557.684,0,0,1,0.25,2,9,0.0,1.0,6,40.0,30.0,9,0.826,1.0,560.928,0.18,1,2018-03-30 09:07:39.000,99,2018-03-30 09:16:56.684,0.25,-90,0,0,-90,1
1097,1,0,74.361,0,120,1,0.15,2,9,0.0,1.0,6,40.0,30.0,9,0.6509999999999999,0.0,83.89,0.0,0,2018-04-05 09:39:37.000,30,2018-04-05 09:40:51.361,0.15,90,0,-120,-30,1
1098,3,0,107.06,0,120,1,0.15,2,9,0.0,1.0,6,40.0,30.0,9,0.601,0.0,110.253,0.0,0,2018-04-05 09:39:37.000,30,2018-04-05 09:41:24.060,0.15,90,0,-120,-30,1
1099,5,0,147.72899999999996,1,120,1,0.15,2,9,0.0,1.0,6,40.0,30.0,9,0.6759999999999999,0.0,149.865,0.0,0,2018-04-05 09:39:37.000,30,2018-04-05 09:42:04.729,0.15,90,0,-120,-30,1
1100,8,0,213.31,0,120,1,0.15,2,9,0.0,1.0,6,40.0,30.0,9,0.601,1.0,215.16,0.2,1,2018-04-05 09:39:37.000,30,2018-04-05 09:43:10.310,0.15,-90,0,-120,150,1
1101,9,0,231.71400000000003,0,120,1,0.15,2,3,0.0,1.0,12,40.0,30.0,3,0.6759999999999999,0.0,235.367,0.2,1,2018-04-05 09:39:37.000,30,2018-04-05 09:43:28.714,0.15,90,-180,60,-30,1
1102,10,0,249.703,1,120,1,0.15,2,3,0.0,1.0,12,40.0,30.0,3,0.6509999999999999,0.0,253.923,0.2,1,2018-04-05 09:39:37.000,30,2018-04-05 09:43:46.703,0.15,90,-180,60,-30,1
1103,11,0,279.37,0,120,1,0.15,2,9,0.0,1.0,6,40.0,30.0,9,0.701,0.0,282.738,0.0,0,2018-04-05 09:39:37.000,30,2018-04-05 09:44:16.370,0.15,90,0,-120,-30,1
1104,13,0,307.744,0,120,1,0.15,2,9,0.0,1.0,6,40.0,30.0,9,0.6509999999999999,1.0,309.245,0.2,1,2018-04-05 09:39:37.000,30,2018-04-05 09:44:44.744,0.15,-90,0,-120,150,1
1105,14,0,324.97,0,120,1,0.15,2,9,0.0,1.0,6,40.0,30.0,9,0.626,0.0,328.7680000000001,0.0,0,2018-04-05 09:39:37.000,30,2018-04-05 09:45:01.970,0.15,90,0,-120,-30,1
1106,16,0,393.939,0,120,1,0.15,2,9,0.0,1.0,6,40.0,30.0,9,0.6509999999999999,1.0,395.287,0.2,1,2018-04-05 09:39:37.000,30,2018-04-05 09:46:10.939,0.15,-90,0,-120,150,1
1130,1,0,44.554,1,0,1,0.15,2,3,0.0,1.0,12,40.0,30.0,3,0.701,0.0,45.583,0.2,1,2018-04-05 14:51:39.000,91,2018-04-05 14:52:23.554,0.15,90,-180,-180,90,1
1131,2,0,73.038,0,0,1,0.15,2,3,0.0,1.0,12,40.0,30.0,3,0.626,0.0,74.31,0.2,1,2018-04-05 14:51:39.000,91,2018-04-05 14:52:52.038,0.15,90,-180,-180,90,1
1132,3,0,98.907,1,0,1,0.15,2,9,0.0,1.0,6,40.0,30.0,9,0.6759999999999999,1.0,100.68,0.2,1,2018-04-05 14:51:39.000,91,2018-04-05 14:53:17.907,0.15,-90,0,0,-90,1
1133,4,0,117.502,0,0,1,0.15,2,9,0.0,1.0,6,40.0,30.0,9,0.6509999999999999,1.0,118.761,0.2,1,2018-04-05 14:51:39.000,91,2018-04-05 14:53:36.502,0.15,-90,0,0,-90,1
1134,5,0,132.995,0,0,1,0.15,2,3,0.0,1.0,12,40.0,30.0,3,0.601,1.0,135.166,0.0,0,2018-04-05 14:51:39.000,91,2018-04-05 14:53:51.995,0.15,-90,-180,-180,-90,1
1135,8,0,208.041,1,0,1,0.15,2,9,0.0,1.0,6,40.0,30.0,9,0.701,1.0,209.863,0.2,1,2018-04-05 14:51:39.000,91,2018-04-05 14:55:07.041,0.15,-90,0,0,-90,1
1136,9,0,225.871,0,0,1,0.15,2,9,0.0,1.0,6,40.0,30.0,9,0.601,1.0,227.317,0.2,1,2018-04-05 14:51:39.000,91,2018-04-05 14:55:24.871,0.15,-90,0,0,-90,1
1137,10,0,241.271,0,0,1,0.15,2,9,0.0,1.0,6,40.0,30.0,9,0.626,1.0,243.011,0.2,1,2018-04-05 14:51:39.000,91,2018-04-05 14:55:40.271,0.15,-90,0,0,-90,1
1138,11,0,261.656,0,0,1,0.15,2,9,0.0,1.0,6,40.0,30.0,9,0.626,1.0,263.036,0.2,1,2018-04-05 14:51:39.000,91,2018-04-05 14:56:00.656,0.15,-90,0,0,-90,1
1139,12,0,278.117,0,0,1,0.15,2,3,0.0,1.0,12,40.0,30.0,3,0.601,0.0,279.978,0.2,1,2018-04-05 14:51:39.000,91,2018-04-05 14:56:17.117,0.15,90,-180,-180,90,1
1168,1,0,64.34,0,150,1,0.15,2,3,0.0,1.0,12,40.0,30.0,3,0.701,0.0,66.362,0.2,1,2018-04-06 09:18:13.000,128,2018-04-06 09:19:17.340,0.15,90,-180,30,-60,1
1169,2,0,79.485,0,150,1,0.15,2,3,0.0,1.0,12,40.0,30.0,3,0.6509999999999999,0.0,81.12,0.2,1,2018-04-06 09:18:13.000,128,2018-04-06 09:19:32.485,0.15,90,-180,30,-60,1
1170,3,0,216.758,0,150,1,0.15,2,9,0.0,1.0,6,40.0,30.0,9,0.6759999999999999,0.0,225.71,0.0,0,2018-04-06 09:18:13.000,128,2018-04-06 09:21:49.758,0.15,90,0,-150,-60,1
1171,6,0,269.49,0,150,1,0.15,2,3,0.0,1.0,12,40.0,30.0,3,0.701,1.0,271.135,0.0,0,2018-04-06 09:18:13.000,128,2018-04-06 09:22:42.490,0.15,-90,-180,30,120,1
1172,8,0,303.23,0,150,1,0.15,2,3,0.0,1.0,12,40.0,30.0,3,0.601,0.0,305.34,0.2,1,2018-04-06 09:18:13.000,128,2018-04-06 09:23:16.230,0.15,90,-180,30,-60,1
1173,9,0,327.369,0,150,1,0.15,2,3,0.0,1.0,12,40.0,30.0,3,0.6759999999999999,0.0,330.2480000000001,0.2,1,2018-04-06 09:18:13.000,128,2018-04-06 09:23:40.369,0.15,90,-180,30,-60,1
1174,10,0,349.028,0,150,1,0.15,2,9,0.0,1.0,6,40.0,30.0,9,0.626,1.0,351.4,0.2,1,2018-04-06 09:18:13.000,128,2018-04-06 09:24:02.028,0.15,-90,0,-150,120,1
1175,11,0,408.879,0,150,1,0.15,2,9,0.0,1.0,6,40.0,30.0,9,0.6509999999999999,1.0,415.876,0.2,1,2018-04-06 09:18:13.000,128,2018-04-06 09:25:01.879,0.15,-90,0,-150,120,1
1176,12,0,431.482,0,150,1,0.15,2,9,0.0,1.0,6,40.0,30.0,9,0.6759999999999999,1.0,433.332,0.2,1,2018-04-06 09:18:13.000,128,2018-04-06 09:25:24.482,0.15,-90,0,-150,120,1
1177,13,0,482.93300000000005,0,150,1,0.15,2,9,0.0,1.0,6,40.0,30.0,9,0.701,1.0,484.425,0.2,1,2018-04-06 09:18:13.000,128,2018-04-06 09:26:15.933,0.15,-90,0,-150,120,1
1225,1,0,31.797,1,0,1,0.15,2,3,0.0,1.0,12,40.0,30.0,3,0.601,0.0,32.782,0.2,1,2018-04-23 09:39:11.000,107,2018-04-23 09:39:42.797,0.15,90,-180,-180,90,1
1226,2,0,44.98,0,0,1,0.15,2,3,0.0,1.0,12,40.0,30.0,3,0.626,1.0,46.694,0.0,0,2018-04-23 09:39:11.000,107,2018-04-23 09:39:55.980,0.15,-90,-180,-180,-90,1
1227,5,0,199.287,0,0,1,0.15,2,3,0.0,1.0,12,40.0,30.0,3,0.6509999999999999,0.0,201.146,0.2,1,2018-04-23 09:39:11.000,107,2018-04-23 09:42:30.287,0.15,90,-180,-180,90,1
1228,6,0,228.585,1,0,1,0.15,2,9,0.0,1.0,6,40.0,30.0,9,0.6759999999999999,1.0,231.811,0.2,1,2018-04-23 09:39:11.000,107,2018-04-23 09:42:59.585,0.15,-90,0,0,-90,1
1229,7,0,243.658,0,0,1,0.15,2,3,0.0,1.0,12,40.0,30.0,3,0.701,1.0,245.366,0.0,0,2018-04-23 09:39:11.000,107,2018-04-23 09:43:14.658,0.15,-90,-180,-180,-90,1
1230,9,0,290.879,0,0,1,0.15,2,9,0.0,1.0,6,40.0,30.0,9,0.6509999999999999,0.0,292.608,0.0,0,2018-04-23 09:39:11.000,107,2018-04-23 09:44:01.879,0.15,90,0,0,90,1
1231,11,0,311.075,1,0,1,0.15,2,9,0.0,1.0,6,40.0,30.0,9,0.6759999999999999,1.0,312.13,0.2,1,2018-04-23 09:39:11.000,107,2018-04-23 09:44:22.075,0.15,-90,0,0,-90,1
1232,12,0,342.392,0,0,1,0.15,2,3,0.0,1.0,12,40.0,30.0,3,0.6509999999999999,0.0,345.894,0.2,1,2018-04-23 09:39:11.000,107,2018-04-23 09:44:53.392,0.15,90,-180,-180,90,1
1233,13,0,385.771,0,0,1,0.15,2,9,0.0,1.0,6,40.0,30.0,9,0.701,1.0,388.043,0.2,1,2018-04-23 09:39:11.000,107,2018-04-23 09:45:36.771,0.15,-90,0,0,-90,1
1234,14,0,396.627,1,0,1,0.15,2,9,0.0,1.0,6,40.0,30.0,9,0.626,1.0,397.97,0.2,1,2018-04-23 09:39:11.000,107,2018-04-23 09:45:47.627,0.15,-90,0,0,-90,1
1329,1,0,46.984,0,-30,1,0.25,2,3,0.0,1.0,12,40.0,30.0,3,0.6509999999999999,1.0,52.452,0.0,0,2018-04-24 08:13:42.000,55,2018-04-24 08:14:28.984,0.25,-90,-180,-150,-60,1
1330,3,0,82.807,1,-30,1,0.25,2,9,0.0,1.0,6,40.0,30.0,9,0.601,1.0,84.53399999999998,0.2,1,2018-04-24 08:13:42.000,55,2018-04-24 08:15:04.807,0.25,-90,0,30,-60,1
1331,4,0,94.78,0,-30,1,0.25,2,3,0.0,1.0,12,40.0,30.0,3,0.626,0.0,96.531,0.2,1,2018-04-24 08:13:42.000,55,2018-04-24 08:15:16.780,0.25,90,-180,-150,120,1
1332,5,0,113.421,0,-30,1,0.25,2,9,0.0,1.0,6,40.0,30.0,9,0.6759999999999999,0.0,114.511,0.0,0,2018-04-24 08:13:42.000,55,2018-04-24 08:15:35.421,0.25,90,0,30,120,1
1333,7,0,154.33700000000005,0,-30,1,0.25,2,9,0.0,1.0,6,40.0,30.0,9,0.626,1.0,156.623,0.2,1,2018-04-24 08:13:42.000,55,2018-04-24 08:16:16.337,0.25,-90,0,30,-60,1
1334,8,0,170.297,0,-30,1,0.25,2,9,0.0,1.0,6,40.0,30.0,9,0.701,1.0,171.49900000000005,0.2,1,2018-04-24 08:13:42.000,55,2018-04-24 08:16:32.297,0.25,-90,0,30,-60,1
1335,9,0,204.521,0,-30,1,0.25,2,9,0.0,1.0,6,40.0,30.0,9,0.6759999999999999,1.0,208.185,0.2,1,2018-04-24 08:13:42.000,55,2018-04-24 08:17:06.521,0.25,-90,0,30,-60,1
1336,10,0,222.646,0,-30,1,0.25,2,3,0.0,1.0,12,40.0,30.0,3,0.6509999999999999,1.0,223.988,0.0,0,2018-04-24 08:13:42.000,55,2018-04-24 08:17:24.646,0.25,-90,-180,-150,-60,1
1337,12,0,328.749,0,-30,1,0.25,2,9,0.0,1.0,6,40.0,30.0,9,0.701,1.0,330.663,0.2,1,2018-04-24 08:13:42.000,55,2018-04-24 08:19:10.749,0.25,-90,0,30,-60,1
1338,13,0,342.655,0,-30,1,0.25,2,3,0.0,1.0,12,40.0,30.0,3,0.626,1.0,344.2390000000001,0.0,0,2018-04-24 08:13:42.000,55,2018-04-24 08:19:24.655,0.25,-90,-180,-150,-60,1
1353,1,0,210.449,0,0,1,0.25,2,3,0.0,1.0,12,40.0,30.0,3,0.601,1.0,222.99,0.0,0,2018-04-24 13:59:31.000,43,2018-04-24 14:03:01.449,0.25,-90,-180,-180,-90,1
1354,3,0,303.228,1,0,1,0.25,2,9,0.0,1.0,6,40.0,30.0,9,0.6759999999999999,0.0,305.303,0.0,0,2018-04-24 13:59:31.000,43,2018-04-24 14:04:34.228,0.25,90,0,0,90,1
1355,5,0,371.072,1,0,1,0.25,2,9,0.0,1.0,6,40.0,30.0,9,0.6509999999999999,1.0,377.314,0.2,1,2018-04-24 13:59:31.000,43,2018-04-24 14:05:42.072,0.25,-90,0,0,-90,1
1356,6,0,390.215,0,0,1,0.25,2,3,0.0,1.0,12,40.0,30.0,3,0.601,1.0,393.241,0.0,0,2018-04-24 13:59:31.000,43,2018-04-24 14:06:01.215,0.25,-90,-180,-180,-90,1
1357,8,0,441.917,0,0,1,0.25,2,9,0.0,1.0,6,40.0,30.0,9,0.701,0.0,447.491,0.0,0,2018-04-24 13:59:31.000,43,2018-04-24 14:06:52.917,0.25,90,0,0,90,1
1358,10,0,539.318,1,0,1,0.25,2,3,3.0,1.0,12,40.0,30.0,3,0.6509999999999999,0.0,541.13,0.2,1,2018-04-24 13:59:31.000,43,2018-04-24 14:08:30.318,0.25,90,-180,-180,90,1
1359,11,0,561.747,0,0,1,0.25,2,3,3.0,1.0,12,40.0,30.0,3,0.626,0.0,562.922,0.2,1,2018-04-24 13:59:31.000,43,2018-04-24 14:08:52.747,0.25,90,-180,-180,90,1
1360,12,0,611.507,1,0,1,0.25,2,9,3.0,1.0,6,40.0,30.0,9,0.601,1.0,621.503,0.2,1,2018-04-24 13:59:31.000,43,2018-04-24 14:09:42.507,0.25,-90,0,0,-90,1
1361,13,0,638.178,0,0,1,0.25,2,9,3.0,1.0,6,40.0,30.0,9,0.701,1.0,640.212,0.2,1,2018-04-24 13:59:31.000,43,2018-04-24 14:10:09.178,0.25,-90,0,0,-90,1
1362,14,0,670.1289999999998,0,0,1,0.25,2,3,3.0,1.0,12,40.0,30.0,3,0.6759999999999999,0.0,674.326,0.2,1,2018-04-24 13:59:31.000,43,2018-04-24 14:10:41.129,0.25,90,-180,-180,90,1
1396,1,0,50.08,0,30,1,0.25,2,9,0.0,1.0,6,40.0,30.0,9,0.6509999999999999,1.0,52.415,0.2,1,2018-04-25 08:32:29.000,112,2018-04-25 08:33:19.080,0.25,-90,0,-30,-120,1
1397,2,0,114.799,0,30,1,0.25,2,3,0.0,1.0,12,40.0,30.0,3,0.701,0.0,116.068,0.2,1,2018-04-25 08:32:29.000,112,2018-04-25 08:34:23.799,0.25,90,-180,150,60,1
1398,3,0,154.916,1,30,1,0.25,2,9,0.0,1.0,6,40.0,30.0,9,0.626,1.0,156.191,0.2,1,2018-04-25 08:32:29.000,112,2018-04-25 08:35:03.916,0.25,-90,0,-30,-120,1
1399,4,0,167.63,0,30,1,0.25,2,3,0.0,1.0,12,40.0,30.0,3,0.601,0.0,169.572,0.2,1,2018-04-25 08:32:29.000,112,2018-04-25 08:35:16.630,0.25,90,-180,150,60,1
1400,5,0,194.45,0,30,1,0.25,2,3,0.0,1.0,12,40.0,30.0,3,0.6759999999999999,0.0,195.467,0.2,1,2018-04-25 08:32:29.000,112,2018-04-25 08:35:43.450,0.25,90,-180,150,60,1
1401,6,0,222.987,0,30,1,0.25,2,3,0.0,1.0,12,40.0,30.0,3,0.6509999999999999,1.0,227.139,0.0,0,2018-04-25 08:32:29.000,112,2018-04-25 08:36:11.987,0.25,-90,-180,150,-120,1
1402,8,0,304.265,1,30,1,0.25,2,3,0.0,1.0,12,40.0,30.0,3,0.626,1.0,312.3520000000001,0.0,0,2018-04-25 08:32:29.000,112,2018-04-25 08:37:33.265,0.25,-90,-180,150,-120,1
1403,10,0,364.346,1,30,1,0.25,2,9,0.0,1.0,6,40.0,30.0,9,0.6759999999999999,0.0,372.724,0.0,0,2018-04-25 08:32:29.000,112,2018-04-25 08:38:33.346,0.25,90,0,-30,60,1
1404,12,0,448.0630000000001,0,30,1,0.25,2,9,0.0,1.0,6,40.0,30.0,9,0.626,1.0,453.935,0.2,1,2018-04-25 08:32:29.000,112,2018-04-25 08:39:57.063,0.25,-90,0,-30,-120,1
1405,13,0,486.463,0,30,1,0.25,2,9,0.0,1.0,6,40.0,30.0,9,0.701,1.0,490.903,0.2,1,2018-04-25 08:32:29.000,112,2018-04-25 08:40:35.463,0.25,-90,0,-30,-120,1
1433,1,0,15.729,0,60,1,0.25,2,3,0.0,1.0,12,40.0,30.0,3,0.626,1.0,18.415,0.0,0,2018-04-25 14:17:33.000,182,2018-04-25 14:17:48.729,0.25,-90,-180,120,-150,1
1434,3,0,31.299,0,60,1,0.25,2,3,0.0,1.0,12,40.0,30.0,3,0.701,1.0,33.525,0.0,0,2018-04-25 14:17:33.000,182,2018-04-25 14:18:04.299,0.25,-90,-180,120,-150,1
1435,5,0,95.422,0,60,1,0.25,2,3,0.0,1.0,12,40.0,30.0,3,0.601,1.0,101.395,0.0,0,2018-04-25 14:17:33.000,182,2018-04-25 14:19:08.422,0.25,-90,-180,120,-150,1
1436,7,0,140.55700000000002,0,60,1,0.25,2,3,0.0,1.0,12,40.0,30.0,3,0.601,0.0,142.756,0.2,1,2018-04-25 14:17:33.000,182,2018-04-25 14:19:53.557,0.25,90,-180,120,30,1
1437,8,0,182.397,0,60,1,0.25,2,9,0.0,1.0,6,40.0,30.0,9,0.701,0.0,196.93400000000003,0.0,0,2018-04-25 14:17:33.000,182,2018-04-25 14:20:35.397,0.25,90,0,-60,30,1
1438,10,0,273.588,1,60,1,0.25,2,9,0.0,1.0,6,40.0,30.0,9,0.6759999999999999,1.0,279.386,0.2,1,2018-04-25 14:17:33.000,182,2018-04-25 14:22:06.588,0.25,-90,0,-60,-150,1
1439,11,0,293.9170000000001,1,60,1,0.25,2,9,0.0,1.0,6,40.0,30.0,9,0.6509999999999999,1.0,299.887,0.2,1,2018-04-25 14:17:33.000,182,2018-04-25 14:22:26.917,0.25,-90,0,-60,-150,1
1440,12,0,322.206,1,60,1,0.25,2,9,0.0,1.0,6,40.0,30.0,9,0.601,1.0,326.08,0.2,1,2018-04-25 14:17:33.000,182,2018-04-25 14:22:55.206,0.25,-90,0,-60,-150,1
1441,13,0,339.773,1,60,1,0.25,2,9,0.0,1.0,6,40.0,30.0,9,0.626,1.0,343.954,0.2,1,2018-04-25 14:17:33.000,182,2018-04-25 14:23:12.773,0.25,-90,0,-60,-150,1
1442,14,0,362.673,1,60,1,0.25,2,3,0.0,1.0,12,40.0,30.0,3,0.6759999999999999,1.0,363.786,0.0,0,2018-04-25 14:17:33.000,182,2018-04-25 14:23:35.673,0.25,-90,-180,120,-150,1
1464,1,0,91.856,0,0,1,0.25,2,9,0.0,1.0,6,40.0,30.0,9,0.701,0.0,99.324,0.0,0,2018-04-26 09:21:36.000,63,2018-04-26 09:23:07.856,0.25,90,0,0,90,1
1465,3,0,168.234,1,0,1,0.25,2,3,0.0,1.0,12,40.0,30.0,3,0.601,0.0,175.22299999999996,0.2,1,2018-04-26 09:21:36.000,63,2018-04-26 09:24:24.234,0.25,90,-180,-180,90,1
1466,4,0,199.083,0,0,1,0.25,2,9,0.0,1.0,6,40.0,30.0,9,0.626,0.0,206.46,0.0,0,2018-04-26 09:21:36.000,63,2018-04-26 09:24:55.083,0.25,90,0,0,90,1
1467,6,0,280.837,0,0,1,0.25,2,3,0.0,1.0,12,40.0,30.0,3,0.626,0.0,286.756,0.2,1,2018-04-26 09:21:36.000,63,2018-04-26 09:26:16.837,0.25,90,-180,-180,90,1
1468,7,0,311.551,0,0,1,0.25,2,3,0.0,1.0,12,40.0,30.0,3,0.6759999999999999,1.0,313.3640000000001,0.0,0,2018-04-26 09:21:36.000,63,2018-04-26 09:26:47.551,0.25,-90,-180,-180,-90,1
1469,10,0,371.773,0,0,1,0.25,2,9,0.0,1.0,6,40.0,30.0,9,0.601,0.0,372.957,0.0,0,2018-04-26 09:21:36.000,63,2018-04-26 09:27:47.773,0.25,90,0,0,90,1
1470,13,0,444.711,0,0,1,0.25,2,9,0.0,1.0,6,40.0,30.0,9,0.626,1.0,448.956,0.2,1,2018-04-26 09:21:36.000,63,2018-04-26 09:29:00.711,0.25,-90,0,0,-90,1
1471,14,0,466.215,0,0,1,0.25,2,9,0.0,1.0,6,40.0,30.0,9,0.701,0.0,472.509,0.0,0,2018-04-26 09:21:36.000,63,2018-04-26 09:29:22.215,0.25,90,0,0,90,1
1472,17,0,518.371,0,0,1,0.25,2,3,0.0,1.0,12,40.0,30.0,3,0.6509999999999999,1.0,522.734,0.0,0,2018-04-26 09:21:36.000,63,2018-04-26 09:30:14.371,0.25,-90,-180,-180,-90,1
1473,19,0,557.177,0,0,1,0.25,2,9,0.0,1.0,6,40.0,30.0,9,0.601,0.0,563.663,0.0,0,2018-04-26 09:21:36.000,63,2018-04-26 09:30:53.177,0.25,90,0,0,90,1
1583,1,0,30.117,0,180,1,0.25,2,9,0.0,1.0,6,40.0,30.0,9,0.35100000000000003,0.0,34.562,0.0,0,2018-04-27 09:50:05.000,181,2018-04-27 09:50:35.117,0.25,90,0,-180,-90,1
1584,4,0,86.147,0,180,1,0.25,2,9,0.0,1.0,6,40.0,30.0,9,0.301,1.0,87.70700000000002,0.2,1,2018-04-27 09:50:05.000,181,2018-04-27 09:51:31.147,0.25,-90,0,-180,90,1
1585,5,0,111.206,0,180,1,0.25,2,3,0.0,1.0,12,40.0,30.0,3,0.501,0.0,117.119,0.2,1,2018-04-27 09:50:05.000,181,2018-04-27 09:51:56.206,0.25,90,-180,0,-90,1
1586,6,0,124.011,1,180,1,0.25,2,9,0.0,1.0,6,40.0,30.0,9,0.451,0.0,128.018,0.0,0,2018-04-27 09:50:05.000,181,2018-04-27 09:52:09.011,0.25,90,0,-180,-90,1
1587,9,0,180.516,0,180,1,0.25,2,3,0.0,1.0,12,40.0,30.0,3,0.501,0.0,188.52,0.2,1,2018-04-27 09:50:05.000,181,2018-04-27 09:53:05.516,0.25,90,-180,0,-90,1
1588,10,0,194.916,0,180,1,0.25,2,9,0.0,1.0,6,40.0,30.0,9,0.301,1.0,196.427,0.2,1,2018-04-27 09:50:05.000,181,2018-04-27 09:53:19.916,0.25,-90,0,-180,90,1
1589,11,0,204.417,0,180,1,0.25,2,3,0.0,1.0,12,40.0,30.0,3,0.451,1.0,206.197,0.0,0,2018-04-27 09:50:05.000,181,2018-04-27 09:53:29.417,0.25,-90,-180,0,90,1
1590,13,0,240.781,0,180,1,0.25,2,3,0.0,1.0,12,40.0,30.0,3,0.35100000000000003,0.0,242.894,0.2,1,2018-04-27 09:50:05.000,181,2018-04-27 09:54:05.781,0.25,90,-180,0,-90,1
1591,14,0,254.856,0,180,1,0.25,2,9,0.0,1.0,6,40.0,30.0,9,0.501,0.0,257.307,0.0,0,2018-04-27 09:50:05.000,181,2018-04-27 09:54:19.856,0.25,90,0,-180,-90,1
1592,17,0,309.634,0,180,1,0.25,2,3,0.0,1.0,12,40.0,30.0,3,0.451,0.0,311.7990000000001,0.2,1,2018-04-27 09:50:05.000,181,2018-04-27 09:55:14.634,0.25,90,-180,0,-90,1
1654,1,0,39.66,0,0,1,0.25,2,3,0.0,1.0,12,40.0,30.0,3,0.401,0.0,40.985,0.2,1,2018-04-30 11:16:19.000,117,2018-04-30 11:16:58.660,0.25,90,-180,-180,90,1
1655,2,0,59.069,0,0,1,0.25,2,3,0.0,1.0,12,40.0,30.0,3,0.501,0.0,60.12600000000001,0.2,1,2018-04-30 11:16:19.000,117,2018-04-30 11:17:18.069,0.25,90,-180,-180,90,1
1656,3,0,90.827,1,0,1,0.25,2,9,0.0,1.0,6,40.0,30.0,9,0.451,1.0,92.581,0.2,1,2018-04-30 11:16:19.000,117,2018-04-30 11:17:49.827,0.25,-90,0,0,-90,1
1657,4,0,102.539,0,0,1,0.25,2,9,0.0,1.0,6,40.0,30.0,9,0.35100000000000003,1.0,104.133,0.2,1,2018-04-30 11:16:19.000,117,2018-04-30 11:18:01.539,0.25,-90,0,0,-90,1
1658,5,0,113.369,1,0,1,0.25,2,3,0.0,1.0,12,40.0,30.0,3,0.301,0.0,115.903,0.2,1,2018-04-30 11:16:19.000,117,2018-04-30 11:18:12.369,0.25,90,-180,-180,90,1
1659,6,0,146.606,0,0,1,0.25,2,9,0.0,1.0,6,40.0,30.0,9,0.451,0.0,148.005,0.0,0,2018-04-30 11:16:19.000,117,2018-04-30 11:18:45.606,0.25,90,0,0,90,1
1660,8,0,173.15099999999995,0,0,1,0.25,2,3,0.0,1.0,12,40.0,30.0,3,0.301,1.0,174.669,0.0,0,2018-04-30 11:16:19.000,117,2018-04-30 11:19:12.151,0.25,-90,-180,-180,-90,1
1661,10,0,429.281,0,0,1,0.25,2,9,0.0,1.0,6,40.0,30.0,9,0.35100000000000003,0.0,431.275,0.0,0,2018-04-30 11:16:19.000,117,2018-04-30 11:23:28.281,0.25,90,0,0,90,1
1662,12,0,452.258,0,0,1,0.25,2,9,0.0,1.0,6,40.0,30.0,9,0.35100000000000003,1.0,453.944,0.2,1,2018-04-30 11:16:19.000,117,2018-04-30 11:23:51.258,0.25,-90,0,0,-90,1
1663,13,0,510.67,0,0,1,0.25,2,9,0.0,1.0,6,40.0,30.0,9,0.501,1.0,512.49,0.2,1,2018-04-30 11:16:19.000,117,2018-04-30 11:24:49.670,0.25,-90,0,0,-90,1
2339,1,0,93.695,0,90,1,0.25,2,9,0.0,1.0,6,40.0,30.0,9,0.501,1.0,94.865,0.2,1,2018-05-09 08:53:02.000,12,2018-05-09 08:54:35.695,0.25,-90,0,-90,-180,1
2340,2,0,112.721,0,90,1,0.25,2,9,0.0,1.0,6,40.0,30.0,9,0.401,0.0,116.816,0.0,0,2018-05-09 08:53:02.000,12,2018-05-09 08:54:54.721,0.25,90,0,-90,0,1
2341,4,0,301.6740000000001,1,90,1,0.25,2,9,0.0,1.0,6,40.0,30.0,9,0.301,1.0,308.183,0.2,1,2018-05-09 08:53:02.000,12,2018-05-09 08:58:03.674,0.25,-90,0,-90,-180,1
2342,5,0,322.948,0,90,1,0.25,2,3,0.0,1.0,12,40.0,30.0,3,0.35100000000000003,1.0,326.11,0.0,0,2018-05-09 08:53:02.000,12,2018-05-09 08:58:24.948,0.25,-90,-180,90,-180,1
2343,7,0,366.664,0,90,1,0.25,2,3,0.0,1.0,12,40.0,30.0,3,0.401,0.0,369.713,0.2,1,2018-05-09 08:53:02.000,12,2018-05-09 08:59:08.664,0.25,90,-180,90,0,1
2344,8,0,392.6,1,90,1,0.25,2,3,0.0,1.0,12,40.0,30.0,3,0.451,0.0,396.509,0.2,1,2018-05-09 08:53:02.000,12,2018-05-09 08:59:34.600,0.25,90,-180,90,0,1
2345,9,0,418.83,0,90,1,0.25,2,9,0.0,1.0,6,40.0,30.0,9,0.35100000000000003,1.0,421.057,0.2,1,2018-05-09 08:53:02.000,12,2018-05-09 09:00:00.830,0.25,-90,0,-90,-180,1
2346,10,0,448.663,0,90,1,0.25,2,3,0.0,1.0,12,40.0,30.0,3,0.501,1.0,454.549,0.0,0,2018-05-09 08:53:02.000,12,2018-05-09 09:00:30.663,0.25,-90,-180,90,-180,1
2347,12,0,502.954,1,90,1,0.25,2,3,0.0,1.0,12,40.0,30.0,3,0.401,0.0,507.141,0.2,1,2018-05-09 08:53:02.000,12,2018-05-09 09:01:24.954,0.25,90,-180,90,0,1
2348,13,0,526.365,0,90,1,0.25,2,3,0.0,1.0,12,40.0,30.0,3,0.301,1.0,528.714,0.0,0,2018-05-09 08:53:02.000,12,2018-05-09 09:01:48.365,0.25,-90,-180,90,-180,1
2407,1,0,61.313,0,-90,1,0.25,2,9,0.0,1.0,6,40.0,30.0,9,0.401,1.0,69.014,0.2,1,2018-05-10 08:43:02.000,119,2018-05-10 08:44:03.313,0.25,-90,0,90,0,1
2408,2,0,83.40899999999998,0,-90,1,0.25,2,9,0.0,1.0,6,40.0,30.0,9,0.35100000000000003,0.0,89.684,0.0,0,2018-05-10 08:43:02.000,119,2018-05-10 08:44:25.409,0.25,90,0,90,-180,1
2409,4,0,179.399,0,-90,1,0.25,2,3,0.0,1.0,12,40.0,30.0,3,0.501,1.0,184.03,0.0,0,2018-05-10 08:43:02.000,119,2018-05-10 08:46:01.399,0.25,-90,-180,-90,0,1
2410,7,0,389.633,0,-90,1,0.25,2,3,0.0,1.0,12,40.0,30.0,3,0.401,0.0,392.001,0.2,1,2018-05-10 08:43:02.000,119,2018-05-10 08:49:31.633,0.25,90,-180,-90,-180,1
2411,8,0,439.143,1,-90,1,0.25,2,9,0.0,1.0,6,40.0,30.0,9,0.451,1.0,443.037,0.2,1,2018-05-10 08:43:02.000,119,2018-05-10 08:50:21.143,0.25,-90,0,90,0,1
2412,9,0,622.879,0,-90,1,0.25,2,9,0.0,1.0,6,40.0,30.0,9,0.501,0.0,624.971,0.0,0,2018-05-10 08:43:02.000,119,2018-05-10 08:53:24.879,0.25,90,0,90,-180,1
2413,11,0,692.742,0,-90,1,0.25,2,3,0.0,1.0,12,40.0,30.0,3,0.501,0.0,695.674,0.2,1,2018-05-10 08:43:02.000,119,2018-05-10 08:54:34.742,0.25,90,-180,-90,-180,1
2414,12,0,711.566,1,-90,1,0.25,2,3,0.0,1.0,12,40.0,30.0,3,0.35100000000000003,1.0,713.922,0.0,0,2018-05-10 08:43:02.000,119,2018-05-10 08:54:53.566,0.25,-90,-180,-90,0,1
2415,14,0,820.755,0,-90,1,0.25,2,9,0.0,1.0,6,40.0,30.0,9,0.451,0.0,824.337,0.0,0,2018-05-10 08:43:02.000,119,2018-05-10 08:56:42.755,0.25,90,0,90,-180,1
2416,17,0,867.4119999999998,0,-90,1,0.25,2,3,0.0,1.0,12,40.0,30.0,3,0.401,1.0,872.4810000000001,0.0,0,2018-05-10 08:43:02.000,119,2018-05-10 08:57:29.412,0.25,-90,-180,-90,0,1
2464,1,0,33.222,0,0,1,0.25,2,9,0.0,1.0,6,40.0,30.0,9,0.501,1.0,35.62,0.2,1,2018-05-11 09:25:04.000,177,2018-05-11 09:25:37.222,0.25,-90,0,0,-90,1
2465,2,0,41.595,0,0,1,0.25,2,9,0.0,1.0,6,40.0,30.0,9,0.301,1.0,42.989,0.2,1,2018-05-11 09:25:04.000,177,2018-05-11 09:25:45.595,0.25,-90,0,0,-90,1
2466,3,0,46.974,0,0,1,0.25,2,3,0.0,1.0,12,40.0,30.0,3,0.451,0.0,48.765,0.2,1,2018-05-11 09:25:04.000,177,2018-05-11 09:25:50.974,0.25,90,-180,-180,90,1
2467,4,0,59.306,0,0,1,0.25,2,9,0.0,1.0,6,40.0,30.0,9,0.401,0.0,60.457,0.0,0,2018-05-11 09:25:04.000,177,2018-05-11 09:26:03.306,0.25,90,0,0,90,1
2468,6,0,90.718,0,0,1,0.25,2,9,0.0,1.0,6,40.0,30.0,9,0.501,1.0,92.725,0.2,1,2018-05-11 09:25:04.000,177,2018-05-11 09:26:34.718,0.25,-90,0,0,-90,1
2469,7,0,118.958,0,0,1,0.25,2,3,0.0,1.0,12,40.0,30.0,3,0.401,1.0,120.334,0.0,0,2018-05-11 09:25:04.000,177,2018-05-11 09:27:02.958,0.25,-90,-180,-180,-90,1
2470,10,0,168.384,0,0,1,0.25,2,3,0.0,1.0,12,40.0,30.0,3,0.301,0.0,169.96,0.2,1,2018-05-11 09:25:04.000,177,2018-05-11 09:27:52.384,0.25,90,-180,-180,90,1
2471,11,0,199.989,0,0,1,0.25,2,9,0.0,1.0,6,40.0,30.0,9,0.35100000000000003,1.0,202.601,0.2,1,2018-05-11 09:25:04.000,177,2018-05-11 09:28:23.989,0.25,-90,0,0,-90,1
2472,12,0,224.47,0,0,1,0.25,2,3,0.0,1.0,12,40.0,30.0,3,0.301,1.0,226.581,0.0,0,2018-05-11 09:25:04.000,177,2018-05-11 09:28:48.470,0.25,-90,-180,-180,-90,1
2473,14,0,282.644,0,0,1,0.25,2,9,0.0,1.0,6,40.0,30.0,9,0.401,1.0,284.876,0.2,1,2018-05-11 09:25:04.000,177,2018-05-11 09:29:46.644,0.25,-90,0,0,-90,1
2720,1,0,64.635,0,-60,1,0.25,2,9,0.0,1.0,6,45.0,30.0,9,0.301,1.0,69.243,0.2,1,2018-05-23 08:50:28.000,40,2018-05-23 08:51:32.635,0.25,-90,0,60,-30,1
2721,2,0,141.631,0,-60,1,0.25,2,3,0.0,1.0,12,45.0,30.0,3,0.35100000000000003,1.0,146.582,0.0,0,2018-05-23 08:50:28.000,40,2018-05-23 08:52:49.631,0.25,-90,-180,-120,-30,1
2722,4,0,190.614,0,-60,1,0.25,2,3,0.0,1.0,12,45.0,30.0,3,0.451,0.0,192.795,0.2,1,2018-05-23 08:50:28.000,40,2018-05-23 08:53:38.614,0.25,90,-180,-120,150,1
2723,5,0,248.593,0,-60,1,0.25,2,3,0.0,1.0,12,45.0,30.0,3,0.501,0.0,250.07,0.2,1,2018-05-23 08:50:28.000,40,2018-05-23 08:54:36.593,0.25,90,-180,-120,150,1
2724,6,0,276.896,0,-60,1,0.25,2,3,0.0,1.0,12,45.0,30.0,3,0.451,0.0,278.263,0.2,1,2018-05-23 08:50:28.000,40,2018-05-23 08:55:04.896,0.25,90,-180,-120,150,1
2725,7,0,294.314,0,-60,1,0.25,2,9,0.0,1.0,6,45.0,30.0,9,0.501,0.0,296.0370000000001,0.0,0,2018-05-23 08:50:28.000,40,2018-05-23 08:55:22.314,0.25,90,0,60,150,1
2726,10,0,425.888,0,-60,1,0.25,2,9,0.0,1.0,6,45.0,30.0,9,0.401,1.0,427.645,0.2,1,2018-05-23 08:50:28.000,40,2018-05-23 08:57:33.888,0.25,-90,0,60,-30,1
2727,11,0,451.492,0,-60,1,0.25,2,3,0.0,1.0,12,45.0,30.0,3,0.35100000000000003,1.0,454.263,0.0,0,2018-05-23 08:50:28.000,40,2018-05-23 08:57:59.492,0.25,-90,-180,-120,-30,1
2728,13,0,472.504,0,-60,1,0.25,2,3,0.0,1.0,12,45.0,30.0,3,0.401,0.0,473.756,0.2,1,2018-05-23 08:50:28.000,40,2018-05-23 08:58:20.504,0.25,90,-180,-120,150,1
2729,14,0,505.97,0,-60,1,0.25,2,3,0.0,1.0,12,45.0,30.0,3,0.301,0.0,507.44,0.2,1,2018-05-23 08:50:28.000,40,2018-05-23 08:58:53.970,0.25,90,-180,-120,150,1
2741,1,0,43.307,0,0,1,0.25,2,3,0.0,1.0,12,45.0,30.0,3,0.35100000000000003,0.0,44.49,0.2,1,2018-05-23 14:01:15.000,86,2018-05-23 14:01:58.307,0.25,90,-180,-180,90,1
2742,2,0,66.806,1,0,1,0.25,2,9,0.0,1.0,6,45.0,30.0,9,0.401,1.0,68.514,0.2,1,2018-05-23 14:01:15.000,86,2018-05-23 14:02:21.806,0.25,-90,0,0,-90,1
2743,3,0,83.088,0,0,1,0.25,2,9,0.0,1.0,6,45.0,30.0,9,0.501,1.0,84.822,0.2,1,2018-05-23 14:01:15.000,86,2018-05-23 14:02:38.088,0.25,-90,0,0,-90,1
2744,4,0,99.674,1,0,1,0.25,2,3,0.0,1.0,12,45.0,30.0,3,0.301,1.0,101.488,0.0,0,2018-05-23 14:01:15.000,86,2018-05-23 14:02:54.674,0.25,-90,-180,-180,-90,1
2745,7,0,149.148,0,0,1,0.25,2,3,0.0,1.0,12,45.0,30.0,3,0.35100000000000003,1.0,151.503,0.0,0,2018-05-23 14:01:15.000,86,2018-05-23 14:03:44.148,0.25,-90,-180,-180,-90,1
2746,9,0,198.075,0,0,1,0.25,2,9,0.0,1.0,6,45.0,30.0,9,0.451,1.0,199.907,0.2,1,2018-05-23 14:01:15.000,86,2018-05-23 14:04:33.075,0.25,-90,0,0,-90,1
2747,10,0,215.295,0,0,1,0.25,2,9,0.0,1.0,6,45.0,30.0,9,0.401,1.0,217.04,0.2,1,2018-05-23 14:01:15.000,86,2018-05-23 14:04:50.295,0.25,-90,0,0,-90,1
2748,11,0,230.2,1,0,1,0.25,2,3,0.0,1.0,12,45.0,30.0,3,0.401,0.0,232.262,0.2,1,2018-05-23 14:01:15.000,86,2018-05-23 14:05:05.200,0.25,90,-180,-180,90,1
2749,12,0,279.695,0,0,1,0.25,2,9,0.0,1.0,6,45.0,30.0,9,0.301,1.0,281.431,0.2,1,2018-05-23 14:01:15.000,86,2018-05-23 14:05:54.695,0.25,-90,0,0,-90,1
2750,13,0,341.30800000000005,0,0,1,0.25,2,3,0.0,1.0,12,45.0,30.0,3,0.451,1.0,343.164,0.0,0,2018-05-23 14:01:15.000,86,2018-05-23 14:06:56.308,0.25,-90,-180,-180,-90,1
2795,1,0,30.301,0,120,1,0.25,2,9,0.0,1.0,6,45.0,30.0,9,0.501,1.0,33.001999999999995,0.2,1,2018-05-24 08:48:42.000,200,2018-05-24 08:49:12.301,0.25,-90,0,-120,150,1
2796,2,0,56.639,0,120,1,0.25,2,9,0.0,1.0,6,45.0,30.0,9,0.301,1.0,58.429,0.2,1,2018-05-24 08:48:42.000,200,2018-05-24 08:49:38.639,0.25,-90,0,-120,150,1
2797,3,0,76.345,0,120,1,0.25,2,3,0.0,1.0,12,45.0,30.0,3,0.451,0.0,80.581,0.2,1,2018-05-24 08:48:42.000,200,2018-05-24 08:49:58.345,0.25,90,-180,60,-30,1
2798,4,0,119.261,0,120,1,0.25,2,3,0.0,1.0,12,45.0,30.0,3,0.401,1.0,123.534,0.0,0,2018-05-24 08:48:42.000,200,2018-05-24 08:50:41.261,0.25,-90,-180,60,150,1
2799,6,0,187.295,0,120,1,0.25,2,3,0.0,1.0,12,45.0,30.0,3,0.401,1.0,192.19,0.0,0,2018-05-24 08:48:42.000,200,2018-05-24 08:51:49.295,0.25,-90,-180,60,150,1
2800,8,0,340.004,0,120,1,0.25,2,9,0.0,1.0,6,45.0,30.0,9,0.451,0.0,343.63199999999995,0.0,0,2018-05-24 08:48:42.000,200,2018-05-24 08:54:22.004,0.25,90,0,-120,-30,1
2801,12,0,463.133,0,120,1,0.25,2,9,0.0,1.0,6,45.0,30.0,9,0.401,1.0,465.255,0.2,1,2018-05-24 08:48:42.000,200,2018-05-24 08:56:25.133,0.25,-90,0,-120,150,1
2802,13,0,486.418,1,120,1,0.25,2,9,0.0,1.0,6,45.0,30.0,9,0.301,1.0,488.085,0.2,1,2018-05-24 08:48:42.000,200,2018-05-24 08:56:48.418,0.25,-90,0,-120,150,1
2803,14,0,516.408,0,120,1,0.25,2,3,0.0,1.0,12,45.0,30.0,3,0.501,1.0,517.947,0.0,0,2018-05-24 08:48:42.000,200,2018-05-24 08:57:18.408,0.25,-90,-180,60,150,1
2804,16,0,621.684,0,120,1,0.25,2,9,0.0,1.0,6,45.0,30.0,9,0.451,0.0,627.183,0.0,0,2018-05-24 08:48:42.000,200,2018-05-24 08:59:03.684,0.25,90,0,-120,-30,1
2874,1,0,42.4,0,-150,1,0.25,2,9,0.0,1.0,6,45.0,30.0,9,0.301,1.0,44.0,0.2,1,2018-05-25 08:38:24.000,186,2018-05-25 08:39:06.400,0.25,-90,0,150,60,1
2875,2,0,69.098,0,-150,1,0.25,2,9,0.0,1.0,6,45.0,30.0,9,0.501,0.0,72.93,0.0,0,2018-05-25 08:38:24.000,186,2018-05-25 08:39:33.098,0.25,90,0,150,-120,1
2876,4,0,137.623,0,-150,1,0.25,2,9,0.0,1.0,6,45.0,30.0,9,0.35100000000000003,0.0,139.629,0.0,0,2018-05-25 08:38:24.000,186,2018-05-25 08:40:41.623,0.25,90,0,150,-120,1
2877,6,0,187.068,0,-150,1,0.25,2,9,0.0,1.0,6,45.0,30.0,9,0.501,0.0,190.53,0.0,0,2018-05-25 08:38:24.000,186,2018-05-25 08:41:31.068,0.25,90,0,150,-120,1
2878,9,0,302.381,1,-150,1,0.25,2,9,0.0,1.0,6,45.0,30.0,9,0.35100000000000003,1.0,307.717,0.2,1,2018-05-25 08:38:24.000,186,2018-05-25 08:43:26.381,0.25,-90,0,150,60,1
2879,10,0,336.72,0,-150,1,0.25,2,3,0.0,1.0,12,45.0,30.0,3,0.401,1.0,338.201,0.0,0,2018-05-25 08:38:24.000,186,2018-05-25 08:44:00.720,0.25,-90,-180,-30,60,1
2880,13,0,388.34,1,-150,1,0.25,2,3,0.0,1.0,12,45.0,30.0,3,0.451,1.0,390.516,0.0,0,2018-05-25 08:38:24.000,186,2018-05-25 08:44:52.340,0.25,-90,-180,-30,60,1
2881,16,0,422.282,0,-150,1,0.25,2,3,0.0,1.0,12,45.0,30.0,3,0.301,1.0,425.782,0.0,0,2018-05-25 08:38:24.000,186,2018-05-25 08:45:26.282,0.25,-90,-180,-30,60,1
2882,18,0,447.274,0,-150,1,0.25,2,3,0.0,1.0,12,45.0,30.0,3,0.501,0.0,449.181,0.2,1,2018-05-25 08:38:24.000,186,2018-05-25 08:45:51.274,0.25,90,-180,-30,-120,1
2883,19,0,461.691,0,-150,1,0.25,2,9,0.0,1.0,6,45.0,30.0,9,0.451,0.0,463.997,0.0,0,2018-05-25 08:38:24.000,186,2018-05-25 08:46:05.691,0.25,90,0,150,-120,1
2917,1,0,27.708,0,150,1,0.25,2,9,0.0,1.0,6,45.0,30.0,9,0.501,1.0,30.221,0.2,1,2018-05-25 14:01:49.000,13,2018-05-25 14:02:16.708,0.25,-90,0,-150,120,1
2918,2,0,57.027,0,150,1,0.25,2,9,0.0,1.0,6,45.0,30.0,9,0.451,1.0,58.223,0.2,1,2018-05-25 14:01:49.000,13,2018-05-25 14:02:46.027,0.25,-90,0,-150,120,1
2919,3,0,75.006,1,150,1,0.25,2,3,0.0,1.0,12,45.0,30.0,3,0.35100000000000003,0.0,77.846,0.2,1,2018-05-25 14:01:49.000,13,2018-05-25 14:03:04.006,0.25,90,-180,30,-60,1
2920,4,0,110.4,0,150,1,0.25,2,3,0.0,1.0,12,45.0,30.0,3,0.401,0.0,120.436,0.2,1,2018-05-25 14:01:49.000,13,2018-05-25 14:03:39.400,0.25,90,-180,30,-60,1
2921,5,0,131.881,0,150,1,0.25,2,3,0.0,1.0,12,45.0,30.0,3,0.301,0.0,134.10299999999998,0.2,1,2018-05-25 14:01:49.000,13,2018-05-25 14:04:00.881,0.25,90,-180,30,-60,1
2922,6,0,160.19799999999995,0,150,1,0.25,2,9,0.0,1.0,6,45.0,30.0,9,0.401,1.0,163.135,0.2,1,2018-05-25 14:01:49.000,13,2018-05-25 14:04:29.198,0.25,-90,0,-150,120,1
2923,7,0,175.357,0,150,1,0.25,2,3,0.0,1.0,12,45.0,30.0,3,0.301,0.0,178.497,0.2,1,2018-05-25 14:01:49.000,13,2018-05-25 14:04:44.357,0.25,90,-180,30,-60,1
2924,8,0,204.762,0,150,1,0.25,2,3,0.0,1.0,12,45.0,30.0,3,0.35100000000000003,0.0,208.29,0.2,1,2018-05-25 14:01:49.000,13,2018-05-25 14:05:13.762,0.25,90,-180,30,-60,1
2925,9,0,236.056,0,150,1,0.25,2,3,0.0,1.0,12,45.0,30.0,3,0.451,0.0,242.976,0.2,1,2018-05-25 14:01:49.000,13,2018-05-25 14:05:45.056,0.25,90,-180,30,-60,1
2926,10,0,253.423,1,150,1,0.25,2,9,0.0,1.0,6,45.0,30.0,9,0.501,0.0,256.03700000000003,0.0,0,2018-05-25 14:01:49.000,13,2018-05-25 14:06:02.423,0.25,90,0,-150,-60,1
2969,1,0,38.447,0,-150,1,0.25,2,9,0.0,1.0,6,45.0,30.0,9,0.501,1.0,40.159,0.2,1,2018-05-28 09:53:17.000,15,2018-05-28 09:53:55.447,0.25,-90,0,150,60,1
2970,2,0,53.291,0,-150,1,0.25,2,9,0.0,1.0,6,45.0,30.0,9,0.35100000000000003,1.0,57.043,0.2,1,2018-05-28 09:53:17.000,15,2018-05-28 09:54:10.291,0.25,-90,0,150,60,1
2971,3,0,124.368,1,-150,1,0.25,2,9,0.0,1.0,6,45.0,30.0,9,0.451,1.0,132.796,0.2,1,2018-05-28 09:53:17.000,15,2018-05-28 09:55:21.368,0.25,-90,0,150,60,1
2972,4,0,145.083,0,-150,1,0.25,2,9,0.0,1.0,6,45.0,30.0,9,0.401,1.0,147.197,0.2,1,2018-05-28 09:53:17.000,15,2018-05-28 09:55:42.083,0.25,-90,0,150,60,1
2973,5,0,176.019,0,-150,1,0.25,2,9,0.0,1.0,6,45.0,30.0,9,0.301,1.0,183.596,0.2,1,2018-05-28 09:53:17.000,15,2018-05-28 09:56:13.019,0.25,-90,0,150,60,1
2974,6,0,197.51,1,-150,1,0.25,2,3,0.0,1.0,12,45.0,30.0,3,0.401,1.0,200.532,0.0,0,2018-05-28 09:53:17.000,15,2018-05-28 09:56:34.510,0.25,-90,-180,-30,60,1
2975,8,0,251.99,0,-150,1,0.25,2,3,0.0,1.0,12,45.0,30.0,3,0.301,0.0,259.394,0.2,1,2018-05-28 09:53:17.000,15,2018-05-28 09:57:28.990,0.25,90,-180,-30,-120,1
2976,9,0,273.649,0,-150,1,0.25,2,3,0.0,1.0,12,45.0,30.0,3,0.451,0.0,280.413,0.2,1,2018-05-28 09:53:17.000,15,2018-05-28 09:57:50.649,0.25,90,-180,-30,-120,1
2977,10,0,316.493,1,-150,1,0.25,2,9,0.0,1.0,6,45.0,30.0,9,0.35100000000000003,1.0,320.712,0.2,1,2018-05-28 09:53:17.000,15,2018-05-28 09:58:33.493,0.25,-90,0,150,60,1
2978,11,0,330.08,0,-150,1,0.25,2,9,0.0,1.0,6,45.0,30.0,9,0.301,1.0,331.369,0.2,1,2018-05-28 09:53:17.000,15,2018-05-28 09:58:47.080,0.25,-90,0,150,60,1
2989,1,0,38.014,1,180,1,0.25,2,9,0.0,1.0,6,45.0,30.0,9,0.35100000000000003,1.0,45.687,0.2,1,2018-05-28 15:07:06.000,36,2018-05-28 15:07:44.014,0.25,-90,0,-180,90,1
2990,2,0,131.761,0,180,1,0.25,2,3,0.0,1.0,12,45.0,30.0,3,0.501,0.0,139.135,0.2,1,2018-05-28 15:07:06.000,36,2018-05-28 15:09:17.761,0.25,90,-180,0,-90,1
2991,3,0,148.023,0,180,1,0.25,2,3,0.0,1.0,12,45.0,30.0,3,0.301,0.0,150.247,0.2,1,2018-05-28 15:07:06.000,36,2018-05-28 15:09:34.023,0.25,90,-180,0,-90,1
2992,4,0,158.998,0,180,1,0.25,2,3,0.0,1.0,12,45.0,30.0,3,0.451,0.0,161.815,0.2,1,2018-05-28 15:07:06.000,36,2018-05-28 15:09:44.998,0.25,90,-180,0,-90,1
2993,5,0,174.315,0,180,1,0.25,2,3,0.0,1.0,12,45.0,30.0,3,0.401,0.0,175.83,0.2,1,2018-05-28 15:07:06.000,36,2018-05-28 15:10:00.315,0.25,90,-180,0,-90,1
2994,6,0,196.676,0,180,1,0.25,2,3,0.0,1.0,12,45.0,30.0,3,0.35100000000000003,0.0,198.885,0.2,1,2018-05-28 15:07:06.000,36,2018-05-28 15:10:22.676,0.25,90,-180,0,-90,1
2995,7,0,231.925,1,180,1,0.25,2,3,0.0,1.0,12,45.0,30.0,3,0.401,0.0,238.829,0.2,1,2018-05-28 15:07:06.000,36,2018-05-28 15:10:57.925,0.25,90,-180,0,-90,1
2996,8,0,246.064,0,180,1,0.25,2,3,0.0,1.0,12,45.0,30.0,3,0.501,0.0,247.959,0.2,1,2018-05-28 15:07:06.000,36,2018-05-28 15:11:12.064,0.25,90,-180,0,-90,1
2997,9,0,257.076,0,180,1,0.25,2,3,0.0,1.0,12,45.0,30.0,3,0.451,0.0,258.582,0.2,1,2018-05-28 15:07:06.000,36,2018-05-28 15:11:23.076,0.25,90,-180,0,-90,1
2998,10,0,272.702,0,180,1,0.25,2,9,0.0,1.0,6,45.0,30.0,9,0.301,0.0,275.011,0.0,0,2018-05-28 15:07:06.000,36,2018-05-28 15:11:38.702,0.25,90,0,-180,-90,1
3018,1,0,20.661,0,0,1,0.25,2,3,0.0,1.0,12,45.0,30.0,3,0.35100000000000003,0.0,22.592,0.2,1,2018-05-29 10:52:47.000,103,2018-05-29 10:53:07.661,0.25,90,-180,-180,90,1
3019,2,0,32.193000000000005,0,0,1,0.25,2,9,0.0,1.0,6,45.0,30.0,9,0.301,0.0,33.75,0.0,0,2018-05-29 10:52:47.000,103,2018-05-29 10:53:19.193,0.25,90,0,0,90,1
3020,4,0,153.888,0,0,1,0.25,2,9,0.0,1.0,6,45.0,30.0,9,0.451,1.0,156.629,0.2,1,2018-05-29 10:52:47.000,103,2018-05-29 10:55:20.888,0.25,-90,0,0,-90,1
3021,5,0,218.618,0,0,1,0.25,2,3,0.0,1.0,12,45.0,30.0,3,0.401,1.0,221.091,0.0,0,2018-05-29 10:52:47.000,103,2018-05-29 10:56:25.618,0.25,-90,-180,-180,-90,1
3022,8,0,266.36,0,0,1,0.25,2,3,0.0,1.0,12,45.0,30.0,3,0.501,0.0,268.129,0.2,1,2018-05-29 10:52:47.000,103,2018-05-29 10:57:13.360,0.25,90,-180,-180,90,1
3023,9,0,331.449,0,0,1,0.25,2,9,0.0,1.0,6,45.0,30.0,9,0.401,1.0,335.035,0.2,1,2018-05-29 10:52:47.000,103,2018-05-29 10:58:18.449,0.25,-90,0,0,-90,1
3024,10,0,355.483,1,0,1,0.25,2,9,0.0,1.0,6,45.0,30.0,9,0.301,1.0,359.571,0.2,1,2018-05-29 10:52:47.000,103,2018-05-29 10:58:42.483,0.25,-90,0,0,-90,1
3025,11,0,379.328,0,0,1,0.25,2,3,0.0,1.0,12,45.0,30.0,3,0.35100000000000003,1.0,381.481,0.0,0,2018-05-29 10:52:47.000,103,2018-05-29 10:59:06.328,0.25,-90,-180,-180,-90,1
3026,15,0,451.926,0,0,1,0.25,2,9,0.0,1.0,6,45.0,30.0,9,0.301,1.0,455.189,0.2,1,2018-05-29 10:52:47.000,103,2018-05-29 11:00:18.926,0.25,-90,0,0,-90,1
3027,16,0,477.64,1,0,1,0.25,2,3,0.0,1.0,12,45.0,30.0,3,0.451,1.0,480.266,0.0,0,2018-05-29 10:52:47.000,103,2018-05-29 11:00:44.640,0.25,-90,-180,-180,-90,1
3088,1,0,201.035,0,-60,1,0.25,2,9,0.0,1.0,6,45.0,30.0,9,0.501,1.0,203.243,0.2,1,2018-05-30 09:43:24.000,134,2018-05-30 09:46:45.035,0.25,-90,0,60,-30,1
3089,2,0,256.368,0,-60,1,0.25,2,3,0.0,1.0,12,45.0,30.0,3,0.401,1.0,258.301,0.0,0,2018-05-30 09:43:24.000,134,2018-05-30 09:47:40.368,0.25,-90,-180,-120,-30,1
3090,4,0,329.891,0,-60,1,0.25,2,3,0.0,1.0,12,45.0,30.0,3,0.35100000000000003,0.0,331.831,0.2,1,2018-05-30 09:43:24.000,134,2018-05-30 09:48:53.891,0.25,90,-180,-120,150,1
3091,5,0,408.491,0,-60,1,0.25,2,3,0.0,1.0,12,45.0,30.0,3,0.301,0.0,410.057,0.2,1,2018-05-30 09:43:24.000,134,2018-05-30 09:50:12.491,0.25,90,-180,-120,150,1
3092,6,0,512.132,0,-60,1,0.25,2,3,0.0,1.0,12,45.0,30.0,3,0.401,0.0,513.374,0.2,1,2018-05-30 09:43:24.000,134,2018-05-30 09:51:56.132,0.25,90,-180,-120,150,1
3093,7,0,556.53,0,-60,1,0.25,2,3,0.0,1.0,12,45.0,30.0,3,0.301,0.0,557.5409999999998,0.2,1,2018-05-30 09:43:24.000,134,2018-05-30 09:52:40.530,0.25,90,-180,-120,150,1
3094,8,0,610.268,1,-60,1,0.25,2,9,0.0,1.0,6,45.0,30.0,9,0.501,0.0,620.2090000000002,0.0,0,2018-05-30 09:43:24.000,134,2018-05-30 09:53:34.268,0.25,90,0,60,150,1
3095,11,0,665.1239999999998,1,-60,1,0.25,2,9,0.0,1.0,6,45.0,30.0,9,0.501,1.0,673.3389999999998,0.2,1,2018-05-30 09:43:24.000,134,2018-05-30 09:54:29.124,0.25,-90,0,60,-30,1
3096,12,0,707.691,1,-60,1,0.25,2,3,0.0,1.0,12,45.0,30.0,3,0.401,0.0,709.955,0.2,1,2018-05-30 09:43:24.000,134,2018-05-30 09:55:11.691,0.25,90,-180,-120,150,1
3097,13,0,728.947,1,-60,1,0.25,2,9,0.0,1.0,6,45.0,30.0,9,0.301,0.0,732.985,0.0,0,2018-05-30 09:43:24.000,134,2018-05-30 09:55:32.947,0.25,90,0,60,150,1
3107,1,0,79.848,0,60,1,0.25,2,9,0.0,1.0,6,45.0,30.0,9,0.301,0.0,83.13600000000002,0.0,0,2018-05-30 15:25:08.000,96,2018-05-30 15:26:27.848,0.25,90,0,-60,30,1
3108,3,0,127.188,0,60,1,0.25,2,3,0.0,1.0,12,45.0,30.0,3,0.451,0.0,129.313,0.2,1,2018-05-30 15:25:08.000,96,2018-05-30 15:27:15.188,0.25,90,-180,120,30,1
3109,4,0,187.173,1,60,1,0.25,2,3,0.0,1.0,12,45.0,30.0,3,0.401,1.0,189.548,0.0,0,2018-05-30 15:25:08.000,96,2018-05-30 15:28:15.173,0.25,-90,-180,120,-150,1
3110,7,0,304.782,0,60,1,0.25,2,3,0.0,1.0,12,45.0,30.0,3,0.301,0.0,309.878,0.2,1,2018-05-30 15:25:08.000,96,2018-05-30 15:30:12.782,0.25,90,-180,120,30,1
3111,8,0,378.057,0,60,1,0.25,2,9,0.0,1.0,6,45.0,30.0,9,0.451,1.0,379.634,0.2,1,2018-05-30 15:25:08.000,96,2018-05-30 15:31:26.057,0.25,-90,0,-60,-150,1
3112,9,0,400.356,0,60,1,0.25,2,9,0.0,1.0,6,45.0,30.0,9,0.401,1.0,401.968,0.2,1,2018-05-30 15:25:08.000,96,2018-05-30 15:31:48.356,0.25,-90,0,-60,-150,1
3113,10,0,434.655,1,60,1,0.25,2,3,0.0,1.0,12,45.0,30.0,3,0.35100000000000003,1.0,437.193,0.0,0,2018-05-30 15:25:08.000,96,2018-05-30 15:32:22.655,0.25,-90,-180,120,-150,1
3114,12,0,507.583,0,60,1,0.25,2,9,0.0,1.0,6,45.0,30.0,9,0.401,1.0,509.297,0.2,1,2018-05-30 15:25:08.000,96,2018-05-30 15:33:35.583,0.25,-90,0,-60,-150,1
3115,13,0,532.529,0,60,1,0.25,2,3,0.0,1.0,12,45.0,30.0,3,0.301,1.0,536.847,0.0,0,2018-05-30 15:25:08.000,96,2018-05-30 15:34:00.529,0.25,-90,-180,120,-150,1
3116,15,0,611.8330000000002,1,60,1,0.25,2,9,0.0,1.0,6,45.0,30.0,9,0.501,1.0,614.607,0.2,1,2018-05-30 15:25:08.000,96,2018-05-30 15:35:19.833,0.25,-90,0,-60,-150,1
3153,1,0,21.743,0,-60,1,0.25,2,9,0.0,1.0,6,45.0,30.0,9,0.35100000000000003,1.0,23.424,0.2,1,2018-05-31 08:49:43.000,195,2018-05-31 08:50:04.743,0.25,-90,0,60,-30,1
3154,2,0,26.68,0,-60,1,0.25,2,3,0.0,1.0,12,45.0,30.0,3,0.401,0.0,28.127,0.2,1,2018-05-31 08:49:43.000,195,2018-05-31 08:50:09.680,0.25,90,-180,-120,150,1
3155,3,0,37.37,0,-60,1,0.25,2,3,0.0,1.0,12,45.0,30.0,3,0.301,0.0,38.585,0.2,1,2018-05-31 08:49:43.000,195,2018-05-31 08:50:20.370,0.25,90,-180,-120,150,1
3156,4,0,90.064,1,-60,1,0.25,2,9,0.0,1.0,6,45.0,30.0,9,0.501,1.0,91.842,0.2,1,2018-05-31 08:49:43.000,195,2018-05-31 08:51:13.064,0.25,-90,0,60,-30,1
3157,5,0,102.844,0,-60,1,0.25,2,3,0.0,1.0,12,45.0,30.0,3,0.451,0.0,103.658,0.2,1,2018-05-31 08:49:43.000,195,2018-05-31 08:51:25.844,0.25,90,-180,-120,150,1
3158,6,0,162.938,0,-60,1,0.25,2,9,0.0,1.0,6,45.0,30.0,9,0.451,1.0,164.896,0.2,1,2018-05-31 08:49:43.000,195,2018-05-31 08:52:25.938,0.25,-90,0,60,-30,1
3159,7,0,210.013,0,-60,1,0.25,2,3,0.0,1.0,12,45.0,30.0,3,0.301,0.0,212.031,0.2,1,2018-05-31 08:49:43.000,195,2018-05-31 08:53:13.013,0.25,90,-180,-120,150,1
3160,8,0,251.529,0,-60,1,0.25,2,3,0.0,1.0,12,45.0,30.0,3,0.35100000000000003,0.0,252.64,0.2,1,2018-05-31 08:49:43.000,195,2018-05-31 08:53:54.529,0.25,90,-180,-120,150,1
3161,9,0,268.657,1,-60,1,0.25,2,9,0.0,1.0,6,45.0,30.0,9,0.401,1.0,271.541,0.2,1,2018-05-31 08:49:43.000,195,2018-05-31 08:54:11.657,0.25,-90,0,60,-30,1
3162,10,0,329.709,1,-60,1,0.25,2,3,0.0,1.0,12,45.0,30.0,3,0.501,1.0,332.346,0.0,0,2018-05-31 08:49:43.000,195,2018-05-31 08:55:12.709,0.25,-90,-180,-120,-30,1
3189,1,0,62.35,0,120,1,0.25,2,9,0.0,1.0,6,45.0,30.0,9,0.401,1.0,64.289,0.2,1,2018-05-31 14:11:22.000,94,2018-05-31 14:12:24.350,0.25,-90,0,-120,150,1
3190,2,0,141.11700000000005,0,120,1,0.25,2,9,0.0,1.0,6,45.0,30.0,9,0.451,1.0,143.635,0.2,1,2018-05-31 14:11:22.000,94,2018-05-31 14:13:43.117,0.25,-90,0,-120,150,1
3191,3,0,163.4,0,120,1,0.25,2,3,0.0,1.0,12,45.0,30.0,3,0.35100000000000003,0.0,164.93,0.2,1,2018-05-31 14:11:22.000,94,2018-05-31 14:14:05.400,0.25,90,-180,60,-30,1
3192,4,0,188.094,0,120,1,0.25,2,3,0.0,1.0,12,45.0,30.0,3,0.301,1.0,190.687,0.0,0,2018-05-31 14:11:22.000,94,2018-05-31 14:14:30.094,0.25,-90,-180,60,150,1
3193,6,0,216.442,0,120,1,0.25,2,9,0.0,1.0,6,45.0,30.0,9,0.35100000000000003,0.0,219.191,0.0,0,2018-05-31 14:11:22.000,94,2018-05-31 14:14:58.442,0.25,90,0,-120,-30,1
3194,8,0,320.606,0,120,1,0.25,2,3,0.0,1.0,12,45.0,30.0,3,0.401,0.0,322.396,0.2,1,2018-05-31 14:11:22.000,94,2018-05-31 14:16:42.606,0.25,90,-180,60,-30,1
3195,9,0,363.096,1,120,1,0.25,2,9,0.0,1.0,6,45.0,30.0,9,0.501,1.0,365.426,0.2,1,2018-05-31 14:11:22.000,94,2018-05-31 14:17:25.096,0.25,-90,0,-120,150,1
3196,10,0,389.858,0,120,1,0.25,2,3,0.0,1.0,12,45.0,30.0,3,0.301,0.0,392.021,0.2,1,2018-05-31 14:11:22.000,94,2018-05-31 14:17:51.858,0.25,90,-180,60,-30,1
3197,11,0,433.583,0,120,1,0.25,2,9,0.0,1.0,6,45.0,30.0,9,0.501,1.0,436.032,0.2,1,2018-05-31 14:11:22.000,94,2018-05-31 14:18:35.583,0.25,-90,0,-120,150,1
3198,12,0,462.8730000000001,0,120,1,0.25,2,3,0.0,1.0,12,45.0,30.0,3,0.301,0.0,465.1880000000001,0.2,1,2018-05-31 14:11:22.000,94,2018-05-31 14:19:04.873,0.25,90,-180,60,-30,1
3259,1,0,34.873000000000005,0,-90,1,0.25,2,3,0.0,1.0,12,45.0,30.0,3,0.401,1.0,37.37300000000001,0.0,0,2018-06-01 08:27:53.000,25,2018-06-01 08:28:27.873,0.25,-90,-180,-90,0,1
3260,3,0,142.232,0,-90,1,0.25,2,3,0.0,1.0,12,45.0,30.0,3,0.451,0.0,143.88299999999995,0.2,1,2018-06-01 08:27:53.000,25,2018-06-01 08:30:15.232,0.25,90,-180,-90,-180,1
3261,4,0,202.888,1,-90,1,0.25,2,9,0.0,1.0,6,45.0,30.0,9,0.501,1.0,204.765,0.2,1,2018-06-01 08:27:53.000,25,2018-06-01 08:31:15.888,0.25,-90,0,90,0,1
3262,5,0,219.786,0,-90,1,0.25,2,3,0.0,1.0,12,45.0,30.0,3,0.301,0.0,222.058,0.2,1,2018-06-01 08:27:53.000,25,2018-06-01 08:31:32.786,0.25,90,-180,-90,-180,1
3263,6,0,273.516,0,-90,1,0.25,2,3,0.0,1.0,12,45.0,30.0,3,0.301,0.0,275.639,0.2,1,2018-06-01 08:27:53.000,25,2018-06-01 08:32:26.516,0.25,90,-180,-90,-180,1
3264,7,0,335.719,0,-90,1,0.25,2,9,0.0,1.0,6,45.0,30.0,9,0.401,0.0,336.865,0.0,0,2018-06-01 08:27:53.000,25,2018-06-01 08:33:28.719,0.25,90,0,90,-180,1
3265,9,0,362.437,0,-90,1,0.25,2,3,0.0,1.0,12,45.0,30.0,3,0.35100000000000003,0.0,365.723,0.2,1,2018-06-01 08:27:53.000,25,2018-06-01 08:33:55.437,0.25,90,-180,-90,-180,1
3266,10,0,392.902,0,-90,1,0.25,2,3,0.0,1.0,12,45.0,30.0,3,0.451,1.0,394.556,0.0,0,2018-06-01 08:27:53.000,25,2018-06-01 08:34:25.902,0.25,-90,-180,-90,0,1
3267,13,0,498.73800000000006,0,-90,1,0.25,2,3,0.0,1.0,12,45.0,30.0,3,0.401,1.0,500.571,0.0,0,2018-06-01 08:27:53.000,25,2018-06-01 08:36:11.738,0.25,-90,-180,-90,0,1
3268,15,0,557.678,0,-90,1,0.25,2,3,0.0,1.0,12,45.0,30.0,3,0.451,0.0,559.691,0.2,1,2018-06-01 08:27:53.000,25,2018-06-01 08:37:10.678,0.25,90,-180,-90,-180,1
3301,1,0,55.431,1,0,1,0.25,2,3,0.0,1.0,12,45.0,30.0,3,0.401,1.0,57.878,0.0,0,2018-06-01 13:45:34.000,20,2018-06-01 13:46:29.431,0.25,-90,-180,-180,-90,1
3302,4,0,173.645,0,0,1,0.25,2,3,0.0,1.0,12,45.0,30.0,3,0.451,0.0,177.46900000000005,0.2,1,2018-06-01 13:45:34.000,20,2018-06-01 13:48:27.645,0.25,90,-180,-180,90,1
3303,5,0,234.622,0,0,1,0.25,2,3,0.0,1.0,12,45.0,30.0,3,0.35100000000000003,0.0,235.873,0.2,1,2018-06-01 13:45:34.000,20,2018-06-01 13:49:28.622,0.25,90,-180,-180,90,1
3304,6,0,309.009,1,0,1,0.25,2,3,0.0,1.0,12,45.0,30.0,3,0.35100000000000003,1.0,311.786,0.0,0,2018-06-01 13:45:34.000,20,2018-06-01 13:50:43.009,0.25,-90,-180,-180,-90,1
3305,8,0,392.257,0,0,1,0.25,2,9,0.0,1.0,6,45.0,30.0,9,0.301,1.0,396.204,0.2,1,2018-06-01 13:45:34.000,20,2018-06-01 13:52:06.257,0.25,-90,0,0,-90,1
3306,9,0,439.457,0,0,1,0.25,2,9,0.0,1.0,6,45.0,30.0,9,0.401,1.0,441.649,0.2,1,2018-06-01 13:45:34.000,20,2018-06-01 13:52:53.457,0.25,-90,0,0,-90,1
3307,10,0,476.732,1,0,1,0.25,2,9,0.0,1.0,6,45.0,30.0,9,0.501,1.0,478.431,0.2,1,2018-06-01 13:45:34.000,20,2018-06-01 13:53:30.732,0.25,-90,0,0,-90,1
3308,11,0,523.295,0,0,1,0.25,2,9,0.0,1.0,6,45.0,30.0,9,0.451,1.0,526.322,0.2,1,2018-06-01 13:45:34.000,20,2018-06-01 13:54:17.295,0.25,-90,0,0,-90,1
3309,12,0,563.058,0,0,1,0.25,2,3,0.0,1.0,12,45.0,30.0,3,0.501,1.0,564.775,0.0,0,2018-06-01 13:45:34.000,20,2018-06-01 13:54:57.058,0.25,-90,-180,-180,-90,1
3310,14,0,621.231,0,0,1,0.25,2,9,0.0,1.0,6,45.0,30.0,9,0.301,1.0,624.745,0.2,1,2018-06-01 13:45:34.000,20,2018-06-01 13:55:55.231,0.25,-90,0,0,-90,1
3504,1,0,21.011,0,150,1,0.25,2,3,0.0,1.0,12,45.0,30.0,3,0.401,0.0,23.124,0.2,1,2018-06-20 08:48:00.000,41,2018-06-20 08:48:21.011,0.25,90,-180,30,-60,1
3505,2,0,37.168,1,150,1,0.25,2,3,0.0,1.0,12,45.0,30.0,3,0.451,1.0,38.656,0.0,0,2018-06-20 08:48:00.000,41,2018-06-20 08:48:37.168,0.25,-90,-180,30,120,1
3506,5,0,90.129,1,150,1,0.25,2,3,0.0,1.0,12,45.0,30.0,3,0.35100000000000003,0.0,95.772,0.2,1,2018-06-20 08:48:00.000,41,2018-06-20 08:49:30.129,0.25,90,-180,30,-60,1
3507,6,0,105.84,1,150,1,0.25,2,3,0.0,1.0,12,45.0,30.0,3,0.501,0.0,107.008,0.2,1,2018-06-20 08:48:00.000,41,2018-06-20 08:49:45.840,0.25,90,-180,30,-60,1
3508,7,0,117.311,1,150,1,0.25,2,3,0.0,1.0,12,45.0,30.0,3,0.401,0.0,118.319,0.2,1,2018-06-20 08:48:00.000,41,2018-06-20 08:49:57.311,0.25,90,-180,30,-60,1
3509,8,0,129.832,1,150,1,0.25,2,3,0.0,1.0,12,45.0,30.0,3,0.35100000000000003,0.0,131.032,0.2,1,2018-06-20 08:48:00.000,41,2018-06-20 08:50:09.832,0.25,90,-180,30,-60,1
3510,9,0,139.554,1,150,1,0.25,2,9,0.0,1.0,6,45.0,30.0,9,0.451,0.0,140.453,0.0,0,2018-06-20 08:48:00.000,41,2018-06-20 08:50:19.554,0.25,90,0,-150,-60,1
3511,11,0,156.259,1,150,1,0.25,2,9,0.0,1.0,6,45.0,30.0,9,0.401,0.0,157.715,0.0,0,2018-06-20 08:48:00.000,41,2018-06-20 08:50:36.259,0.25,90,0,-150,-60,1
3512,19,0,259.735,1,150,1,0.25,2,3,0.0,1.0,12,45.0,30.0,3,0.301,1.0,260.9,0.0,0,2018-06-20 08:48:00.000,41,2018-06-20 08:52:19.735,0.25,-90,-180,30,120,1
3513,21,0,299.485,1,150,1,0.25,2,3,0.0,1.0,12,45.0,30.0,3,0.501,1.0,301.248,0.0,0,2018-06-20 08:48:00.000,41,2018-06-20 08:52:59.485,0.25,-90,-180,30,120,1
3554,1,0,39.417,0,-30,1,0.25,2,9,0.0,1.0,6,45.0,30.0,9,0.35100000000000003,1.0,41.958,0.2,1,2018-06-20 13:50:22.000,210,2018-06-20 13:51:01.417,0.25,-90,0,30,-60,1
3555,2,0,63.437,0,-30,1,0.25,2,3,0.0,1.0,12,45.0,30.0,3,0.451,0.0,65.108,0.2,1,2018-06-20 13:50:22.000,210,2018-06-20 13:51:25.437,0.25,90,-180,-150,120,1
3556,3,0,72.845,1,-30,1,0.25,2,9,0.0,1.0,6,45.0,30.0,9,0.401,0.0,73.684,0.0,0,2018-06-20 13:50:22.000,210,2018-06-20 13:51:34.845,0.25,90,0,30,120,1
3557,5,0,126.423,1,-30,1,0.25,2,9,0.0,1.0,6,45.0,30.0,9,0.501,0.0,127.701,0.0,0,2018-06-20 13:50:22.000,210,2018-06-20 13:52:28.423,0.25,90,0,30,120,1
3558,7,0,147.438,1,-30,1,0.25,2,3,0.0,1.0,12,45.0,30.0,3,0.35100000000000003,1.0,149.69899999999996,0.0,0,2018-06-20 13:50:22.000,210,2018-06-20 13:52:49.438,0.25,-90,-180,-150,-60,1
3559,9,0,166.22400000000005,1,-30,1,0.25,2,3,0.0,1.0,12,45.0,30.0,3,0.301,0.0,167.43900000000005,0.2,1,2018-06-20 13:50:22.000,210,2018-06-20 13:53:08.224,0.25,90,-180,-150,120,1
3560,10,0,174.898,1,-30,1,0.25,2,9,0.0,1.0,6,45.0,30.0,9,0.451,0.0,175.739,0.0,0,2018-06-20 13:50:22.000,210,2018-06-20 13:53:16.898,0.25,90,0,30,120,1
3561,12,0,192.425,1,-30,1,0.25,2,9,0.0,1.0,6,45.0,30.0,9,0.35100000000000003,0.0,194.438,0.0,0,2018-06-20 13:50:22.000,210,2018-06-20 13:53:34.425,0.25,90,0,30,120,1
3562,14,0,213.21,1,-30,1,0.25,2,3,0.0,1.0,12,45.0,30.0,3,0.451,0.0,215.045,0.2,1,2018-06-20 13:50:22.000,210,2018-06-20 13:53:55.210,0.25,90,-180,-150,120,1
3563,15,0,225.204,1,-30,1,0.25,2,9,0.0,1.0,6,45.0,30.0,9,0.401,0.0,226.1,0.0,0,2018-06-20 13:50:22.000,210,2018-06-20 13:54:07.204,0.25,90,0,30,120,1
3641,1,0,31.757,1,-150,1,0.25,2,9,0.0,1.0,6,45.0,30.0,9,0.301,1.0,33.861,0.2,1,2018-06-21 08:47:19.000,179,2018-06-21 08:47:50.757,0.25,-90,0,150,60,1
3642,2,0,55.262,1,-150,1,0.25,2,9,0.0,1.0,6,45.0,30.0,9,0.501,1.0,56.254,0.2,1,2018-06-21 08:47:19.000,179,2018-06-21 08:48:14.262,0.25,-90,0,150,60,1
3643,3,0,72.176,1,-150,1,0.25,2,3,0.0,1.0,12,45.0,30.0,3,0.35100000000000003,0.0,73.649,0.2,1,2018-06-21 08:47:19.000,179,2018-06-21 08:48:31.176,0.25,90,-180,-30,-120,1
3644,4,0,85.68,1,-150,1,0.25,2,3,0.0,1.0,12,45.0,30.0,3,0.451,0.0,87.679,0.2,1,2018-06-21 08:47:19.000,179,2018-06-21 08:48:44.680,0.25,90,-180,-30,-120,1
3645,5,0,111.231,1,-150,1,0.25,2,3,0.0,1.0,12,45.0,30.0,3,0.401,0.0,115.579,0.2,1,2018-06-21 08:47:19.000,179,2018-06-21 08:49:10.231,0.25,90,-180,-30,-120,1
3646,6,0,153.851,1,-150,1,0.25,2,3,0.0,1.0,12,45.0,30.0,3,0.401,0.0,155.91299999999995,0.2,1,2018-06-21 08:47:19.000,179,2018-06-21 08:49:52.851,0.25,90,-180,-30,-120,1
3647,7,0,200.763,1,-150,1,0.25,2,3,0.0,1.0,12,45.0,30.0,3,0.35100000000000003,0.0,202.61,0.2,1,2018-06-21 08:47:19.000,179,2018-06-21 08:50:39.763,0.25,90,-180,-30,-120,1
3648,8,0,234.493,1,-150,1,0.25,2,3,0.0,1.0,12,45.0,30.0,3,0.451,1.0,236.042,0.0,0,2018-06-21 08:47:19.000,179,2018-06-21 08:51:13.493,0.25,-90,-180,-30,60,1
3649,10,0,282.241,1,-150,1,0.25,2,9,0.0,1.0,6,45.0,30.0,9,0.501,1.0,284.177,0.2,1,2018-06-21 08:47:19.000,179,2018-06-21 08:52:01.241,0.25,-90,0,150,60,1
3650,11,0,304.175,1,-150,1,0.25,2,9,0.0,1.0,6,45.0,30.0,9,0.501,1.0,305.327,0.2,1,2018-06-21 08:47:19.000,179,2018-06-21 08:52:23.175,0.25,-90,0,150,60,1
3728,1,0,33.563,0,30,1,0.25,2,3,0.0,1.0,12,45.0,30.0,3,0.301,0.0,35.306,0.2,1,2018-06-21 14:11:27.000,147,2018-06-21 14:12:00.563,0.25,90,-180,150,60,1
3729,2,0,42.507,0,30,1,0.25,2,9,0.0,1.0,6,45.0,30.0,9,0.401,1.0,44.51,0.2,1,2018-06-21 14:11:27.000,147,2018-06-21 14:12:09.507,0.25,-90,0,-30,-120,1
3730,3,0,66.663,0,30,1,0.25,2,9,0.0,1.0,6,45.0,30.0,9,0.451,1.0,68.314,0.2,1,2018-06-21 14:11:27.000,147,2018-06-21 14:12:33.663,0.25,-90,0,-30,-120,1
3731,4,0,83.30799999999998,0,30,1,0.25,2,3,0.0,1.0,12,45.0,30.0,3,0.35100000000000003,1.0,84.78399999999998,0.0,0,2018-06-21 14:11:27.000,147,2018-06-21 14:12:50.308,0.25,-90,-180,150,-120,1
3732,6,0,126.912,0,30,1,0.25,2,9,0.0,1.0,6,45.0,30.0,9,0.501,1.0,128.811,0.2,1,2018-06-21 14:11:27.000,147,2018-06-21 14:13:33.912,0.25,-90,0,-30,-120,1
3733,7,0,144.339,0,30,1,0.25,2,3,0.0,1.0,12,45.0,30.0,3,0.401,1.0,146.319,0.0,0,2018-06-21 14:11:27.000,147,2018-06-21 14:13:51.339,0.25,-90,-180,150,-120,1
3734,9,0,156.13,0,30,1,0.25,2,3,0.0,1.0,12,45.0,30.0,3,0.35100000000000003,0.0,157.44,0.2,1,2018-06-21 14:11:27.000,147,2018-06-21 14:14:03.130,0.25,90,-180,150,60,1
3735,10,0,168.612,0,30,1,0.25,2,3,0.0,1.0,12,45.0,30.0,3,0.301,0.0,170.178,0.2,1,2018-06-21 14:11:27.000,147,2018-06-21 14:14:15.612,0.25,90,-180,150,60,1
3736,11,0,182.865,0,30,1,0.25,2,9,0.0,1.0,6,45.0,30.0,9,0.401,1.0,184.367,0.2,1,2018-06-21 14:11:27.000,147,2018-06-21 14:14:29.865,0.25,-90,0,-30,-120,1
3737,12,0,195.912,0,30,1,0.25,2,9,0.0,1.0,6,45.0,30.0,9,0.501,0.0,197.408,0.0,0,2018-06-21 14:11:27.000,147,2018-06-21 14:14:42.912,0.25,90,0,-30,60,1
3792,1,0,43.106,0,0,1,0.25,2,9,0.0,1.0,6,45.0,30.0,9,0.501,0.0,44.179,0.0,0,2018-06-22 07:06:59.000,146,2018-06-22 07:07:42.106,0.25,90,0,0,90,1
3793,3,0,63.787,1,0,1,0.25,2,3,0.0,1.0,12,45.0,30.0,3,0.451,0.0,65.077,0.2,1,2018-06-22 07:06:59.000,146,2018-06-22 07:08:02.787,0.25,90,-180,-180,90,1
3794,4,0,76.64,1,0,1,0.25,2,9,0.0,1.0,6,45.0,30.0,9,0.301,1.0,78.142,0.2,1,2018-06-22 07:06:59.000,146,2018-06-22 07:08:15.640,0.25,-90,0,0,-90,1
3795,5,0,84.111,1,0,1,0.25,2,3,0.0,1.0,12,45.0,30.0,3,0.35100000000000003,0.0,85.40700000000002,0.2,1,2018-06-22 07:06:59.000,146,2018-06-22 07:08:23.111,0.25,90,-180,-180,90,1
3796,6,0,118.935,1,0,1,0.25,2,9,0.0,1.0,6,45.0,30.0,9,0.35100000000000003,1.0,121.506,0.2,1,2018-06-22 07:06:59.000,146,2018-06-22 07:08:57.935,0.25,-90,0,0,-90,1
3797,7,0,146.424,1,0,1,0.25,2,3,0.0,1.0,12,45.0,30.0,3,0.451,1.0,148.032,0.0,0,2018-06-22 07:06:59.000,146,2018-06-22 07:09:25.424,0.25,-90,-180,-180,-90,1
3798,9,0,179.24200000000005,1,0,1,0.25,2,9,0.0,1.0,6,45.0,30.0,9,0.501,1.0,181.102,0.2,1,2018-06-22 07:06:59.000,146,2018-06-22 07:09:58.242,0.25,-90,0,0,-90,1
3799,10,0,194.793,1,0,1,0.25,2,9,0.0,1.0,6,45.0,30.0,9,0.301,1.0,196.182,0.2,1,2018-06-22 07:06:59.000,146,2018-06-22 07:10:13.793,0.25,-90,0,0,-90,1
3800,11,0,215.786,1,0,1,0.25,2,9,0.0,1.0,6,45.0,30.0,9,0.451,1.0,217.483,0.2,1,2018-06-22 07:06:59.000,146,2018-06-22 07:10:34.786,0.25,-90,0,0,-90,1
3801,12,0,234.588,1,0,1,0.25,2,3,0.0,1.0,12,45.0,30.0,3,0.501,0.0,236.385,0.2,1,2018-06-22 07:06:59.000,146,2018-06-22 07:10:53.588,0.25,90,-180,-180,90,1
3840,1,0,66.288,1,180,1,0.25,2,3,0.0,1.0,12,45.0,30.0,3,0.35100000000000003,1.0,68.016,0.0,0,2018-06-22 13:40:58.000,90,2018-06-22 13:42:04.288,0.25,-90,-180,0,90,1
3841,3,0,106.755,1,180,1,0.25,2,3,0.0,1.0,12,45.0,30.0,3,0.451,0.0,108.135,0.2,1,2018-06-22 13:40:58.000,90,2018-06-22 13:42:44.755,0.25,90,-180,0,-90,1
3842,4,0,144.996,1,180,1,0.25,2,3,0.0,1.0,12,45.0,30.0,3,0.301,1.0,147.361,0.0,0,2018-06-22 13:40:58.000,90,2018-06-22 13:43:22.996,0.25,-90,-180,0,90,1
3843,6,0,174.58900000000003,1,180,1,0.25,2,9,0.0,1.0,6,45.0,30.0,9,0.501,1.0,175.987,0.2,1,2018-06-22 13:40:58.000,90,2018-06-22 13:43:52.589,0.25,-90,0,-180,90,1
3844,7,0,204.893,1,180,1,0.25,2,3,0.0,1.0,12,45.0,30.0,3,0.301,1.0,205.977,0.0,0,2018-06-22 13:40:58.000,90,2018-06-22 13:44:22.893,0.25,-90,-180,0,90,1
3845,9,0,256.25,1,180,1,0.25,2,3,0.0,1.0,12,45.0,30.0,3,0.401,0.0,259.432,0.2,1,2018-06-22 13:40:58.000,90,2018-06-22 13:45:14.250,0.25,90,-180,0,-90,1
3846,10,0,272.638,1,180,1,0.25,2,9,0.0,1.0,6,45.0,30.0,9,0.451,1.0,275.28700000000003,0.2,1,2018-06-22 13:40:58.000,90,2018-06-22 13:45:30.638,0.25,-90,0,-180,90,1
3847,11,0,298.445,1,180,1,0.25,2,9,0.0,1.0,6,45.0,30.0,9,0.35100000000000003,1.0,299.916,0.2,1,2018-06-22 13:40:58.000,90,2018-06-22 13:45:56.445,0.25,-90,0,-180,90,1
3848,12,0,314.547,1,180,1,0.25,2,9,0.0,1.0,6,45.0,30.0,9,0.401,1.0,315.981,0.2,1,2018-06-22 13:40:58.000,90,2018-06-22 13:46:12.547,0.25,-90,0,-180,90,1
3849,13,0,332.778,1,180,1,0.25,2,9,0.0,1.0,6,45.0,30.0,9,0.451,1.0,333.838,0.2,1,2018-06-22 13:40:58.000,90,2018-06-22 13:46:30.778,0.25,-90,0,-180,90,1
3906,1,0,74.132,0,0,1,0.25,2,3,0.0,1.0,12,45.0,30.0,3,0.401,0.0,76.292,0.2,1,2018-06-25 10:01:41.000,46,2018-06-25 10:02:55.132,0.25,90,-180,-180,90,1
3907,2,0,87.036,0,0,1,0.25,2,9,0.0,1.0,6,45.0,30.0,9,0.501,1.0,88.551,0.2,1,2018-06-25 10:01:41.000,46,2018-06-25 10:03:08.036,0.25,-90,0,0,-90,1
3908,3,0,101.53,0,0,1,0.25,2,9,0.0,1.0,6,45.0,30.0,9,0.451,1.0,103.137,0.2,1,2018-06-25 10:01:41.000,46,2018-06-25 10:03:22.530,0.25,-90,0,0,-90,1
3909,4,0,116.072,1,0,1,0.25,2,9,0.0,1.0,6,45.0,30.0,9,0.35100000000000003,1.0,118.154,0.2,1,2018-06-25 10:01:41.000,46,2018-06-25 10:03:37.072,0.25,-90,0,0,-90,1
3910,5,0,134.579,1,0,1,0.25,2,3,0.0,1.0,12,45.0,30.0,3,0.301,0.0,136.67600000000002,0.2,1,2018-06-25 10:01:41.000,46,2018-06-25 10:03:55.579,0.25,90,-180,-180,90,1
3911,6,0,147.403,1,0,1,0.25,2,9,0.0,1.0,6,45.0,30.0,9,0.451,1.0,149.225,0.2,1,2018-06-25 10:01:41.000,46,2018-06-25 10:04:08.403,0.25,-90,0,0,-90,1
3912,7,0,162.094,1,0,1,0.25,2,9,0.0,1.0,6,45.0,30.0,9,0.401,1.0,163.406,0.2,1,2018-06-25 10:01:41.000,46,2018-06-25 10:04:23.094,0.25,-90,0,0,-90,1
3913,8,0,176.153,1,0,1,0.25,2,9,0.0,1.0,6,45.0,30.0,9,0.35100000000000003,0.0,178.12900000000005,0.0,0,2018-06-25 10:01:41.000,46,2018-06-25 10:04:37.153,0.25,90,0,0,90,1
3914,10,0,209.269,1,0,1,0.25,2,3,0.0,1.0,12,45.0,30.0,3,0.501,0.0,210.876,0.2,1,2018-06-25 10:01:41.000,46,2018-06-25 10:05:10.269,0.25,90,-180,-180,90,1
3915,11,0,222.533,1,0,1,0.25,2,3,0.0,1.0,12,45.0,30.0,3,0.401,0.0,224.229,0.2,1,2018-06-25 10:01:41.000,46,2018-06-25 10:05:23.533,0.25,90,-180,-180,90,1
4082,1,0,41.835,0,150,1,0.25,2,9,0.0,1.0,6,45.0,30.0,9,0.451,1.0,42.839,0.2,1,2018-06-27 10:02:24.000,209,2018-06-27 10:03:05.835,0.25,-90,0,-150,120,1
4083,2,0,60.308,0,150,1,0.25,2,3,0.0,1.0,12,45.0,30.0,3,0.35100000000000003,0.0,61.816,0.2,1,2018-06-27 10:02:24.000,209,2018-06-27 10:03:24.308,0.25,90,-180,30,-60,1
4084,3,0,81.158,0,150,1,0.25,2,9,0.0,1.0,6,45.0,30.0,9,0.301,1.0,82.853,0.2,1,2018-06-27 10:02:24.000,209,2018-06-27 10:03:45.158,0.25,-90,0,-150,120,1
4085,4,0,95.886,0,150,1,0.25,2,3,0.0,1.0,12,45.0,30.0,3,0.401,0.0,97.271,0.2,1,2018-06-27 10:02:24.000,209,2018-06-27 10:03:59.886,0.25,90,-180,30,-60,1
4086,5,0,104.855,0,150,1,0.25,2,9,0.0,1.0,6,45.0,30.0,9,0.501,0.0,106.18,0.0,0,2018-06-27 10:02:24.000,209,2018-06-27 10:04:08.855,0.25,90,0,-150,-60,1
4087,7,0,138.116,0,150,1,0.25,2,9,0.0,1.0,6,45.0,30.0,9,0.401,1.0,139.062,0.2,1,2018-06-27 10:02:24.000,209,2018-06-27 10:04:42.116,0.25,-90,0,-150,120,1
4088,8,0,153.126,0,150,1,0.25,2,3,0.0,1.0,12,45.0,30.0,3,0.35100000000000003,0.0,154.78,0.2,1,2018-06-27 10:02:24.000,209,2018-06-27 10:04:57.126,0.25,90,-180,30,-60,1
4089,9,0,174.123,0,150,1,0.25,2,9,0.0,1.0,6,45.0,30.0,9,0.451,1.0,175.16299999999995,0.2,1,2018-06-27 10:02:24.000,209,2018-06-27 10:05:18.123,0.25,-90,0,-150,120,1
4090,10,0,189.836,0,150,1,0.25,2,3,0.0,1.0,12,45.0,30.0,3,0.501,0.0,191.323,0.2,1,2018-06-27 10:02:24.000,209,2018-06-27 10:05:33.836,0.25,90,-180,30,-60,1
4091,11,0,203.962,0,150,1,0.25,2,3,0.0,1.0,12,45.0,30.0,3,0.451,0.0,205.311,0.2,1,2018-06-27 10:02:24.000,209,2018-06-27 10:05:47.962,0.25,90,-180,30,-60,1
4122,1,0,34.889,0,-120,1,0.25,2,3,0.0,1.0,12,45.0,30.0,3,0.35100000000000003,0.0,37.222,0.2,1,2018-06-27 14:52:38.000,109,2018-06-27 14:53:12.889,0.25,90,-180,-60,-150,1
4123,2,0,58.806,0,-120,1,0.25,2,3,0.0,1.0,12,45.0,30.0,3,0.451,0.0,61.39,0.2,1,2018-06-27 14:52:38.000,109,2018-06-27 14:53:36.806,0.25,90,-180,-60,-150,1
4124,3,0,69.506,0,-120,1,0.25,2,3,0.0,1.0,12,45.0,30.0,3,0.301,0.0,71.042,0.2,1,2018-06-27 14:52:38.000,109,2018-06-27 14:53:47.506,0.25,90,-180,-60,-150,1
4125,4,0,78.156,0,-120,1,0.25,2,3,0.0,1.0,12,45.0,30.0,3,0.401,0.0,79.889,0.2,1,2018-06-27 14:52:38.000,109,2018-06-27 14:53:56.156,0.25,90,-180,-60,-150,1
4126,5,0,94.569,1,-120,1,0.25,2,9,0.0,1.0,6,45.0,30.0,9,0.501,1.0,95.647,0.2,1,2018-06-27 14:52:38.000,109,2018-06-27 14:54:12.569,0.25,-90,0,120,30,1
4127,6,0,108.709,1,-120,1,0.25,2,3,0.0,1.0,12,45.0,30.0,3,0.35100000000000003,0.0,111.427,0.2,1,2018-06-27 14:52:38.000,109,2018-06-27 14:54:26.709,0.25,90,-180,-60,-150,1
4128,7,0,130.167,1,-120,1,0.25,2,9,0.0,1.0,6,45.0,30.0,9,0.451,1.0,131.093,0.2,1,2018-06-27 14:52:38.000,109,2018-06-27 14:54:48.167,0.25,-90,0,120,30,1
4129,8,0,143.762,1,-120,1,0.25,2,3,0.0,1.0,12,45.0,30.0,3,0.401,0.0,145.792,0.2,1,2018-06-27 14:52:38.000,109,2018-06-27 14:55:01.762,0.25,90,-180,-60,-150,1
4130,9,0,152.339,1,-120,1,0.25,2,9,0.0,1.0,6,45.0,30.0,9,0.501,0.0,153.519,0.0,0,2018-06-27 14:52:38.000,109,2018-06-27 14:55:10.339,0.25,90,0,120,-150,1
4131,11,0,171.359,1,-120,1,0.25,2,9,0.0,1.0,6,45.0,30.0,9,0.501,1.0,172.485,0.2,1,2018-06-27 14:52:38.000,109,2018-06-27 14:55:29.359,0.25,-90,0,120,30,1
4170,1,0,64.89699999999999,0,60,1,0.25,2,3,0.0,1.0,12,45.0,30.0,3,0.35100000000000003,0.0,69.762,0.2,1,2018-06-28 08:22:14.000,135,2018-06-28 08:23:18.897,0.25,90,-180,120,30,1
4171,2,0,76.60300000000002,0,60,1,0.25,2,3,0.0,1.0,12,45.0,30.0,3,0.501,0.0,78.07300000000002,0.2,1,2018-06-28 08:22:14.000,135,2018-06-28 08:23:30.603,0.25,90,-180,120,30,1
4172,3,0,84.54899999999998,0,60,1,0.25,2,9,0.0,1.0,6,45.0,30.0,9,0.301,0.0,86.05,0.0,0,2018-06-28 08:22:14.000,135,2018-06-28 08:23:38.549,0.25,90,0,-60,30,1
4173,5,0,94.864,0,60,1,0.25,2,9,0.0,1.0,6,45.0,30.0,9,0.401,0.0,96.461,0.0,0,2018-06-28 08:22:14.000,135,2018-06-28 08:23:48.864,0.25,90,0,-60,30,1
4174,7,0,125.681,1,60,1,0.25,2,3,0.0,1.0,12,45.0,30.0,3,0.501,1.0,126.683,0.0,0,2018-06-28 08:22:14.000,135,2018-06-28 08:24:19.681,0.25,-90,-180,120,-150,1
4175,9,0,146.299,1,60,1,0.25,2,3,0.0,1.0,12,45.0,30.0,3,0.301,0.0,147.97799999999995,0.2,1,2018-06-28 08:22:14.000,135,2018-06-28 08:24:40.299,0.25,90,-180,120,30,1
4176,10,0,158.404,1,60,1,0.25,2,3,0.0,1.0,12,45.0,30.0,3,0.35100000000000003,0.0,164.877,0.2,1,2018-06-28 08:22:14.000,135,2018-06-28 08:24:52.404,0.25,90,-180,120,30,1
4177,11,0,170.21200000000005,1,60,1,0.25,2,3,0.0,1.0,12,45.0,30.0,3,0.501,0.0,171.081,0.2,1,2018-06-28 08:22:14.000,135,2018-06-28 08:25:04.212,0.25,90,-180,120,30,1
4178,12,0,179.588,1,60,1,0.25,2,3,0.0,1.0,12,45.0,30.0,3,0.301,0.0,181.155,0.2,1,2018-06-28 08:22:14.000,135,2018-06-28 08:25:13.588,0.25,90,-180,120,30,1
4179,13,0,186.929,1,60,1,0.25,2,3,0.0,1.0,12,45.0,30.0,3,0.451,0.0,187.817,0.2,1,2018-06-28 08:22:14.000,135,2018-06-28 08:25:20.929,0.25,90,-180,120,30,1
4223,1,0,28.353,1,-60,1,0.25,2,9,0.0,1.0,6,45.0,30.0,9,0.451,1.0,30.217,0.2,1,2018-06-28 14:15:57.000,1,2018-06-28 14:16:25.353,0.25,-90,0,60,-30,1
4224,2,0,48.994,1,-60,1,0.25,2,9,0.0,1.0,6,45.0,30.0,9,0.401,1.0,51.644,0.2,1,2018-06-28 14:15:57.000,1,2018-06-28 14:16:45.994,0.25,-90,0,60,-30,1
4225,3,0,65.485,1,-60,1,0.25,2,9,0.0,1.0,6,45.0,30.0,9,0.301,0.0,67.153,0.0,0,2018-06-28 14:15:57.000,1,2018-06-28 14:17:02.485,0.25,90,0,60,150,1
4226,5,0,87.25399999999998,1,-60,1,0.25,2,3,0.0,1.0,12,45.0,30.0,3,0.35100000000000003,0.0,88.834,0.2,1,2018-06-28 14:15:57.000,1,2018-06-28 14:17:24.254,0.25,90,-180,-120,150,1
4227,6,0,95.393,1,-60,1,0.25,2,9,0.0,1.0,6,45.0,30.0,9,0.301,0.0,96.864,0.0,0,2018-06-28 14:15:57.000,1,2018-06-28 14:17:32.393,0.25,90,0,60,150,1
4228,8,0,129.908,1,-60,1,0.25,2,3,0.0,1.0,12,45.0,30.0,3,0.451,0.0,131.798,0.2,1,2018-06-28 14:15:57.000,1,2018-06-28 14:18:06.908,0.25,90,-180,-120,150,1
4229,9,0,138.847,1,-60,1,0.25,2,9,0.0,1.0,6,45.0,30.0,9,0.35100000000000003,0.0,139.961,0.0,0,2018-06-28 14:15:57.000,1,2018-06-28 14:18:15.847,0.25,90,0,60,150,1
4230,13,0,171.301,1,-60,1,0.25,2,9,0.0,1.0,6,45.0,30.0,9,0.501,1.0,180.612,0.2,1,2018-06-28 14:15:57.000,1,2018-06-28 14:18:48.301,0.25,-90,0,60,-30,1
4231,14,0,209.088,1,-60,1,0.25,2,9,0.0,1.0,6,45.0,30.0,9,0.451,1.0,211.718,0.2,1,2018-06-28 14:15:57.000,1,2018-06-28 14:19:26.088,0.25,-90,0,60,-30,1
4232,15,0,222.703,1,-60,1,0.25,2,3,0.0,1.0,12,45.0,30.0,3,0.401,0.0,224.786,0.2,1,2018-06-28 14:15:57.000,1,2018-06-28 14:19:39.703,0.25,90,-180,-120,150,1
4286,1,0,33.563,0,-90,1,0.25,2,3,0.0,1.0,12,45.0,30.0,3,0.501,1.0,34.897,0.0,0,2018-06-29 08:34:05.000,77,2018-06-29 08:34:38.563,0.25,-90,-180,-90,0,1
4287,3,0,72.634,0,-90,1,0.25,2,9,0.0,1.0,6,45.0,30.0,9,0.35100000000000003,0.0,74.465,0.0,0,2018-06-29 08:34:05.000,77,2018-06-29 08:35:17.634,0.25,90,0,90,-180,1
4288,5,0,94.292,0,-90,1,0.25,2,9,0.0,1.0,6,45.0,30.0,9,0.451,1.0,95.71,0.2,1,2018-06-29 08:34:05.000,77,2018-06-29 08:35:39.292,0.25,-90,0,90,0,1
4289,6,0,113.557,0,-90,1,0.25,2,9,0.0,1.0,6,45.0,30.0,9,0.35100000000000003,1.0,114.626,0.2,1,2018-06-29 08:34:05.000,77,2018-06-29 08:35:58.557,0.25,-90,0,90,0,1
4290,7,0,129.126,0,-90,1,0.25,2,3,0.0,1.0,12,45.0,30.0,3,0.401,0.0,131.464,0.2,1,2018-06-29 08:34:05.000,77,2018-06-29 08:36:14.126,0.25,90,-180,-90,-180,1
4291,8,0,147.671,0,-90,1,0.25,2,9,0.0,1.0,6,45.0,30.0,9,0.301,0.0,149.035,0.0,0,2018-06-29 08:34:05.000,77,2018-06-29 08:36:32.671,0.25,90,0,90,-180,1
4292,10,0,163.78,0,-90,1,0.25,2,3,0.0,1.0,12,45.0,30.0,3,0.451,0.0,165.139,0.2,1,2018-06-29 08:34:05.000,77,2018-06-29 08:36:48.780,0.25,90,-180,-90,-180,1
4293,11,0,180.416,0,-90,1,0.25,2,9,0.0,1.0,6,45.0,30.0,9,0.301,1.0,181.338,0.2,1,2018-06-29 08:34:05.000,77,2018-06-29 08:37:05.416,0.25,-90,0,90,0,1
4294,12,0,290.83,0,-90,1,0.25,2,3,0.0,1.0,12,45.0,30.0,3,0.451,0.0,303.659,0.2,1,2018-06-29 08:34:05.000,77,2018-06-29 08:38:55.830,0.25,90,-180,-90,-180,1
4295,13,0,319.07,0,-90,1,0.25,2,9,0.0,1.0,6,45.0,30.0,9,0.501,1.0,321.733,0.2,1,2018-06-29 08:34:05.000,77,2018-06-29 08:39:24.070,0.25,-90,0,90,0,1
4341,1,0,52.389,1,0,1,0.25,2,9,0.0,1.0,6,45.0,30.0,9,0.401,1.0,54.29600000000001,0.2,1,2018-06-29 15:11:06.000,104,2018-06-29 15:11:58.389,0.25,-90,0,0,-90,1
4342,2,0,70.663,1,0,1,0.25,2,9,0.0,1.0,6,45.0,30.0,9,0.501,1.0,71.80199999999998,0.2,1,2018-06-29 15:11:06.000,104,2018-06-29 15:12:16.663,0.25,-90,0,0,-90,1
4343,3,0,85.007,1,0,1,0.25,2,9,0.0,1.0,6,45.0,30.0,9,0.301,0.0,86.125,0.0,0,2018-06-29 15:11:06.000,104,2018-06-29 15:12:31.007,0.25,90,0,0,90,1
4344,5,0,122.672,1,0,1,0.25,2,3,0.0,1.0,12,45.0,30.0,3,0.35100000000000003,0.0,124.389,0.2,1,2018-06-29 15:11:06.000,104,2018-06-29 15:13:08.672,0.25,90,-180,-180,90,1
4345,6,0,145.125,1,0,1,0.25,2,3,0.0,1.0,12,45.0,30.0,3,0.35100000000000003,1.0,147.144,0.0,0,2018-06-29 15:11:06.000,104,2018-06-29 15:13:31.125,0.25,-90,-180,-180,-90,1
4346,8,0,159.601,1,0,1,0.25,2,9,0.0,1.0,6,45.0,30.0,9,0.401,1.0,160.921,0.2,1,2018-06-29 15:11:06.000,104,2018-06-29 15:13:45.601,0.25,-90,0,0,-90,1
4347,9,0,174.28900000000004,1,0,1,0.25,2,3,0.0,1.0,12,45.0,30.0,3,0.301,0.0,176.887,0.2,1,2018-06-29 15:11:06.000,104,2018-06-29 15:14:00.289,0.25,90,-180,-180,90,1
4348,10,0,184.452,1,0,1,0.25,2,3,0.0,1.0,12,45.0,30.0,3,0.451,0.0,185.255,0.2,1,2018-06-29 15:11:06.000,104,2018-06-29 15:14:10.452,0.25,90,-180,-180,90,1
4349,11,0,196.492,1,0,1,0.25,2,3,0.0,1.0,12,45.0,30.0,3,0.401,0.0,197.24400000000003,0.2,1,2018-06-29 15:11:06.000,104,2018-06-29 15:14:22.492,0.25,90,-180,-180,90,1
4350,12,0,212.9,1,0,1,0.25,2,3,0.0,1.0,12,45.0,30.0,3,0.35100000000000003,0.0,213.884,0.2,1,2018-06-29 15:11:06.000,104,2018-06-29 15:14:38.900,0.25,90,-180,-180,90,1
4585,1,0,49.034,1,90,1,0.25,2,3,0.0,1.0,12,45.0,30.0,3,0.501,0.0,50.098,0.2,1,2018-07-10 14:47:01.000,102,2018-07-10 14:47:50.034,0.25,90,-180,90,0,1
4586,2,0,56.175,1,90,1,0.25,2,3,0.0,1.0,12,45.0,30.0,3,0.301,0.0,57.402,0.2,1,2018-07-10 14:47:01.000,102,2018-07-10 14:47:57.175,0.25,90,-180,90,0,1
4587,3,0,63.864,1,90,1,0.25,2,9,0.0,1.0,6,45.0,30.0,9,0.35100000000000003,1.0,65.26,0.2,1,2018-07-10 14:47:01.000,102,2018-07-10 14:48:04.864,0.25,-90,0,-90,-180,1
4588,4,0,80.273,1,90,1,0.25,2,3,0.0,1.0,12,45.0,30.0,3,0.451,0.0,81.916,0.2,1,2018-07-10 14:47:01.000,102,2018-07-10 14:48:21.273,0.25,90,-180,90,0,1
4589,5,0,89.436,1,90,1,0.25,2,9,0.0,1.0,6,45.0,30.0,9,0.401,1.0,92.025,0.2,1,2018-07-10 14:47:01.000,102,2018-07-10 14:48:30.436,0.25,-90,0,-90,-180,1
4590,6,0,107.554,1,90,1,0.25,2,3,0.0,1.0,12,45.0,30.0,3,0.451,0.0,108.542,0.2,1,2018-07-10 14:47:01.000,102,2018-07-10 14:48:48.554,0.25,90,-180,90,0,1
4591,7,0,117.861,1,90,1,0.25,2,3,0.0,1.0,12,45.0,30.0,3,0.301,0.0,119.22,0.2,1,2018-07-10 14:47:01.000,102,2018-07-10 14:48:58.861,0.25,90,-180,90,0,1
4592,8,0,133.987,1,90,1,0.25,2,9,0.0,1.0,6,45.0,30.0,9,0.401,0.0,134.966,0.0,0,2018-07-10 14:47:01.000,102,2018-07-10 14:49:14.987,0.25,90,0,-90,0,1
4593,10,0,189.199,1,90,1,0.25,2,3,0.0,1.0,12,45.0,30.0,3,0.501,0.0,189.968,0.2,1,2018-07-10 14:47:01.000,102,2018-07-10 14:50:10.199,0.25,90,-180,90,0,1
4594,11,0,200.802,1,90,1,0.25,2,3,0.0,1.0,12,45.0,30.0,3,0.35100000000000003,0.0,201.681,0.2,1,2018-07-10 14:47:01.000,102,2018-07-10 14:50:21.802,0.25,90,-180,90,0,1
4639,1,0,29.096,1,120,1,0.25,2,9,0.0,1.0,6,45.0,30.0,9,0.35100000000000003,0.0,31.193,0.0,0,2018-07-11 09:09:17.000,154,2018-07-11 09:09:46.096,0.25,90,0,-120,-30,1
4640,3,0,50.28,1,120,1,0.25,2,9,0.0,1.0,6,45.0,30.0,9,0.401,0.0,51.136,0.0,0,2018-07-11 09:09:17.000,154,2018-07-11 09:10:07.280,0.25,90,0,-120,-30,1
4641,6,0,91.724,1,120,1,0.25,2,3,0.0,1.0,12,45.0,30.0,3,0.401,0.0,94.688,0.2,1,2018-07-11 09:09:17.000,154,2018-07-11 09:10:48.724,0.25,90,-180,60,-30,1
4642,7,0,100.37,1,120,1,0.25,2,9,0.0,1.0,6,45.0,30.0,9,0.35100000000000003,0.0,102.677,0.0,0,2018-07-11 09:09:17.000,154,2018-07-11 09:10:57.370,0.25,90,0,-120,-30,1
4643,9,0,124.446,1,120,1,0.25,2,3,0.0,1.0,12,45.0,30.0,3,0.301,0.0,125.888,0.2,1,2018-07-11 09:09:17.000,154,2018-07-11 09:11:21.446,0.25,90,-180,60,-30,1
4644,10,0,132.13,1,120,1,0.25,2,9,0.0,1.0,6,45.0,30.0,9,0.451,1.0,134.142,0.2,1,2018-07-11 09:09:17.000,154,2018-07-11 09:11:29.130,0.25,-90,0,-120,150,1
4645,11,0,150.185,1,120,1,0.25,2,3,0.0,1.0,12,45.0,30.0,3,0.401,0.0,151.304,0.2,1,2018-07-11 09:09:17.000,154,2018-07-11 09:11:47.185,0.25,90,-180,60,-30,1
4646,12,0,158.656,1,120,1,0.25,2,9,0.0,1.0,6,45.0,30.0,9,0.301,1.0,160.722,0.25,1,2018-07-11 09:09:17.000,154,2018-07-11 09:11:55.656,0.25,-90,0,-120,150,1
4647,13,0,176.517,1,120,1,0.25,2,3,0.0,1.0,12,45.0,30.0,3,0.35100000000000003,0.0,177.521,0.2,1,2018-07-11 09:09:17.000,154,2018-07-11 09:12:13.517,0.25,90,-180,60,-30,1
4648,14,0,186.502,1,120,1,0.25,2,9,0.0,1.0,6,45.0,30.0,9,0.451,0.0,187.632,0.0,0,2018-07-11 09:09:17.000,154,2018-07-11 09:12:23.502,0.25,90,0,-120,-30,1
4686,1,0,87.25399999999998,0,60,1,0.25,2,9,0.0,1.0,6,45.0,30.0,9,0.35100000000000003,0.0,88.085,0.0,0,2018-07-11 15:09:07.000,89,2018-07-11 15:10:34.254,0.25,90,0,-60,30,1
4687,3,0,119.714,0,60,1,0.25,2,9,0.0,1.0,6,45.0,30.0,9,0.501,0.0,121.046,0.0,0,2018-07-11 15:09:07.000,89,2018-07-11 15:11:06.714,0.25,90,0,-60,30,1
4688,5,0,209.681,0,60,1,0.25,2,3,0.0,1.0,12,45.0,30.0,3,0.301,0.0,211.3,0.2,1,2018-07-11 15:09:07.000,89,2018-07-11 15:12:36.681,0.25,90,-180,120,30,1
4689,6,0,232.617,0,60,1,0.25,2,9,0.0,1.0,6,45.0,30.0,9,0.501,1.0,234.252,0.25,1,2018-07-11 15:09:07.000,89,2018-07-11 15:12:59.617,0.25,-90,0,-60,-150,1
4690,7,0,256.23400000000004,0,60,1,0.25,2,9,0.0,1.0,6,45.0,30.0,9,0.451,1.0,257.576,0.25,1,2018-07-11 15:09:07.000,89,2018-07-11 15:13:23.234,0.25,-90,0,-60,-150,1
4691,8,0,279.975,0,60,1,0.25,2,3,0.0,1.0,12,45.0,30.0,3,0.301,0.0,284.8,0.2,1,2018-07-11 15:09:07.000,89,2018-07-11 15:13:46.975,0.25,90,-180,120,30,1
4692,9,0,298.487,1,60,1,0.25,2,3,0.0,1.0,12,45.0,30.0,3,0.35100000000000003,0.0,300.297,0.2,1,2018-07-11 15:09:07.000,89,2018-07-11 15:14:05.487,0.25,90,-180,120,30,1
4693,10,0,307.228,1,60,1,0.25,2,3,0.0,1.0,12,45.0,30.0,3,0.401,0.0,308.658,0.2,1,2018-07-11 15:09:07.000,89,2018-07-11 15:14:14.228,0.25,90,-180,120,30,1
4694,11,0,318.641,1,60,1,0.25,2,9,0.0,1.0,6,45.0,30.0,9,0.451,1.0,320.313,0.25,1,2018-07-11 15:09:07.000,89,2018-07-11 15:14:25.641,0.25,-90,0,-60,-150,1
4695,12,0,331.914,1,60,1,0.25,2,3,0.0,1.0,12,45.0,30.0,3,0.501,0.0,333.6230000000001,0.2,1,2018-07-11 15:09:07.000,89,2018-07-11 15:14:38.914,0.25,90,-180,120,30,1
4733,1,0,111.086,0,150,1,0.25,2,3,0.0,1.0,12,45.0,30.0,3,0.401,0.0,112.991,0.2,1,2018-07-12 09:15:33.000,120,2018-07-12 09:17:24.086,0.25,90,-180,30,-60,1
4734,2,0,120.103,0,150,1,0.25,2,9,0.0,1.0,6,45.0,30.0,9,0.501,0.0,121.694,0.0,0,2018-07-12 09:15:33.000,120,2018-07-12 09:17:33.103,0.25,90,0,-150,-60,1
4735,4,0,173.06,0,150,1,0.25,2,3,0.0,1.0,12,45.0,30.0,3,0.301,0.0,174.838,0.2,1,2018-07-12 09:15:33.000,120,2018-07-12 09:18:26.060,0.25,90,-180,30,-60,1
4736,5,0,188.16,0,150,1,0.25,2,3,0.0,1.0,12,45.0,30.0,3,0.35100000000000003,0.0,190.99,0.2,1,2018-07-12 09:15:33.000,120,2018-07-12 09:18:41.160,0.25,90,-180,30,-60,1
4737,6,0,198.482,0,150,1,0.25,2,3,0.0,1.0,12,45.0,30.0,3,0.35100000000000003,0.0,200.625,0.2,1,2018-07-12 09:15:33.000,120,2018-07-12 09:18:51.482,0.25,90,-180,30,-60,1
4738,7,0,209.681,0,150,1,0.25,2,3,0.0,1.0,12,45.0,30.0,3,0.401,0.0,211.124,0.2,1,2018-07-12 09:15:33.000,120,2018-07-12 09:19:02.681,0.25,90,-180,30,-60,1
4739,8,0,219.532,0,150,1,0.25,2,3,0.0,1.0,12,45.0,30.0,3,0.301,0.0,220.909,0.2,1,2018-07-12 09:15:33.000,120,2018-07-12 09:19:12.532,0.25,90,-180,30,-60,1
4740,9,0,228.588,0,150,1,0.25,2,9,0.0,1.0,6,45.0,30.0,9,0.451,0.0,231.778,0.0,0,2018-07-12 09:15:33.000,120,2018-07-12 09:19:21.588,0.25,90,0,-150,-60,1
4741,11,0,259.29200000000003,0,150,1,0.25,2,3,0.0,1.0,12,45.0,30.0,3,0.451,0.0,260.462,0.2,1,2018-07-12 09:15:33.000,120,2018-07-12 09:19:52.292,0.25,90,-180,30,-60,1
4742,12,0,270.36,0,150,1,0.25,2,9,0.0,1.0,6,45.0,30.0,9,0.301,0.0,271.838,0.0,0,2018-07-12 09:15:33.000,120,2018-07-12 09:20:03.360,0.25,90,0,-150,-60,1
4766,1,0,40.028,0,180,1,0.25,2,3,0.0,1.0,12,45.0,30.0,3,0.401,0.0,45.145,0.2,1,2018-07-12 15:03:46.000,67,2018-07-12 15:04:26.028,0.25,90,-180,0,-90,1
4767,2,0,52.962,0,180,1,0.25,2,9,0.0,1.0,6,45.0,30.0,9,0.301,0.0,55.08600000000001,0.0,0,2018-07-12 15:03:46.000,67,2018-07-12 15:04:38.962,0.25,90,0,-180,-90,1
4768,4,0,78.911,0,180,1,0.25,2,3,0.0,1.0,12,45.0,30.0,3,0.451,0.0,80.523,0.2,1,2018-07-12 15:03:46.000,67,2018-07-12 15:05:04.911,0.25,90,-180,0,-90,1
4769,5,0,87.868,0,180,1,0.25,2,9,0.0,1.0,6,45.0,30.0,9,0.501,0.0,88.82700000000001,0.0,0,2018-07-12 15:03:46.000,67,2018-07-12 15:05:13.868,0.25,90,0,-180,-90,1
4770,7,0,121.977,0,180,1,0.25,2,3,0.0,1.0,12,45.0,30.0,3,0.501,0.0,123.53,0.2,1,2018-07-12 15:03:46.000,67,2018-07-12 15:05:47.977,0.25,90,-180,0,-90,1
4771,8,0,132.415,0,180,1,0.25,2,3,0.0,1.0,12,45.0,30.0,3,0.301,0.0,134.761,0.2,1,2018-07-12 15:03:46.000,67,2018-07-12 15:05:58.415,0.25,90,-180,0,-90,1
4772,9,0,142.537,0,180,1,0.25,2,9,0.0,1.0,6,45.0,30.0,9,0.35100000000000003,1.0,144.366,0.25,1,2018-07-12 15:03:46.000,67,2018-07-12 15:06:08.537,0.25,-90,0,-180,90,1
4773,10,0,161.977,0,180,1,0.25,2,3,0.0,1.0,12,45.0,30.0,3,0.401,0.0,163.314,0.2,1,2018-07-12 15:03:46.000,67,2018-07-12 15:06:27.977,0.25,90,-180,0,-90,1
4774,11,0,184.18400000000003,0,180,1,0.25,2,3,0.0,1.0,12,45.0,30.0,3,0.301,0.0,185.724,0.2,1,2018-07-12 15:03:46.000,67,2018-07-12 15:06:50.184,0.25,90,-180,0,-90,1
4775,12,0,192.984,0,180,1,0.25,2,3,0.0,1.0,12,45.0,30.0,3,0.35100000000000003,0.0,194.681,0.2,1,2018-07-12 15:03:46.000,67,2018-07-12 15:06:58.984,0.25,90,-180,0,-90,1
4818,1,0,89.001,0,0,1,0.25,2,3,0.0,1.0,12,45.0,30.0,3,0.35100000000000003,0.0,90.507,0.2,1,2018-07-13 08:41:28.000,88,2018-07-13 08:42:57.001,0.25,90,-180,-180,90,1
4819,2,0,100.592,0,0,1,0.25,2,9,0.0,1.0,6,45.0,30.0,9,0.301,0.0,102.677,0.0,0,2018-07-13 08:41:28.000,88,2018-07-13 08:43:08.592,0.25,90,0,0,90,1
4820,4,0,123.795,0,0,1,0.25,2,9,0.0,1.0,6,45.0,30.0,9,0.501,0.0,125.549,0.0,0,2018-07-13 08:41:28.000,88,2018-07-13 08:43:31.795,0.25,90,0,0,90,1
4821,6,0,167.74200000000005,0,0,1,0.25,2,9,0.0,1.0,6,45.0,30.0,9,0.301,0.0,168.829,0.0,0,2018-07-13 08:41:28.000,88,2018-07-13 08:44:15.742,0.25,90,0,0,90,1
4822,9,0,205.259,0,0,1,0.25,2,3,0.0,1.0,12,45.0,30.0,3,0.401,1.0,206.334,0.0,0,2018-07-13 08:41:28.000,88,2018-07-13 08:44:53.259,0.25,-90,-180,-180,-90,1
4823,11,0,234.796,0,0,1,0.25,2,3,0.0,1.0,12,45.0,30.0,3,0.501,0.0,236.067,0.2,1,2018-07-13 08:41:28.000,88,2018-07-13 08:45:22.796,0.25,90,-180,-180,90,1
4824,12,0,247.308,0,0,1,0.25,2,9,0.0,1.0,6,45.0,30.0,9,0.451,1.0,252.066,0.25,1,2018-07-13 08:41:28.000,88,2018-07-13 08:45:35.308,0.25,-90,0,0,-90,1
4825,13,0,266.097,0,0,1,0.25,2,9,0.0,1.0,6,45.0,30.0,9,0.35100000000000003,1.0,268.221,0.25,1,2018-07-13 08:41:28.000,88,2018-07-13 08:45:54.097,0.25,-90,0,0,-90,1
4826,14,0,286.421,0,0,1,0.25,2,9,0.0,1.0,6,45.0,30.0,9,0.401,1.0,287.946,0.25,1,2018-07-13 08:41:28.000,88,2018-07-13 08:46:14.421,0.25,-90,0,0,-90,1
4827,15,0,306.061,0,0,1,0.25,2,3,0.0,1.0,12,45.0,30.0,3,0.301,0.0,308.68,0.2,1,2018-07-13 08:41:28.000,88,2018-07-13 08:46:34.061,0.25,90,-180,-180,90,1
4870,1,0,99.799,0,-120,1,0.25,2,3,0.0,1.0,12,45.0,30.0,3,0.451,1.0,107.721,0.0,0,2018-07-13 15:20:10.000,42,2018-07-13 15:21:49.799,0.25,-90,-180,-60,30,1
4871,3,0,130.46200000000002,0,-120,1,0.25,2,9,0.0,1.0,6,45.0,30.0,9,0.501,1.0,132.424,0.25,1,2018-07-13 15:20:10.000,42,2018-07-13 15:22:20.462,0.25,-90,0,120,30,1
4872,4,0,145.648,0,-120,1,0.25,2,9,0.0,1.0,6,45.0,30.0,9,0.35100000000000003,1.0,147.98,0.25,1,2018-07-13 15:20:10.000,42,2018-07-13 15:22:35.648,0.25,-90,0,120,30,1
4873,5,0,166.65599999999995,0,-120,1,0.25,2,9,0.0,1.0,6,45.0,30.0,9,0.301,1.0,168.75400000000005,0.25,1,2018-07-13 15:20:10.000,42,2018-07-13 15:22:56.656,0.25,-90,0,120,30,1
4874,6,0,185.112,0,-120,1,0.25,2,3,0.0,1.0,12,45.0,30.0,3,0.451,0.0,187.049,0.2,1,2018-07-13 15:20:10.000,42,2018-07-13 15:23:15.112,0.25,90,-180,-60,-150,1
4875,7,0,197.421,0,-120,1,0.25,2,9,0.0,1.0,6,45.0,30.0,9,0.401,0.0,198.905,0.0,0,2018-07-13 15:20:10.000,42,2018-07-13 15:23:27.421,0.25,90,0,120,-150,1
4876,9,0,220.152,0,-120,1,0.25,2,9,0.0,1.0,6,45.0,30.0,9,0.35100000000000003,1.0,221.465,0.25,1,2018-07-13 15:20:10.000,42,2018-07-13 15:23:50.152,0.25,-90,0,120,30,1
4877,10,0,239.239,0,-120,1,0.25,2,9,0.0,1.0,6,45.0,30.0,9,0.501,1.0,240.954,0.25,1,2018-07-13 15:20:10.000,42,2018-07-13 15:24:09.239,0.25,-90,0,120,30,1
4878,11,0,257.845,0,-120,1,0.25,2,3,0.0,1.0,12,45.0,30.0,3,0.35100000000000003,0.0,259.759,0.2,1,2018-07-13 15:20:10.000,42,2018-07-13 15:24:27.845,0.25,90,-180,-60,-150,1
4879,12,0,267.85400000000004,0,-120,1,0.25,2,9,0.0,1.0,6,45.0,30.0,9,0.501,1.0,269.258,0.25,1,2018-07-13 15:20:10.000,42,2018-07-13 15:24:37.854,0.25,-90,0,120,30,1
4935,1,0,23.85,0,0,1,0.25,2,3,0.0,1.0,12,45.0,30.0,3,0.451,0.0,25.829,0.2,1,2018-07-16 09:27:41.000,9,2018-07-16 09:28:04.850,0.25,90,-180,-180,90,1
4936,2,0,31.943,0,0,1,0.25,2,9,0.0,1.0,6,45.0,30.0,9,0.401,1.0,33.007,0.25,1,2018-07-16 09:27:41.000,9,2018-07-16 09:28:12.943,0.25,-90,0,0,-90,1
4937,3,0,54.694,0,0,1,0.25,2,3,0.0,1.0,12,45.0,30.0,3,0.35100000000000003,0.0,55.765,0.2,1,2018-07-16 09:27:41.000,9,2018-07-16 09:28:35.694,0.25,90,-180,-180,90,1
4938,4,0,62.195,0,0,1,0.25,2,3,0.0,1.0,12,45.0,30.0,3,0.301,0.0,63.164,0.2,1,2018-07-16 09:27:41.000,9,2018-07-16 09:28:43.195,0.25,90,-180,-180,90,1
4939,5,0,69.53399999999999,0,0,1,0.25,2,3,0.0,1.0,12,45.0,30.0,3,0.501,0.0,70.37,0.2,1,2018-07-16 09:27:41.000,9,2018-07-16 09:28:50.534,0.25,90,-180,-180,90,1
4940,6,0,76.793,0,0,1,0.25,2,9,0.0,1.0,6,45.0,30.0,9,0.501,1.0,78.14,0.25,1,2018-07-16 09:27:41.000,9,2018-07-16 09:28:57.793,0.25,-90,0,0,-90,1
4941,7,0,90.945,0,0,1,0.25,2,3,0.0,1.0,12,45.0,30.0,3,0.301,0.0,92.38,0.2,1,2018-07-16 09:27:41.000,9,2018-07-16 09:29:11.945,0.25,90,-180,-180,90,1
4942,8,0,104.533,0,0,1,0.25,2,3,0.0,1.0,12,45.0,30.0,3,0.35100000000000003,0.0,105.563,0.2,1,2018-07-16 09:27:41.000,9,2018-07-16 09:29:25.533,0.25,90,-180,-180,90,1
4943,9,0,113.08,0,0,1,0.25,2,9,0.0,1.0,6,45.0,30.0,9,0.401,1.0,114.205,0.25,1,2018-07-16 09:27:41.000,9,2018-07-16 09:29:34.080,0.25,-90,0,0,-90,1
4944,10,0,127.603,0,0,1,0.25,2,3,0.0,1.0,12,45.0,30.0,3,0.451,0.0,128.697,0.2,1,2018-07-16 09:27:41.000,9,2018-07-16 09:29:48.603,0.25,90,-180,-180,90,1
4966,1,0,31.592,0,-60,1,0.25,2,9,0.0,1.0,6,45.0,30.0,9,0.501,0.0,33.738,0.0,0,2018-07-16 14:26:00.000,47,2018-07-16 14:26:31.592,0.25,90,0,60,150,1
4967,3,0,51.157,0,-60,1,0.25,2,3,0.0,1.0,12,45.0,30.0,3,0.301,0.0,52.365,0.2,1,2018-07-16 14:26:00.000,47,2018-07-16 14:26:51.157,0.25,90,-180,-120,150,1
4968,4,0,59.592,0,-60,1,0.25,2,9,0.0,1.0,6,45.0,30.0,9,0.401,1.0,60.79,0.25,1,2018-07-16 14:26:00.000,47,2018-07-16 14:26:59.592,0.25,-90,0,60,-30,1
4969,5,0,75.735,0,-60,1,0.25,2,9,0.0,1.0,6,45.0,30.0,9,0.35100000000000003,1.0,76.80199999999998,0.25,1,2018-07-16 14:26:00.000,47,2018-07-16 14:27:15.735,0.25,-90,0,60,-30,1
4970,6,0,93.285,0,-60,1,0.25,2,9,0.0,1.0,6,45.0,30.0,9,0.35100000000000003,1.0,94.404,0.25,1,2018-07-16 14:26:00.000,47,2018-07-16 14:27:33.285,0.25,-90,0,60,-30,1
4971,7,0,108.997,0,-60,1,0.25,2,3,0.0,1.0,12,45.0,30.0,3,0.501,0.0,110.249,0.2,1,2018-07-16 14:26:00.000,47,2018-07-16 14:27:48.997,0.25,90,-180,-120,150,1
4972,8,0,118.223,0,-60,1,0.25,2,3,0.0,1.0,12,45.0,30.0,3,0.451,1.0,119.6,0.0,0,2018-07-16 14:26:00.000,47,2018-07-16 14:27:58.223,0.25,-90,-180,-120,-30,1
4973,10,0,132.778,0,-60,1,0.25,2,3,0.0,1.0,12,45.0,30.0,3,0.401,0.0,133.743,0.2,1,2018-07-16 14:26:00.000,47,2018-07-16 14:28:12.778,0.25,90,-180,-120,150,1
4974,11,0,145.477,0,-60,1,0.25,2,3,0.0,1.0,12,45.0,30.0,3,0.401,0.0,146.416,0.2,1,2018-07-16 14:26:00.000,47,2018-07-16 14:28:25.477,0.25,90,-180,-120,150,1
4975,12,0,161.076,0,-60,1,0.25,2,9,0.0,1.0,6,45.0,30.0,9,0.451,1.0,162.828,0.25,1,2018-07-16 14:26:00.000,47,2018-07-16 14:28:41.076,0.25,-90,0,60,-30,1
5022,1,0,25.974,0,-30,1,0.25,2,9,0.0,1.0,6,45.0,30.0,9,0.401,1.0,27.781,0.25,1,2018-07-17 09:17:06.000,144,2018-07-17 09:17:31.974,0.25,-90,0,30,-60,1
5023,2,0,39.167,0,-30,1,0.25,2,3,0.0,1.0,12,45.0,30.0,3,0.451,0.0,40.705,0.2,1,2018-07-17 09:17:06.000,144,2018-07-17 09:17:45.167,0.25,90,-180,-150,120,1
5024,3,0,46.195,0,-30,1,0.25,2,9,0.0,1.0,6,45.0,30.0,9,0.301,1.0,47.525,0.25,1,2018-07-17 09:17:06.000,144,2018-07-17 09:17:52.195,0.25,-90,0,30,-60,1
5025,4,0,66.291,0,-30,1,0.25,2,9,0.0,1.0,6,45.0,30.0,9,0.501,0.0,67.19800000000001,0.0,0,2018-07-17 09:17:06.000,144,2018-07-17 09:18:12.291,0.25,90,0,30,120,1
5026,6,0,83.992,0,-30,1,0.25,2,3,0.0,1.0,12,45.0,30.0,3,0.401,0.0,85.242,0.2,1,2018-07-17 09:17:06.000,144,2018-07-17 09:18:29.992,0.25,90,-180,-150,120,1
5027,7,0,92.545,0,-30,1,0.25,2,9,0.0,1.0,6,45.0,30.0,9,0.501,1.0,93.684,0.25,1,2018-07-17 09:17:06.000,144,2018-07-17 09:18:38.545,0.25,-90,0,30,-60,1
5028,8,0,104.667,0,-30,1,0.25,2,3,0.0,1.0,12,45.0,30.0,3,0.451,0.0,106.282,0.2,1,2018-07-17 09:17:06.000,144,2018-07-17 09:18:50.667,0.25,90,-180,-150,120,1
5029,9,0,113.505,0,-30,1,0.25,2,9,0.0,1.0,6,45.0,30.0,9,0.35100000000000003,0.0,114.556,0.0,0,2018-07-17 09:17:06.000,144,2018-07-17 09:18:59.505,0.25,90,0,30,120,1
5030,11,0,133.459,0,-30,1,0.25,2,9,0.0,1.0,6,45.0,30.0,9,0.301,1.0,134.454,0.25,1,2018-07-17 09:17:06.000,144,2018-07-17 09:19:19.459,0.25,-90,0,30,-60,1
5031,12,0,151.922,0,-30,1,0.25,2,3,0.0,1.0,12,45.0,30.0,3,0.501,1.0,153.325,0.0,0,2018-07-17 09:17:06.000,144,2018-07-17 09:19:37.922,0.25,-90,-180,-150,-60,1
5060,1,0,53.51600000000001,0,-60,1,0.25,2,3,0.0,1.0,12,45.0,30.0,3,0.401,0.0,54.757,0.2,1,2018-07-17 14:37:34.000,50,2018-07-17 14:38:27.516,0.25,90,-180,-120,150,1
5061,2,0,61.398,0,-60,1,0.25,2,3,0.0,1.0,12,45.0,30.0,3,0.301,0.0,62.183,0.2,1,2018-07-17 14:37:34.000,50,2018-07-17 14:38:35.398,0.25,90,-180,-120,150,1
5062,3,0,70.128,0,-60,1,0.25,2,3,0.0,1.0,12,45.0,30.0,3,0.35100000000000003,0.0,71.039,0.2,1,2018-07-17 14:37:34.000,50,2018-07-17 14:38:44.128,0.25,90,-180,-120,150,1
5063,4,0,77.278,0,-60,1,0.25,2,9,0.0,1.0,6,45.0,30.0,9,0.451,1.0,78.86,0.25,1,2018-07-17 14:37:34.000,50,2018-07-17 14:38:51.278,0.25,-90,0,60,-30,1
