,Trial,CorrectionTrial,StartTime,CenterReward,CenterSpoutRotation,nStimReps,Duration,Modality,LED Location,LED_trial_V,LED_bgnd_V,Speaker Location,Speaker_trial_V,Speaker_bgnd_V,TargetSpout,HoldTime,Response,RespTime,ValveTime,Correct,SessionDate,SessionID,StartDateTime,StimulusTotalDuration,response_angle_world,speaker_angle_world,speaker_angle_platform,response_angle_platform,not_probe
126,1,0,34.717,0,60,1,0.25,2,3,0.0,1.0,12,45.0,30.0,3,1.061,0.0,36.091,0.18,1,2018-03-15 15:55:38.000,64,2018-03-15 15:56:12.717,0.25,90,-180,120,30,1
127,2,0,60.302,0,60,1,0.25,2,3,0.0,1.0,12,45.0,30.0,3,0.5660000000000001,0.0,61.721,0.18,1,2018-03-15 15:55:38.000,64,2018-03-15 15:56:38.302,0.25,90,-180,120,30,1
128,3,0,120.715,0,60,1,0.25,2,3,0.0,1.0,12,45.0,30.0,3,0.401,0.0,122.698,0.18,1,2018-03-15 15:55:38.000,64,2018-03-15 15:57:38.715,0.25,90,-180,120,30,1
129,4,0,160.79399999999995,0,60,1,0.25,2,9,0.0,1.0,6,45.0,30.0,9,0.8959999999999999,0.0,163.026,0.0,0,2018-03-15 15:55:38.000,64,2018-03-15 15:58:18.794,0.25,90,0,-60,30,1
130,6,0,214.081,0,60,1,0.25,2,9,0.0,1.0,6,45.0,30.0,9,1.061,1.0,216.985,0.22,1,2018-03-15 15:55:38.000,64,2018-03-15 15:59:12.081,0.25,-90,0,-60,-150,1
131,7,0,248.554,0,60,1,0.25,2,9,0.0,1.0,6,45.0,30.0,9,0.401,0.0,253.08,0.0,0,2018-03-15 15:55:38.000,64,2018-03-15 15:59:46.554,0.25,90,0,-60,30,1
132,9,0,317.983,0,60,1,0.25,2,9,0.0,1.0,6,45.0,30.0,9,0.5660000000000001,1.0,319.819,0.22,1,2018-03-15 15:55:38.000,64,2018-03-15 16:00:55.983,0.25,-90,0,-60,-150,1
133,10,0,352.015,0,60,1,0.25,2,9,0.0,1.0,6,45.0,30.0,9,0.8959999999999999,1.0,354.505,0.22,1,2018-03-15 15:55:38.000,64,2018-03-15 16:01:30.015,0.25,-90,0,-60,-150,1
134,11,0,420.411,0,60,1,0.25,2,9,0.0,1.0,6,45.0,30.0,9,0.401,1.0,424.776,0.22,1,2018-03-15 15:55:38.000,64,2018-03-15 16:02:38.411,0.25,-90,0,-60,-150,1
135,12,0,453.644,0,60,1,0.25,2,3,0.0,1.0,12,45.0,30.0,3,0.8959999999999999,0.0,455.591,0.18,1,2018-03-15 15:55:38.000,64,2018-03-15 16:03:11.644,0.25,90,-180,120,30,1
195,1,0,28.36,0,0,1,0.25,2,3,0.0,1.0,12,45.0,30.0,3,0.8009999999999999,0.0,29.482,0.2,1,2018-03-16 10:35:14.000,173,2018-03-16 10:35:42.360,0.25,90,-180,-180,90,1
196,2,0,54.608,0,0,1,0.25,2,9,0.0,1.0,6,45.0,30.0,9,0.501,1.0,56.488,0.2,1,2018-03-16 10:35:14.000,173,2018-03-16 10:36:08.608,0.25,-90,0,0,-90,1
197,3,0,91.569,0,0,1,0.25,2,9,0.0,1.0,6,45.0,30.0,9,0.731,1.0,93.158,0.2,1,2018-03-16 10:35:14.000,173,2018-03-16 10:36:45.569,0.25,-90,0,0,-90,1
198,4,0,122.597,0,0,1,0.25,2,3,0.0,1.0,12,45.0,30.0,3,0.5660000000000001,1.0,126.016,0.0,0,2018-03-16 10:35:14.000,173,2018-03-16 10:37:16.597,0.25,-90,-180,-180,-90,1
199,6,0,153.528,0,0,1,0.25,2,3,0.0,1.0,12,45.0,30.0,3,1.061,0.0,154.866,0.2,1,2018-03-16 10:35:14.000,173,2018-03-16 10:37:47.528,0.25,90,-180,-180,90,1
200,7,0,185.884,0,0,1,0.25,2,9,0.0,1.0,6,45.0,30.0,9,0.401,1.0,188.329,0.2,1,2018-03-16 10:35:14.000,173,2018-03-16 10:38:19.884,0.25,-90,0,0,-90,1
201,8,0,216.96,0,0,1,0.25,2,3,0.0,1.0,12,45.0,30.0,3,0.8959999999999999,0.0,218.851,0.2,1,2018-03-16 10:35:14.000,173,2018-03-16 10:38:50.960,0.25,90,-180,-180,90,1
202,9,0,244.711,0,0,1,0.25,2,3,0.0,1.0,12,45.0,30.0,3,1.061,0.0,245.881,0.2,1,2018-03-16 10:35:14.000,173,2018-03-16 10:39:18.711,0.25,90,-180,-180,90,1
203,10,0,278.497,0,0,1,0.25,2,9,0.0,1.0,6,45.0,30.0,9,0.5660000000000001,0.0,281.8520000000001,0.0,0,2018-03-16 10:35:14.000,173,2018-03-16 10:39:52.497,0.25,90,0,0,90,1
204,12,0,314.08,0,0,1,0.25,2,3,0.0,1.0,12,45.0,30.0,3,0.731,1.0,322.152,0.0,0,2018-03-16 10:35:14.000,173,2018-03-16 10:40:28.080,0.25,-90,-180,-180,-90,1
323,1,0,68.237,0,150,1,0.25,2,9,0.0,1.0,6,45.0,30.0,9,0.401,1.0,71.346,0.2,1,2018-03-26 15:03:49.000,211,2018-03-26 15:04:57.237,0.25,-90,0,-150,120,1
324,2,0,113.526,0,150,1,0.25,2,3,0.0,1.0,12,45.0,30.0,3,1.061,1.0,119.377,0.0,0,2018-03-26 15:03:49.000,211,2018-03-26 15:05:42.526,0.25,-90,-180,30,120,1
325,4,0,156.175,0,150,1,0.25,2,9,0.0,1.0,6,45.0,30.0,9,0.731,0.0,160.139,0.0,0,2018-03-26 15:03:49.000,211,2018-03-26 15:06:25.175,0.25,90,0,-150,-60,1
326,9,0,243.124,0,150,1,0.25,2,9,0.0,1.0,6,45.0,30.0,9,0.731,1.0,248.133,0.2,1,2018-03-26 15:03:49.000,211,2018-03-26 15:07:52.124,0.25,-90,0,-150,120,1
327,10,0,288.4,0,150,1,0.25,2,3,0.0,1.0,12,45.0,30.0,3,0.8959999999999999,1.0,292.485,0.0,0,2018-03-26 15:03:49.000,211,2018-03-26 15:08:37.400,0.25,-90,-180,30,120,1
328,13,0,339.994,0,150,1,0.25,2,9,0.0,1.0,6,45.0,30.0,9,0.731,1.0,343.423,0.2,1,2018-03-26 15:03:49.000,211,2018-03-26 15:09:28.994,0.25,-90,0,-150,120,1
329,14,0,382.924,0,150,1,0.25,2,3,0.0,1.0,12,45.0,30.0,3,0.8959999999999999,1.0,384.59,0.0,0,2018-03-26 15:03:49.000,211,2018-03-26 15:10:11.924,0.25,-90,-180,30,120,1
330,16,0,414.569,0,150,1,0.25,2,9,0.0,1.0,6,45.0,30.0,9,0.731,1.0,416.635,0.2,1,2018-03-26 15:03:49.000,211,2018-03-26 15:10:43.569,0.25,-90,0,-150,120,1
331,17,0,457.367,0,150,1,0.25,2,3,0.0,1.0,12,45.0,30.0,3,0.401,0.0,460.62,0.2,1,2018-03-26 15:03:49.000,211,2018-03-26 15:11:26.367,0.25,90,-180,30,-60,1
332,18,0,478.16,0,150,1,0.25,2,9,0.0,1.0,6,45.0,30.0,9,0.8959999999999999,1.0,480.112,0.2,1,2018-03-26 15:03:49.000,211,2018-03-26 15:11:47.160,0.25,-90,0,-150,120,1
365,1,0,13.616,0,0,1,0.25,2,3,0.0,1.0,12,45.0,30.0,3,1.061,0.0,16.91,0.2,1,2018-03-28 09:21:33.000,14,2018-03-28 09:21:46.616,0.25,90,-180,-180,90,1
366,2,0,46.566,0,0,1,0.25,2,3,0.0,1.0,12,45.0,30.0,3,0.731,0.0,47.945,0.2,1,2018-03-28 09:21:33.000,14,2018-03-28 09:22:19.566,0.25,90,-180,-180,90,1
367,3,0,75.863,0,0,1,0.25,2,9,0.0,1.0,6,45.0,30.0,9,0.8959999999999999,1.0,77.214,0.2,1,2018-03-28 09:21:33.000,14,2018-03-28 09:22:48.863,0.25,-90,0,0,-90,1
368,4,0,100.917,0,0,1,0.25,2,9,0.0,1.0,6,45.0,30.0,9,0.401,1.0,106.658,0.2,1,2018-03-28 09:21:33.000,14,2018-03-28 09:23:13.917,0.25,-90,0,0,-90,1
369,5,0,130.43,0,0,1,0.25,2,3,0.0,1.0,12,45.0,30.0,3,0.5660000000000001,1.0,133.909,0.0,0,2018-03-28 09:21:33.000,14,2018-03-28 09:23:43.430,0.25,-90,-180,-180,-90,1
370,7,0,177.328,0,0,1,0.25,2,9,0.0,1.0,6,45.0,30.0,9,0.731,1.0,179.013,0.2,1,2018-03-28 09:21:33.000,14,2018-03-28 09:24:30.328,0.25,-90,0,0,-90,1
371,8,0,205.036,0,0,1,0.25,2,9,0.0,1.0,6,45.0,30.0,9,1.061,1.0,214.621,0.2,1,2018-03-28 09:21:33.000,14,2018-03-28 09:24:58.036,0.25,-90,0,0,-90,1
372,9,0,241.68,0,0,1,0.25,2,3,0.0,1.0,12,45.0,30.0,3,0.5660000000000001,1.0,249.578,0.0,0,2018-03-28 09:21:33.000,14,2018-03-28 09:25:34.680,0.25,-90,-180,-180,-90,1
373,11,0,283.259,0,0,1,0.25,2,3,0.0,1.0,12,45.0,30.0,3,1.061,1.0,287.764,0.0,0,2018-03-28 09:21:33.000,14,2018-03-28 09:26:16.259,0.25,-90,-180,-180,-90,1
374,13,0,320.832,0,0,1,0.25,2,3,0.0,1.0,12,45.0,30.0,3,0.731,0.0,322.587,0.2,1,2018-03-28 09:21:33.000,14,2018-03-28 09:26:53.832,0.25,90,-180,-180,90,1
990,1,0,41.121,0,-90,1,0.25,2,3,0.0,1.0,12,45.0,30.0,3,0.526,1.0,45.232,0.0,0,2018-05-01 16:18:43.000,203,2018-05-01 16:19:24.121,0.25,-90,-180,-90,0,1
991,3,0,91.118,0,-90,1,0.25,2,9,0.0,1.0,6,45.0,30.0,9,0.376,0.0,94.98,0.0,0,2018-05-01 16:18:43.000,203,2018-05-01 16:20:14.118,0.25,90,0,90,-180,1
992,5,0,132.804,0,-90,1,0.25,2,9,0.0,1.0,6,45.0,30.0,9,0.301,1.0,135.718,0.2,1,2018-05-01 16:18:43.000,203,2018-05-01 16:20:55.804,0.25,-90,0,90,0,1
993,6,0,163.64,0,-90,1,0.25,2,3,0.0,1.0,12,45.0,30.0,3,0.301,1.0,167.136,0.0,0,2018-05-01 16:18:43.000,203,2018-05-01 16:21:26.640,0.25,-90,-180,-90,0,1
994,9,0,285.247,0,-90,1,0.25,2,3,0.0,1.0,12,45.0,30.0,3,0.601,0.0,288.874,0.2,1,2018-05-01 16:18:43.000,203,2018-05-01 16:23:28.247,0.25,90,-180,-90,-180,1
995,10,0,313.696,0,-90,1,0.25,2,3,0.0,1.0,12,45.0,30.0,3,0.376,0.0,315.483,0.2,1,2018-05-01 16:18:43.000,203,2018-05-01 16:23:56.696,0.25,90,-180,-90,-180,1
996,11,0,339.99,0,-90,1,0.25,2,3,0.0,1.0,12,45.0,30.0,3,0.601,1.0,342.336,0.0,0,2018-05-01 16:18:43.000,203,2018-05-01 16:24:22.990,0.25,-90,-180,-90,0,1
997,14,0,379.916,0,-90,1,0.25,2,3,0.0,1.0,12,45.0,30.0,3,0.526,1.0,388.538,0.0,0,2018-05-01 16:18:43.000,203,2018-05-01 16:25:02.916,0.25,-90,-180,-90,0,1
998,17,0,433.967,0,-90,1,0.25,2,9,0.0,1.0,6,45.0,30.0,9,0.301,0.0,436.121,0.0,0,2018-05-01 16:18:43.000,203,2018-05-01 16:25:56.967,0.25,90,0,90,-180,1
999,19,0,469.741,0,-90,1,0.25,2,3,0.0,1.0,12,45.0,30.0,3,0.526,1.0,473.9980000000001,0.0,0,2018-05-01 16:18:43.000,203,2018-05-01 16:26:32.741,0.25,-90,-180,-90,0,1
1044,1,0,12.746,0,0,1,0.25,2,3,0.0,1.0,12,45.0,30.0,3,0.376,0.0,16.32,0.2,1,2018-05-02 14:20:58.000,113,2018-05-02 14:21:10.746,0.25,90,-180,-180,90,1
1045,2,0,41.24800000000001,0,0,1,0.25,2,3,0.0,1.0,12,45.0,30.0,3,0.601,0.0,42.548,0.2,1,2018-05-02 14:20:58.000,113,2018-05-02 14:21:39.248,0.25,90,-180,-180,90,1
1046,3,0,64.957,0,0,1,0.25,2,9,0.0,1.0,6,45.0,30.0,9,0.301,1.0,67.737,0.2,1,2018-05-02 14:20:58.000,113,2018-05-02 14:22:02.957,0.25,-90,0,0,-90,1
1047,4,0,85.958,0,0,1,0.25,2,3,0.0,1.0,12,45.0,30.0,3,0.451,0.0,88.26700000000002,0.2,1,2018-05-02 14:20:58.000,113,2018-05-02 14:22:23.958,0.25,90,-180,-180,90,1
1048,5,0,130.19,0,0,1,0.25,2,3,0.0,1.0,12,45.0,30.0,3,0.526,0.0,131.53,0.2,1,2018-05-02 14:20:58.000,113,2018-05-02 14:23:08.190,0.25,90,-180,-180,90,1
1049,6,0,166.581,0,0,1,0.25,2,3,0.0,1.0,12,45.0,30.0,3,0.376,1.0,172.1,0.0,0,2018-05-02 14:20:58.000,113,2018-05-02 14:23:44.581,0.25,-90,-180,-180,-90,1
1050,8,0,212.405,0,0,1,0.25,2,9,0.0,1.0,6,45.0,30.0,9,0.451,1.0,217.394,0.2,1,2018-05-02 14:20:58.000,113,2018-05-02 14:24:30.405,0.25,-90,0,0,-90,1
1051,9,0,240.77,0,0,1,0.25,2,9,0.0,1.0,6,45.0,30.0,9,0.601,1.0,242.662,0.2,1,2018-05-02 14:20:58.000,113,2018-05-02 14:24:58.770,0.25,-90,0,0,-90,1
1052,10,0,273.962,0,0,1,0.25,2,3,0.0,1.0,12,45.0,30.0,3,0.526,0.0,275.324,0.2,1,2018-05-02 14:20:58.000,113,2018-05-02 14:25:31.962,0.25,90,-180,-180,90,1
1053,11,0,298.676,0,0,1,0.25,2,9,0.0,1.0,6,45.0,30.0,9,0.301,1.0,303.634,0.2,1,2018-05-02 14:20:58.000,113,2018-05-02 14:25:56.676,0.25,-90,0,0,-90,1
1394,1,0,26.763,0,90,1,0.25,2,3,0.0,1.0,12,45.0,30.0,3,0.601,0.0,32.281,0.2,1,2018-05-09 09:16:22.000,98,2018-05-09 09:16:48.763,0.25,90,-180,90,0,1
1395,2,0,46.431,0,90,1,0.25,2,9,0.0,1.0,6,45.0,30.0,9,0.451,1.0,48.708,0.2,1,2018-05-09 09:16:22.000,98,2018-05-09 09:17:08.431,0.25,-90,0,-90,-180,1
1396,3,0,88.05799999999998,0,90,1,0.25,2,9,0.0,1.0,6,45.0,30.0,9,0.526,1.0,91.844,0.2,1,2018-05-09 09:16:22.000,98,2018-05-09 09:17:50.058,0.25,-90,0,-90,-180,1
1397,4,0,117.285,0,90,1,0.25,2,3,0.0,1.0,12,45.0,30.0,3,0.376,0.0,118.6,0.2,1,2018-05-09 09:16:22.000,98,2018-05-09 09:18:19.285,0.25,90,-180,90,0,1
1398,5,0,145.892,0,90,1,0.25,2,9,0.0,1.0,6,45.0,30.0,9,0.301,1.0,147.486,0.2,1,2018-05-09 09:16:22.000,98,2018-05-09 09:18:47.892,0.25,-90,0,-90,-180,1
1399,6,0,167.65099999999995,0,90,1,0.25,2,3,0.0,1.0,12,45.0,30.0,3,0.451,0.0,173.72099999999998,0.2,1,2018-05-09 09:16:22.000,98,2018-05-09 09:19:09.651,0.25,90,-180,90,0,1
1400,7,0,194.875,0,90,1,0.25,2,9,0.0,1.0,6,45.0,30.0,9,0.601,1.0,196.703,0.2,1,2018-05-09 09:16:22.000,98,2018-05-09 09:19:36.875,0.25,-90,0,-90,-180,1
1401,8,0,220.362,0,90,1,0.25,2,9,0.0,1.0,6,45.0,30.0,9,0.376,1.0,223.579,0.2,1,2018-05-09 09:16:22.000,98,2018-05-09 09:20:02.362,0.25,-90,0,-90,-180,1
1402,9,0,247.138,0,90,1,0.25,2,9,0.0,1.0,6,45.0,30.0,9,0.301,1.0,251.584,0.2,1,2018-05-09 09:16:22.000,98,2018-05-09 09:20:29.138,0.25,-90,0,-90,-180,1
1403,10,0,283.975,0,90,1,0.25,2,9,0.0,1.0,6,45.0,30.0,9,0.526,1.0,285.644,0.2,1,2018-05-09 09:16:22.000,98,2018-05-09 09:21:05.975,0.25,-90,0,-90,-180,1
1487,1,0,16.64,0,-90,1,0.25,2,3,0.0,1.0,12,45.0,30.0,3,0.451,1.0,18.567,0.0,0,2018-05-10 09:10:27.000,8,2018-05-10 09:10:43.640,0.25,-90,-180,-90,0,1
1488,4,0,64.721,0,-90,1,0.25,2,9,0.0,1.0,6,45.0,30.0,9,0.376,1.0,69.408,0.2,1,2018-05-10 09:10:27.000,8,2018-05-10 09:11:31.721,0.25,-90,0,90,0,1
1489,5,0,107.735,0,-90,1,0.25,2,9,0.0,1.0,6,45.0,30.0,9,0.301,1.0,109.279,0.2,1,2018-05-10 09:10:27.000,8,2018-05-10 09:12:14.735,0.25,-90,0,90,0,1
1490,6,0,145.836,0,-90,1,0.25,2,9,0.0,1.0,6,45.0,30.0,9,0.601,1.0,149.925,0.2,1,2018-05-10 09:10:27.000,8,2018-05-10 09:12:52.836,0.25,-90,0,90,0,1
1491,7,0,177.361,0,-90,1,0.25,2,3,0.0,1.0,12,45.0,30.0,3,0.376,0.0,179.481,0.2,1,2018-05-10 09:10:27.000,8,2018-05-10 09:13:24.361,0.25,90,-180,-90,-180,1
1492,8,0,207.569,0,-90,1,0.25,2,3,0.0,1.0,12,45.0,30.0,3,0.301,0.0,208.889,0.2,1,2018-05-10 09:10:27.000,8,2018-05-10 09:13:54.569,0.25,90,-180,-90,-180,1
1493,9,0,237.504,0,-90,1,0.25,2,3,0.0,1.0,12,45.0,30.0,3,0.526,0.0,239.474,0.2,1,2018-05-10 09:10:27.000,8,2018-05-10 09:14:24.504,0.25,90,-180,-90,-180,1
1494,10,0,281.536,0,-90,1,0.25,2,9,0.0,1.0,6,45.0,30.0,9,0.451,0.0,282.711,0.0,0,2018-05-10 09:10:27.000,8,2018-05-10 09:15:08.536,0.25,90,0,90,-180,1
1495,12,0,316.253,0,-90,1,0.25,2,9,0.0,1.0,6,45.0,30.0,9,0.526,1.0,319.616,0.2,1,2018-05-10 09:10:27.000,8,2018-05-10 09:15:43.253,0.25,-90,0,90,0,1
1496,13,0,343.42,0,-90,1,0.25,2,3,0.0,1.0,12,45.0,30.0,3,0.601,0.0,349.2990000000001,0.2,1,2018-05-10 09:10:27.000,8,2018-05-10 09:16:10.420,0.25,90,-180,-90,-180,1
1568,1,0,13.765999999999998,0,0,1,0.25,2,3,0.0,1.0,12,45.0,30.0,3,0.451,0.0,14.679,0.2,1,2018-05-11 09:59:55.000,71,2018-05-11 10:00:08.766,0.25,90,-180,-180,90,1
1569,2,0,41.754,0,0,1,0.25,2,9,0.0,1.0,6,45.0,30.0,9,0.376,0.0,43.188,0.0,0,2018-05-11 09:59:55.000,71,2018-05-11 10:00:36.754,0.25,90,0,0,90,1
1570,4,0,82.948,0,0,1,0.25,2,9,0.0,1.0,6,45.0,30.0,9,0.301,0.0,84.28,0.0,0,2018-05-11 09:59:55.000,71,2018-05-11 10:01:17.948,0.25,90,0,0,90,1
1571,6,0,122.418,0,0,1,0.25,2,3,0.0,1.0,12,45.0,30.0,3,0.526,0.0,124.212,0.2,1,2018-05-11 09:59:55.000,71,2018-05-11 10:01:57.418,0.25,90,-180,-180,90,1
1572,7,0,148.90200000000004,0,0,1,0.25,2,9,0.0,1.0,6,45.0,30.0,9,0.301,1.0,152.44799999999995,0.2,1,2018-05-11 09:59:55.000,71,2018-05-11 10:02:23.902,0.25,-90,0,0,-90,1
1573,8,0,178.18400000000003,0,0,1,0.25,2,3,0.0,1.0,12,45.0,30.0,3,0.376,0.0,179.326,0.2,1,2018-05-11 09:59:55.000,71,2018-05-11 10:02:53.184,0.25,90,-180,-180,90,1
1574,9,0,229.65,0,0,1,0.25,2,9,0.0,1.0,6,45.0,30.0,9,0.451,1.0,232.259,0.2,1,2018-05-11 09:59:55.000,71,2018-05-11 10:03:44.650,0.25,-90,0,0,-90,1
1575,10,0,269.42,0,0,1,0.25,2,9,0.0,1.0,6,45.0,30.0,9,0.601,0.0,270.61400000000003,0.0,0,2018-05-11 09:59:55.000,71,2018-05-11 10:04:24.420,0.25,90,0,0,90,1
1576,12,0,325.448,0,0,1,0.25,2,3,0.0,1.0,12,45.0,30.0,3,0.301,0.0,326.843,0.2,1,2018-05-11 09:59:55.000,71,2018-05-11 10:05:20.448,0.25,90,-180,-180,90,1
1577,13,0,353.949,0,0,1,0.25,2,9,0.0,1.0,6,45.0,30.0,9,0.601,1.0,356.26,0.2,1,2018-05-11 09:59:55.000,71,2018-05-11 10:05:48.949,0.25,-90,0,0,-90,1
1744,1,0,18.535,0,-60,1,0.25,2,3,0.0,1.0,12,45.0,30.0,3,0.451,0.0,20.722,0.2,1,2018-05-22 14:48:35.000,135,2018-05-22 14:48:53.535,0.25,90,-180,-120,150,1
1745,2,0,69.235,0,-60,1,0.25,2,9,0.0,1.0,6,45.0,30.0,9,0.526,0.0,72.01899999999998,0.0,0,2018-05-22 14:48:35.000,135,2018-05-22 14:49:44.235,0.25,90,0,60,150,1
1746,4,0,109.542,0,-60,1,0.25,2,3,0.0,1.0,12,45.0,30.0,3,0.601,1.0,113.563,0.0,0,2018-05-22 14:48:35.000,135,2018-05-22 14:50:24.542,0.25,-90,-180,-120,-30,1
1747,6,0,193.756,0,-60,1,0.25,2,9,0.0,1.0,6,45.0,30.0,9,0.376,0.0,194.95,0.0,0,2018-05-22 14:48:35.000,135,2018-05-22 14:51:48.756,0.25,90,0,60,150,1
1748,9,0,224.993,0,-60,1,0.25,2,3,0.0,1.0,12,45.0,30.0,3,0.601,0.0,226.424,0.2,1,2018-05-22 14:48:35.000,135,2018-05-22 14:52:19.993,0.25,90,-180,-120,150,1
1749,10,0,255.495,0,-60,1,0.25,2,3,0.0,1.0,12,45.0,30.0,3,0.526,0.0,256.724,0.2,1,2018-05-22 14:48:35.000,135,2018-05-22 14:52:50.495,0.25,90,-180,-120,150,1
1750,11,0,329.675,0,-60,1,0.25,2,9,0.0,1.0,6,45.0,30.0,9,0.376,0.0,332.309,0.0,0,2018-05-22 14:48:35.000,135,2018-05-22 14:54:04.675,0.25,90,0,60,150,1
1751,14,0,369.417,0,-60,1,0.25,2,3,0.0,1.0,12,45.0,30.0,3,0.526,0.0,371.632,0.2,1,2018-05-22 14:48:35.000,135,2018-05-22 14:54:44.417,0.25,90,-180,-120,150,1
1752,15,0,419.3730000000001,0,-60,1,0.25,2,3,0.0,1.0,12,45.0,30.0,3,0.451,0.0,420.552,0.2,1,2018-05-22 14:48:35.000,135,2018-05-22 14:55:34.373,0.25,90,-180,-120,150,1
1753,16,0,468.161,0,-60,1,0.25,2,3,0.0,1.0,12,45.0,30.0,3,0.451,0.0,469.481,0.2,1,2018-05-22 14:48:35.000,135,2018-05-22 14:56:23.161,0.25,90,-180,-120,150,1
1841,1,0,20.189,0,120,1,0.25,2,9,0.0,1.0,6,45.0,30.0,9,0.376,1.0,24.057,0.2,1,2018-05-24 09:17:55.000,163,2018-05-24 09:18:15.189,0.25,-90,0,-120,150,1
1842,2,0,48.337,0,120,1,0.25,2,3,0.0,1.0,12,45.0,30.0,3,0.601,0.0,50.265,0.2,1,2018-05-24 09:17:55.000,163,2018-05-24 09:18:43.337,0.25,90,-180,60,-30,1
1843,3,0,103.453,0,120,1,0.25,2,9,0.0,1.0,6,45.0,30.0,9,0.526,1.0,104.989,0.2,1,2018-05-24 09:17:55.000,163,2018-05-24 09:19:38.453,0.25,-90,0,-120,150,1
1844,4,0,135.91299999999998,0,120,1,0.25,2,9,0.0,1.0,6,45.0,30.0,9,0.451,1.0,137.799,0.2,1,2018-05-24 09:17:55.000,163,2018-05-24 09:20:10.913,0.25,-90,0,-120,150,1
1845,5,0,164.988,0,120,1,0.25,2,9,0.0,1.0,6,45.0,30.0,9,0.301,0.0,169.634,0.0,0,2018-05-24 09:17:55.000,163,2018-05-24 09:20:39.988,0.25,90,0,-120,-30,1
1846,7,0,206.986,0,120,1,0.25,2,9,0.0,1.0,6,45.0,30.0,9,0.451,0.0,210.861,0.0,0,2018-05-24 09:17:55.000,163,2018-05-24 09:21:21.986,0.25,90,0,-120,-30,1
1847,10,0,251.761,0,120,1,0.25,2,9,0.0,1.0,6,45.0,30.0,9,0.376,0.0,254.942,0.0,0,2018-05-24 09:17:55.000,163,2018-05-24 09:22:06.761,0.25,90,0,-120,-30,1
1848,12,0,289.658,0,120,1,0.25,2,3,0.0,1.0,12,45.0,30.0,3,0.451,0.0,291.841,0.2,1,2018-05-24 09:17:55.000,163,2018-05-24 09:22:44.658,0.25,90,-180,60,-30,1
1849,13,0,362.815,0,120,1,0.25,2,3,0.0,1.0,12,45.0,30.0,3,0.376,0.0,364.525,0.2,1,2018-05-24 09:17:55.000,163,2018-05-24 09:23:57.815,0.25,90,-180,60,-30,1
1850,14,0,434.214,0,120,1,0.25,2,3,0.0,1.0,12,45.0,30.0,3,0.526,0.0,436.355,0.2,1,2018-05-24 09:17:55.000,163,2018-05-24 09:25:09.214,0.25,90,-180,60,-30,1
1891,1,0,36.932,0,-150,1,0.25,2,9,0.0,1.0,6,45.0,30.0,9,0.451,0.0,47.49100000000001,0.0,0,2018-05-25 09:07:02.000,109,2018-05-25 09:07:38.932,0.25,90,0,150,-120,1
1892,3,0,115.255,0,-150,1,0.25,2,9,0.0,1.0,6,45.0,30.0,9,0.526,1.0,118.627,0.2,1,2018-05-25 09:07:02.000,109,2018-05-25 09:08:57.255,0.25,-90,0,150,60,1
1893,4,0,143.245,0,-150,1,0.25,2,3,0.0,1.0,12,45.0,30.0,3,0.376,0.0,144.855,0.2,1,2018-05-25 09:07:02.000,109,2018-05-25 09:09:25.245,0.25,90,-180,-30,-120,1
1894,5,0,188.754,0,-150,1,0.25,2,9,0.0,1.0,6,45.0,30.0,9,0.301,1.0,189.895,0.2,1,2018-05-25 09:07:02.000,109,2018-05-25 09:10:10.754,0.25,-90,0,150,60,1
1895,6,0,208.603,0,-150,1,0.25,2,9,0.0,1.0,6,45.0,30.0,9,0.301,1.0,210.083,0.2,1,2018-05-25 09:07:02.000,109,2018-05-25 09:10:30.603,0.25,-90,0,150,60,1
1896,7,0,245.029,0,-150,1,0.25,2,9,0.0,1.0,6,45.0,30.0,9,0.376,1.0,246.551,0.2,1,2018-05-25 09:07:02.000,109,2018-05-25 09:11:07.029,0.25,-90,0,150,60,1
1897,8,0,270.822,0,-150,1,0.25,2,9,0.0,1.0,6,45.0,30.0,9,0.526,1.0,272.086,0.2,1,2018-05-25 09:07:02.000,109,2018-05-25 09:11:32.822,0.25,-90,0,150,60,1
1898,9,0,355.892,0,-150,1,0.25,2,3,0.0,1.0,12,45.0,30.0,3,0.601,1.0,358.0,0.0,0,2018-05-25 09:07:02.000,109,2018-05-25 09:12:57.892,0.25,-90,-180,-30,60,1
1899,11,0,419.227,0,-150,1,0.25,2,3,0.0,1.0,12,45.0,30.0,3,0.601,0.0,420.593,0.2,1,2018-05-25 09:07:02.000,109,2018-05-25 09:14:01.227,0.25,90,-180,-30,-120,1
1900,12,0,488.258,0,-150,1,0.25,2,9,0.0,1.0,6,45.0,30.0,9,0.451,1.0,489.472,0.2,1,2018-05-25 09:07:02.000,109,2018-05-25 09:15:10.258,0.25,-90,0,150,60,1
1917,1,0,45.24,0,180,1,0.25,2,3,0.0,1.0,12,45.0,30.0,3,0.301,0.0,56.576,0.2,1,2018-05-25 14:30:37.000,95,2018-05-25 14:31:22.240,0.25,90,-180,0,-90,1
1918,2,0,66.915,0,180,1,0.25,2,3,0.0,1.0,12,45.0,30.0,3,0.526,1.0,68.88600000000001,0.0,0,2018-05-25 14:30:37.000,95,2018-05-25 14:31:43.915,0.25,-90,-180,0,90,1
1919,4,0,87.473,0,180,1,0.25,2,3,0.0,1.0,12,45.0,30.0,3,0.451,0.0,88.905,0.2,1,2018-05-25 14:30:37.000,95,2018-05-25 14:32:04.473,0.25,90,-180,0,-90,1
1920,5,0,102.387,0,180,1,0.25,2,9,0.0,1.0,6,45.0,30.0,9,0.601,1.0,103.685,0.2,1,2018-05-25 14:30:37.000,95,2018-05-25 14:32:19.387,0.25,-90,0,-180,90,1
1921,6,0,139.7,0,180,1,0.25,2,3,0.0,1.0,12,45.0,30.0,3,0.601,1.0,142.893,0.0,0,2018-05-25 14:30:37.000,95,2018-05-25 14:32:56.700,0.25,-90,-180,0,90,1
1922,8,0,184.569,0,180,1,0.25,2,9,0.0,1.0,6,45.0,30.0,9,0.526,1.0,185.8,0.2,1,2018-05-25 14:30:37.000,95,2018-05-25 14:33:41.569,0.25,-90,0,-180,90,1
1923,9,0,213.394,0,180,1,0.25,2,3,0.0,1.0,12,45.0,30.0,3,0.301,0.0,214.728,0.2,1,2018-05-25 14:30:37.000,95,2018-05-25 14:34:10.394,0.25,90,-180,0,-90,1
1924,10,0,230.552,0,180,1,0.25,2,9,0.0,1.0,6,45.0,30.0,9,0.376,1.0,231.915,0.2,1,2018-05-25 14:30:37.000,95,2018-05-25 14:34:27.552,0.25,-90,0,-180,90,1
1925,11,0,253.977,0,180,1,0.25,2,3,0.0,1.0,12,45.0,30.0,3,0.601,0.0,258.818,0.2,1,2018-05-25 14:30:37.000,95,2018-05-25 14:34:50.977,0.25,90,-180,0,-90,1
1926,12,0,270.653,0,180,1,0.25,2,9,0.0,1.0,6,45.0,30.0,9,0.526,1.0,272.252,0.2,1,2018-05-25 14:30:37.000,95,2018-05-25 14:35:07.653,0.25,-90,0,-180,90,1
1978,1,0,38.827,0,0,1,0.25,2,3,0.0,1.0,12,45.0,30.0,3,0.601,0.0,43.199,0.2,1,2018-05-29 10:27:04.000,146,2018-05-29 10:27:42.827,0.25,90,-180,-180,90,1
1979,2,0,99.665,0,0,1,0.25,2,3,0.0,1.0,12,45.0,30.0,3,0.526,1.0,103.74,0.0,0,2018-05-29 10:27:04.000,146,2018-05-29 10:28:43.665,0.25,-90,-180,-180,-90,1
1980,4,0,157.502,0,0,1,0.25,2,9,0.0,1.0,6,45.0,30.0,9,0.301,1.0,162.589,0.2,1,2018-05-29 10:27:04.000,146,2018-05-29 10:29:41.502,0.25,-90,0,0,-90,1
1981,5,0,193.298,0,0,1,0.25,2,9,0.0,1.0,6,45.0,30.0,9,0.376,1.0,195.269,0.2,1,2018-05-29 10:27:04.000,146,2018-05-29 10:30:17.298,0.25,-90,0,0,-90,1
1982,6,0,215.095,0,0,1,0.25,2,3,0.0,1.0,12,45.0,30.0,3,0.526,0.0,216.01,0.2,1,2018-05-29 10:27:04.000,146,2018-05-29 10:30:39.095,0.25,90,-180,-180,90,1
1983,7,0,226.398,0,0,1,0.25,2,3,0.0,1.0,12,45.0,30.0,3,0.601,1.0,227.66,0.0,0,2018-05-29 10:27:04.000,146,2018-05-29 10:30:50.398,0.25,-90,-180,-180,-90,1
1984,9,0,266.756,0,0,1,0.25,2,9,0.0,1.0,6,45.0,30.0,9,0.301,1.0,280.777,0.2,1,2018-05-29 10:27:04.000,146,2018-05-29 10:31:30.756,0.25,-90,0,0,-90,1
1985,10,0,306.122,0,0,1,0.25,2,3,0.0,1.0,12,45.0,30.0,3,0.376,0.0,307.28,0.2,1,2018-05-29 10:27:04.000,146,2018-05-29 10:32:10.122,0.25,90,-180,-180,90,1
1986,11,0,335.13699999999994,0,0,1,0.25,2,3,0.0,1.0,12,45.0,30.0,3,0.526,0.0,336.13199999999995,0.2,1,2018-05-29 10:27:04.000,146,2018-05-29 10:32:39.137,0.25,90,-180,-180,90,1
1987,12,0,345.528,0,0,1,0.25,2,9,0.0,1.0,6,45.0,30.0,9,0.376,1.0,347.747,0.2,1,2018-05-29 10:27:04.000,146,2018-05-29 10:32:49.528,0.25,-90,0,0,-90,1
2019,1,0,102.708,0,-30,1,0.25,2,3,0.0,1.0,12,45.0,30.0,3,0.301,0.0,103.886,0.2,1,2018-05-30 10:16:29.000,122,2018-05-30 10:18:11.708,0.25,90,-180,-150,120,1
2020,2,0,197.12,0,-30,1,0.25,2,3,0.0,1.0,12,45.0,30.0,3,0.451,1.0,204.671,0.0,0,2018-05-30 10:16:29.000,122,2018-05-30 10:19:46.120,0.25,-90,-180,-150,-60,1
2021,5,0,333.001,0,-30,1,0.25,2,3,0.0,1.0,12,45.0,30.0,3,0.376,0.0,335.569,0.2,1,2018-05-30 10:16:29.000,122,2018-05-30 10:22:02.001,0.25,90,-180,-150,120,1
2022,6,0,408.788,0,-30,1,0.25,2,3,0.0,1.0,12,45.0,30.0,3,0.301,0.0,417.202,0.2,1,2018-05-30 10:16:29.000,122,2018-05-30 10:23:17.788,0.25,90,-180,-150,120,1
2023,7,0,465.732,0,-30,1,0.25,2,9,0.0,1.0,6,45.0,30.0,9,0.526,1.0,471.246,0.2,1,2018-05-30 10:16:29.000,122,2018-05-30 10:24:14.732,0.25,-90,0,30,-60,1
2024,8,0,525.495,0,-30,1,0.25,2,3,0.0,1.0,12,45.0,30.0,3,0.451,1.0,528.5740000000002,0.0,0,2018-05-30 10:16:29.000,122,2018-05-30 10:25:14.495,0.25,-90,-180,-150,-60,1
2025,10,0,584.821,0,-30,1,0.25,2,3,0.0,1.0,12,45.0,30.0,3,0.601,0.0,586.001,0.2,1,2018-05-30 10:16:29.000,122,2018-05-30 10:26:13.821,0.25,90,-180,-150,120,1
2026,11,0,629.2280000000002,0,-30,1,0.25,2,3,0.0,1.0,12,45.0,30.0,3,0.301,0.0,630.276,0.2,1,2018-05-30 10:16:29.000,122,2018-05-30 10:26:58.228,0.25,90,-180,-150,120,1
2027,12,0,695.36,0,-30,1,0.25,2,9,0.0,1.0,6,45.0,30.0,9,0.451,1.0,706.548,0.2,1,2018-05-30 10:16:29.000,122,2018-05-30 10:28:04.360,0.25,-90,0,30,-60,1
2028,13,0,759.08,0,-30,1,0.25,2,3,0.0,1.0,12,45.0,30.0,3,0.601,0.0,760.197,0.2,1,2018-05-30 10:16:29.000,122,2018-05-30 10:29:08.080,0.25,90,-180,-150,120,1
2041,1,0,30.437,0,30,1,0.25,2,9,0.0,1.0,6,45.0,30.0,9,0.601,1.0,34.518,0.2,1,2018-05-30 16:04:13.000,103,2018-05-30 16:04:43.437,0.25,-90,0,-30,-120,1
2042,2,0,66.13600000000001,0,30,1,0.25,2,3,0.0,1.0,12,45.0,30.0,3,0.376,0.0,67.601,0.2,1,2018-05-30 16:04:13.000,103,2018-05-30 16:05:19.136,0.25,90,-180,150,60,1
2043,3,0,129.558,0,30,1,0.25,2,9,0.0,1.0,6,45.0,30.0,9,0.301,1.0,135.025,0.2,1,2018-05-30 16:04:13.000,103,2018-05-30 16:06:22.558,0.25,-90,0,-30,-120,1
2044,4,0,157.299,0,30,1,0.25,2,9,0.0,1.0,6,45.0,30.0,9,0.451,1.0,158.903,0.2,1,2018-05-30 16:04:13.000,103,2018-05-30 16:06:50.299,0.25,-90,0,-30,-120,1
2045,5,0,181.894,0,30,1,0.25,2,3,0.0,1.0,12,45.0,30.0,3,0.526,0.0,183.503,0.2,1,2018-05-30 16:04:13.000,103,2018-05-30 16:07:14.894,0.25,90,-180,150,60,1
2046,6,0,221.598,0,30,1,0.25,2,3,0.0,1.0,12,45.0,30.0,3,0.451,0.0,222.569,0.2,1,2018-05-30 16:04:13.000,103,2018-05-30 16:07:54.598,0.25,90,-180,150,60,1
2047,7,0,280.073,0,30,1,0.25,2,3,0.0,1.0,12,45.0,30.0,3,0.376,0.0,281.578,0.2,1,2018-05-30 16:04:13.000,103,2018-05-30 16:08:53.073,0.25,90,-180,150,60,1
2048,8,0,326.316,0,30,1,0.25,2,3,0.0,1.0,12,45.0,30.0,3,0.526,0.0,338.966,0.2,1,2018-05-30 16:04:13.000,103,2018-05-30 16:09:39.316,0.25,90,-180,150,60,1
2049,9,0,347.2480000000001,0,30,1,0.25,2,3,0.0,1.0,12,45.0,30.0,3,0.601,0.0,350.032,0.2,1,2018-05-30 16:04:13.000,103,2018-05-30 16:10:00.248,0.25,90,-180,150,60,1
2050,10,0,361.081,0,30,1,0.25,2,3,0.0,1.0,12,45.0,30.0,3,0.301,0.0,362.469,0.2,1,2018-05-30 16:04:13.000,103,2018-05-30 16:10:14.081,0.25,90,-180,150,60,1
2071,1,0,29.048,0,-150,1,0.25,2,3,0.0,1.0,12,45.0,30.0,3,0.526,0.0,31.864,0.2,1,2018-05-31 09:24:59.000,149,2018-05-31 09:25:28.048,0.25,90,-180,-30,-120,1
2072,2,0,88.72,0,-150,1,0.25,2,3,0.0,1.0,12,45.0,30.0,3,0.376,0.0,90.193,0.2,1,2018-05-31 09:24:59.000,149,2018-05-31 09:26:27.720,0.25,90,-180,-30,-120,1
2073,3,0,137.903,0,-150,1,0.25,2,3,0.0,1.0,12,45.0,30.0,3,0.301,0.0,139.549,0.2,1,2018-05-31 09:24:59.000,149,2018-05-31 09:27:16.903,0.25,90,-180,-30,-120,1
2074,4,0,211.101,0,-150,1,0.25,2,3,0.0,1.0,12,45.0,30.0,3,0.601,0.0,212.265,0.2,1,2018-05-31 09:24:59.000,149,2018-05-31 09:28:30.101,0.25,90,-180,-30,-120,1
2075,5,0,269.286,0,-150,1,0.25,2,3,0.0,1.0,12,45.0,30.0,3,0.451,0.0,271.089,0.2,1,2018-05-31 09:24:59.000,149,2018-05-31 09:29:28.286,0.25,90,-180,-30,-120,1
2076,6,0,309.603,0,-150,1,0.25,2,3,0.0,1.0,12,45.0,30.0,3,0.301,1.0,311.17,0.0,0,2018-05-31 09:24:59.000,149,2018-05-31 09:30:08.603,0.25,-90,-180,-30,60,1
2077,8,0,380.141,0,-150,1,0.25,2,9,0.0,1.0,6,45.0,30.0,9,0.451,1.0,381.319,0.2,1,2018-05-31 09:24:59.000,149,2018-05-31 09:31:19.141,0.25,-90,0,150,60,1
2078,9,0,406.964,0,-150,1,0.25,2,9,0.0,1.0,6,45.0,30.0,9,0.601,1.0,408.011,0.2,1,2018-05-31 09:24:59.000,149,2018-05-31 09:31:45.964,0.25,-90,0,150,60,1
2079,10,0,446.73800000000006,0,-150,1,0.25,2,3,0.0,1.0,12,45.0,30.0,3,0.526,0.0,448.445,0.2,1,2018-05-31 09:24:59.000,149,2018-05-31 09:32:25.738,0.25,90,-180,-30,-120,1
2080,11,0,507.273,0,-150,1,0.25,2,9,0.0,1.0,6,45.0,30.0,9,0.526,1.0,508.42800000000005,0.2,1,2018-05-31 09:24:59.000,149,2018-05-31 09:33:26.273,0.25,-90,0,150,60,1
2089,1,0,105.631,0,-120,1,0.25,2,9,0.0,1.0,6,45.0,30.0,9,0.376,0.0,107.568,0.0,0,2018-05-31 14:57:10.000,73,2018-05-31 14:58:55.631,0.25,90,0,120,-150,1
2090,3,0,143.966,0,-120,1,0.25,2,3,0.0,1.0,12,45.0,30.0,3,0.301,0.0,145.774,0.2,1,2018-05-31 14:57:10.000,73,2018-05-31 14:59:33.966,0.25,90,-180,-60,-150,1
2091,4,0,201.206,0,-120,1,0.25,2,3,0.0,1.0,12,45.0,30.0,3,0.526,1.0,202.819,0.0,0,2018-05-31 14:57:10.000,73,2018-05-31 15:00:31.206,0.25,-90,-180,-60,30,1
2092,7,0,234.256,0,-120,1,0.25,2,9,0.0,1.0,6,45.0,30.0,9,0.301,1.0,235.349,0.2,1,2018-05-31 14:57:10.000,73,2018-05-31 15:01:04.256,0.25,-90,0,120,30,1
2093,8,0,264.885,0,-120,1,0.25,2,3,0.0,1.0,12,45.0,30.0,3,0.376,0.0,266.623,0.2,1,2018-05-31 14:57:10.000,73,2018-05-31 15:01:34.885,0.25,90,-180,-60,-150,1
2094,9,0,278.646,0,-120,1,0.25,2,3,0.0,1.0,12,45.0,30.0,3,0.451,0.0,280.091,0.2,1,2018-05-31 14:57:10.000,73,2018-05-31 15:01:48.646,0.25,90,-180,-60,-150,1
2095,10,0,332.01199999999994,0,-120,1,0.25,2,3,0.0,1.0,12,45.0,30.0,3,0.601,1.0,333.266,0.0,0,2018-05-31 14:57:10.000,73,2018-05-31 15:02:42.012,0.25,-90,-180,-60,30,1
2096,12,0,367.7,0,-120,1,0.25,2,9,0.0,1.0,6,45.0,30.0,9,0.451,1.0,368.784,0.2,1,2018-05-31 14:57:10.000,73,2018-05-31 15:03:17.700,0.25,-90,0,120,30,1
2097,13,0,398.24,0,-120,1,0.25,2,3,0.0,1.0,12,45.0,30.0,3,0.601,0.0,401.741,0.2,1,2018-05-31 14:57:10.000,73,2018-05-31 15:03:48.240,0.25,90,-180,-60,-150,1
2098,14,0,413.887,0,-120,1,0.25,2,9,0.0,1.0,6,45.0,30.0,9,0.526,1.0,414.789,0.2,1,2018-05-31 14:57:10.000,73,2018-05-31 15:04:03.887,0.25,-90,0,120,30,1
2105,1,0,62.886,0,150,1,0.25,2,9,0.0,1.0,6,45.0,30.0,9,0.526,0.0,65.112,0.0,0,2018-06-01 09:15:00.000,11,2018-06-01 09:16:02.886,0.25,90,0,-150,-60,1
2106,3,0,107.572,0,150,1,0.25,2,9,0.0,1.0,6,45.0,30.0,9,0.376,0.0,117.087,0.0,0,2018-06-01 09:15:00.000,11,2018-06-01 09:16:47.572,0.25,90,0,-150,-60,1
2107,6,0,172.44799999999995,0,150,1,0.25,2,3,0.0,1.0,12,45.0,30.0,3,0.451,1.0,173.94799999999995,0.0,0,2018-06-01 09:15:00.000,11,2018-06-01 09:17:52.448,0.25,-90,-180,30,120,1
2108,8,0,280.35200000000003,0,150,1,0.25,2,9,0.0,1.0,6,45.0,30.0,9,0.601,1.0,282.207,0.2,1,2018-06-01 09:15:00.000,11,2018-06-01 09:19:40.352,0.25,-90,0,-150,120,1
2109,9,0,308.392,0,150,1,0.25,2,9,0.0,1.0,6,45.0,30.0,9,0.376,1.0,310.44,0.2,1,2018-06-01 09:15:00.000,11,2018-06-01 09:20:08.392,0.25,-90,0,-150,120,1
2110,10,0,340.63,0,150,1,0.25,2,3,0.0,1.0,12,45.0,30.0,3,0.526,0.0,343.167,0.2,1,2018-06-01 09:15:00.000,11,2018-06-01 09:20:40.630,0.25,90,-180,30,-60,1
2111,11,0,419.661,0,150,1,0.25,2,3,0.0,1.0,12,45.0,30.0,3,0.301,1.0,422.453,0.0,0,2018-06-01 09:15:00.000,11,2018-06-01 09:21:59.661,0.25,-90,-180,30,120,1
2112,13,0,505.35,0,150,1,0.25,2,3,0.0,1.0,12,45.0,30.0,3,0.451,0.0,507.697,0.2,1,2018-06-01 09:15:00.000,11,2018-06-01 09:23:25.350,0.25,90,-180,30,-60,1
2113,14,0,537.62,0,150,1,0.25,2,3,0.0,1.0,12,45.0,30.0,3,0.376,0.0,541.974,0.2,1,2018-06-01 09:15:00.000,11,2018-06-01 09:23:57.620,0.25,90,-180,30,-60,1
2114,15,0,573.216,0,150,1,0.25,2,3,0.0,1.0,12,45.0,30.0,3,0.601,1.0,574.813,0.0,0,2018-06-01 09:15:00.000,11,2018-06-01 09:24:33.216,0.25,-90,-180,30,120,1
2151,1,0,27.271,0,0,1,0.25,2,3,0.0,1.0,12,45.0,30.0,3,0.601,0.0,28.504,0.2,1,2018-06-01 14:45:00.000,132,2018-06-01 14:45:27.271,0.25,90,-180,-180,90,1
2152,2,0,62.298,0,0,1,0.25,2,3,0.0,1.0,12,45.0,30.0,3,0.451,0.0,63.563,0.2,1,2018-06-01 14:45:00.000,132,2018-06-01 14:46:02.298,0.25,90,-180,-180,90,1
2153,3,0,75.271,0,0,1,0.25,2,9,0.0,1.0,6,45.0,30.0,9,0.526,1.0,76.71300000000002,0.2,1,2018-06-01 14:45:00.000,132,2018-06-01 14:46:15.271,0.25,-90,0,0,-90,1
2154,4,0,90.809,0,0,1,0.25,2,9,0.0,1.0,6,45.0,30.0,9,0.301,1.0,94.2,0.2,1,2018-06-01 14:45:00.000,132,2018-06-01 14:46:30.809,0.25,-90,0,0,-90,1
2155,5,0,120.959,0,0,1,0.25,2,3,0.0,1.0,12,45.0,30.0,3,0.376,0.0,122.037,0.2,1,2018-06-01 14:45:00.000,132,2018-06-01 14:47:00.959,0.25,90,-180,-180,90,1
2156,6,0,138.945,0,0,1,0.25,2,3,0.0,1.0,12,45.0,30.0,3,0.526,0.0,140.119,0.2,1,2018-06-01 14:45:00.000,132,2018-06-01 14:47:18.945,0.25,90,-180,-180,90,1
2157,7,0,161.964,0,0,1,0.25,2,3,0.0,1.0,12,45.0,30.0,3,0.301,0.0,163.09,0.2,1,2018-06-01 14:45:00.000,132,2018-06-01 14:47:41.964,0.25,90,-180,-180,90,1
2158,8,0,170.80599999999995,0,0,1,0.25,2,9,0.0,1.0,6,45.0,30.0,9,0.451,1.0,174.2,0.2,1,2018-06-01 14:45:00.000,132,2018-06-01 14:47:50.806,0.25,-90,0,0,-90,1
2159,9,0,184.855,0,0,1,0.25,2,9,0.0,1.0,6,45.0,30.0,9,0.601,1.0,186.901,0.2,1,2018-06-01 14:45:00.000,132,2018-06-01 14:48:04.855,0.25,-90,0,0,-90,1
2160,10,0,205.33900000000003,0,0,1,0.25,2,3,0.0,1.0,12,45.0,30.0,3,0.376,1.0,208.426,0.0,0,2018-06-01 14:45:00.000,132,2018-06-01 14:48:25.339,0.25,-90,-180,-180,-90,1
2244,1,0,77.666,0,-120,1,0.25,2,9,0.0,1.0,6,45.0,30.0,9,0.601,1.0,81.727,0.2,1,2018-06-19 14:20:37.000,158,2018-06-19 14:21:54.666,0.25,-90,0,120,30,1
2245,2,0,100.798,0,-120,1,0.25,2,9,0.0,1.0,6,45.0,30.0,9,0.376,1.0,103.676,0.2,1,2018-06-19 14:20:37.000,158,2018-06-19 14:22:17.798,0.25,-90,0,120,30,1
2246,3,0,121.136,0,-120,1,0.25,2,3,0.0,1.0,12,45.0,30.0,3,0.301,0.0,122.896,0.2,1,2018-06-19 14:20:37.000,158,2018-06-19 14:22:38.136,0.25,90,-180,-60,-150,1
2247,4,0,138.04399999999998,0,-120,1,0.25,2,3,0.0,1.0,12,45.0,30.0,3,0.526,0.0,139.387,0.2,1,2018-06-19 14:20:37.000,158,2018-06-19 14:22:55.044,0.25,90,-180,-60,-150,1
2248,5,0,162.969,0,-120,1,0.25,2,3,0.0,1.0,12,45.0,30.0,3,0.451,0.0,164.2,0.2,1,2018-06-19 14:20:37.000,158,2018-06-19 14:23:19.969,0.25,90,-180,-60,-150,1
2249,6,0,180.882,0,-120,1,0.25,2,9,0.0,1.0,6,45.0,30.0,9,0.601,1.0,182.002,0.2,1,2018-06-19 14:20:37.000,158,2018-06-19 14:23:37.882,0.25,-90,0,120,30,1
2250,7,0,202.149,0,-120,1,0.25,2,9,0.0,1.0,6,45.0,30.0,9,0.376,1.0,203.68,0.2,1,2018-06-19 14:20:37.000,158,2018-06-19 14:23:59.149,0.25,-90,0,120,30,1
2251,8,0,249.58,0,-120,1,0.25,2,3,0.0,1.0,12,45.0,30.0,3,0.526,1.0,257.955,0.0,0,2018-06-19 14:20:37.000,158,2018-06-19 14:24:46.580,0.25,-90,-180,-60,30,1
2252,10,0,301.779,0,-120,1,0.25,2,9,0.0,1.0,6,45.0,30.0,9,0.451,0.0,313.938,0.0,0,2018-06-19 14:20:37.000,158,2018-06-19 14:25:38.779,0.25,90,0,120,-150,1
2253,13,0,356.227,0,-120,1,0.25,2,9,0.0,1.0,6,45.0,30.0,9,0.601,1.0,360.496,0.2,1,2018-06-19 14:20:37.000,158,2018-06-19 14:26:33.227,0.25,-90,0,120,30,1
2270,1,0,38.71,0,60,1,0.25,2,3,0.0,1.0,12,45.0,30.0,3,0.526,0.0,39.913,0.2,1,2018-06-20 09:11:32.000,38,2018-06-20 09:12:10.710,0.25,90,-180,120,30,1
2271,2,0,49.288,0,60,1,0.25,2,9,0.0,1.0,6,45.0,30.0,9,0.451,1.0,50.65,0.2,1,2018-06-20 09:11:32.000,38,2018-06-20 09:12:21.288,0.25,-90,0,-60,-150,1
2272,3,0,96.738,0,60,1,0.25,2,3,0.0,1.0,12,45.0,30.0,3,0.301,0.0,97.939,0.2,1,2018-06-20 09:11:32.000,38,2018-06-20 09:13:08.738,0.25,90,-180,120,30,1
2273,4,0,128.721,0,60,1,0.25,2,3,0.0,1.0,12,45.0,30.0,3,0.376,0.0,129.457,0.2,1,2018-06-20 09:11:32.000,38,2018-06-20 09:13:40.721,0.25,90,-180,120,30,1
2274,5,0,161.796,0,60,1,0.25,2,3,0.0,1.0,12,45.0,30.0,3,0.601,0.0,163.095,0.2,1,2018-06-20 09:11:32.000,38,2018-06-20 09:14:13.796,0.25,90,-180,120,30,1
2275,6,0,200.59,0,60,1,0.25,2,3,0.0,1.0,12,45.0,30.0,3,0.376,0.0,201.724,0.2,1,2018-06-20 09:11:32.000,38,2018-06-20 09:14:52.590,0.25,90,-180,120,30,1
2276,7,0,232.905,0,60,1,0.25,2,9,0.0,1.0,6,45.0,30.0,9,0.526,1.0,235.5,0.2,1,2018-06-20 09:11:32.000,38,2018-06-20 09:15:24.905,0.25,-90,0,-60,-150,1
2277,8,0,263.955,0,60,1,0.25,2,3,0.0,1.0,12,45.0,30.0,3,0.301,0.0,265.683,0.2,1,2018-06-20 09:11:32.000,38,2018-06-20 09:15:55.955,0.25,90,-180,120,30,1
2278,9,0,286.192,0,60,1,0.25,2,9,0.0,1.0,6,45.0,30.0,9,0.451,1.0,287.593,0.2,1,2018-06-20 09:11:32.000,38,2018-06-20 09:16:18.192,0.25,-90,0,-60,-150,1
2279,10,0,322.906,0,60,1,0.25,2,9,0.0,1.0,6,45.0,30.0,9,0.601,1.0,324.641,0.2,1,2018-06-20 09:11:32.000,38,2018-06-20 09:16:54.906,0.25,-90,0,-60,-150,1
2296,1,0,43.945,0,-120,1,0.25,2,3,0.0,1.0,12,45.0,30.0,3,0.451,0.0,46.974,0.2,1,2018-06-20 14:31:41.000,104,2018-06-20 14:32:24.945,0.25,90,-180,-60,-150,1
2297,2,0,79.044,0,-120,1,0.25,2,9,0.0,1.0,6,45.0,30.0,9,0.526,1.0,80.679,0.2,1,2018-06-20 14:31:41.000,104,2018-06-20 14:33:00.044,0.25,-90,0,120,30,1
2298,3,0,93.961,0,-120,1,0.25,2,3,0.0,1.0,12,45.0,30.0,3,0.301,0.0,96.115,0.2,1,2018-06-20 14:31:41.000,104,2018-06-20 14:33:14.961,0.25,90,-180,-60,-150,1
2299,4,0,130.773,0,-120,1,0.25,2,9,0.0,1.0,6,45.0,30.0,9,0.376,1.0,132.679,0.2,1,2018-06-20 14:31:41.000,104,2018-06-20 14:33:51.773,0.25,-90,0,120,30,1
2300,5,0,147.839,0,-120,1,0.25,2,9,0.0,1.0,6,45.0,30.0,9,0.601,1.0,149.999,0.2,1,2018-06-20 14:31:41.000,104,2018-06-20 14:34:08.839,0.25,-90,0,120,30,1
2301,6,0,173.78799999999995,0,-120,1,0.25,2,9,0.0,1.0,6,45.0,30.0,9,0.451,1.0,175.046,0.2,1,2018-06-20 14:31:41.000,104,2018-06-20 14:34:34.788,0.25,-90,0,120,30,1
2302,7,0,192.484,0,-120,1,0.25,2,3,0.0,1.0,12,45.0,30.0,3,0.526,0.0,196.571,0.2,1,2018-06-20 14:31:41.000,104,2018-06-20 14:34:53.484,0.25,90,-180,-60,-150,1
2303,8,0,216.08,0,-120,1,0.25,2,3,0.0,1.0,12,45.0,30.0,3,0.601,0.0,217.745,0.2,1,2018-06-20 14:31:41.000,104,2018-06-20 14:35:17.080,0.25,90,-180,-60,-150,1
2304,9,0,232.581,0,-120,1,0.25,2,9,0.0,1.0,6,45.0,30.0,9,0.376,1.0,234.389,0.2,1,2018-06-20 14:31:41.000,104,2018-06-20 14:35:33.581,0.25,-90,0,120,30,1
2305,10,0,245.239,0,-120,1,0.25,2,3,0.0,1.0,12,45.0,30.0,3,0.301,0.0,246.976,0.2,1,2018-06-20 14:31:41.000,104,2018-06-20 14:35:46.239,0.25,90,-180,-60,-150,1
2327,1,0,31.685,0,-30,1,0.25,2,9,0.0,1.0,6,45.0,30.0,9,0.376,0.0,33.587,0.0,0,2018-06-21 09:22:34.000,157,2018-06-21 09:23:05.685,0.25,90,0,30,120,1
2328,3,0,96.656,0,-30,1,0.25,2,3,0.0,1.0,12,45.0,30.0,3,0.451,0.0,100.229,0.2,1,2018-06-21 09:22:34.000,157,2018-06-21 09:24:10.656,0.25,90,-180,-150,120,1
2329,4,0,125.603,0,-30,1,0.25,2,3,0.0,1.0,12,45.0,30.0,3,0.301,0.0,126.896,0.2,1,2018-06-21 09:22:34.000,157,2018-06-21 09:24:39.603,0.25,90,-180,-150,120,1
2330,5,0,159.106,0,-30,1,0.25,2,9,0.0,1.0,6,45.0,30.0,9,0.526,1.0,160.332,0.2,1,2018-06-21 09:22:34.000,157,2018-06-21 09:25:13.106,0.25,-90,0,30,-60,1
2331,6,0,179.484,0,-30,1,0.25,2,9,0.0,1.0,6,45.0,30.0,9,0.376,1.0,180.72,0.2,1,2018-06-21 09:22:34.000,157,2018-06-21 09:25:33.484,0.25,-90,0,30,-60,1
2332,7,0,197.069,0,-30,1,0.25,2,9,0.0,1.0,6,45.0,30.0,9,0.601,1.0,198.216,0.2,1,2018-06-21 09:22:34.000,157,2018-06-21 09:25:51.069,0.25,-90,0,30,-60,1
2333,8,0,221.49400000000003,0,-30,1,0.25,2,3,0.0,1.0,12,45.0,30.0,3,0.451,0.0,222.759,0.2,1,2018-06-21 09:22:34.000,157,2018-06-21 09:26:15.494,0.25,90,-180,-150,120,1
2334,9,0,264.508,0,-30,1,0.25,2,3,0.0,1.0,12,45.0,30.0,3,0.301,0.0,265.497,0.2,1,2018-06-21 09:22:34.000,157,2018-06-21 09:26:58.508,0.25,90,-180,-150,120,1
2335,10,0,305.072,0,-30,1,0.25,2,3,0.0,1.0,12,45.0,30.0,3,0.526,0.0,306.315,0.2,1,2018-06-21 09:22:34.000,157,2018-06-21 09:27:39.072,0.25,90,-180,-150,120,1
2336,11,0,338.579,0,-30,1,0.25,2,3,0.0,1.0,12,45.0,30.0,3,0.601,1.0,340.006,0.0,0,2018-06-21 09:22:34.000,157,2018-06-21 09:28:12.579,0.25,-90,-180,-150,-60,1
2365,1,0,75.62899999999998,0,-150,1,0.25,2,3,0.0,1.0,12,45.0,30.0,3,0.601,1.0,78.52199999999998,0.0,0,2018-06-21 14:42:41.000,83,2018-06-21 14:43:56.629,0.25,-90,-180,-30,60,1
2366,3,0,139.928,0,-150,1,0.25,2,9,0.0,1.0,6,45.0,30.0,9,0.376,1.0,141.39700000000005,0.2,1,2018-06-21 14:42:41.000,83,2018-06-21 14:45:00.928,0.25,-90,0,150,60,1
2367,4,0,162.673,0,-150,1,0.25,2,3,0.0,1.0,12,45.0,30.0,3,0.301,0.0,163.958,0.2,1,2018-06-21 14:42:41.000,83,2018-06-21 14:45:23.673,0.25,90,-180,-30,-120,1
2368,5,0,208.912,0,-150,1,0.25,2,9,0.0,1.0,6,45.0,30.0,9,0.451,1.0,210.048,0.2,1,2018-06-21 14:42:41.000,83,2018-06-21 14:46:09.912,0.25,-90,0,150,60,1
2369,6,0,233.877,0,-150,1,0.25,2,3,0.0,1.0,12,45.0,30.0,3,0.301,0.0,235.819,0.2,1,2018-06-21 14:42:41.000,83,2018-06-21 14:46:34.877,0.25,90,-180,-30,-120,1
2370,7,0,284.025,0,-150,1,0.25,2,9,0.0,1.0,6,45.0,30.0,9,0.526,1.0,285.458,0.2,1,2018-06-21 14:42:41.000,83,2018-06-21 14:47:25.025,0.25,-90,0,150,60,1
2371,8,0,310.9190000000001,0,-150,1,0.25,2,3,0.0,1.0,12,45.0,30.0,3,0.451,0.0,312.445,0.2,1,2018-06-21 14:42:41.000,83,2018-06-21 14:47:51.919,0.25,90,-180,-30,-120,1
2372,9,0,356.495,0,-150,1,0.25,2,3,0.0,1.0,12,45.0,30.0,3,0.376,0.0,358.773,0.2,1,2018-06-21 14:42:41.000,83,2018-06-21 14:48:37.495,0.25,90,-180,-30,-120,1
2373,10,0,398.352,0,-150,1,0.25,2,3,0.0,1.0,12,45.0,30.0,3,0.601,0.0,402.3130000000001,0.2,1,2018-06-21 14:42:41.000,83,2018-06-21 14:49:19.352,0.25,90,-180,-30,-120,1
2374,11,0,444.411,0,-150,1,0.25,2,3,0.0,1.0,12,45.0,30.0,3,0.376,0.0,447.455,0.2,1,2018-06-21 14:42:41.000,83,2018-06-21 14:50:05.411,0.25,90,-180,-30,-120,1
2418,1,0,115.241,0,0,1,0.25,2,9,0.0,1.0,6,45.0,30.0,9,0.376,1.0,121.665,0.2,1,2018-06-22 07:35:48.000,69,2018-06-22 07:37:43.241,0.25,-90,0,0,-90,1
2419,2,0,146.697,0,0,1,0.25,2,3,0.0,1.0,12,45.0,30.0,3,0.301,1.0,148.72,0.0,0,2018-06-22 07:35:48.000,69,2018-06-22 07:38:14.697,0.25,-90,-180,-180,-90,1
2420,5,0,212.585,0,0,1,0.25,2,9,0.0,1.0,6,45.0,30.0,9,0.526,1.0,214.826,0.2,1,2018-06-22 07:35:48.000,69,2018-06-22 07:39:20.585,0.25,-90,0,0,-90,1
2421,6,0,241.247,0,0,1,0.25,2,3,0.0,1.0,12,45.0,30.0,3,0.526,1.0,243.287,0.0,0,2018-06-22 07:35:48.000,69,2018-06-22 07:39:49.247,0.25,-90,-180,-180,-90,1
2422,8,0,275.394,0,0,1,0.25,2,3,0.0,1.0,12,45.0,30.0,3,0.376,1.0,277.208,0.0,0,2018-06-22 07:35:48.000,69,2018-06-22 07:40:23.394,0.25,-90,-180,-180,-90,1
2423,12,0,424.427,0,0,1,0.25,2,3,0.0,1.0,12,45.0,30.0,3,0.601,1.0,426.055,0.0,0,2018-06-22 07:35:48.000,69,2018-06-22 07:42:52.427,0.25,-90,-180,-180,-90,1
2424,15,0,512.997,0,0,1,0.25,2,9,0.0,1.0,6,45.0,30.0,9,0.301,1.0,515.914,0.2,1,2018-06-22 07:35:48.000,69,2018-06-22 07:44:20.997,0.25,-90,0,0,-90,1
2425,16,0,550.075,0,0,1,0.25,2,3,0.0,1.0,12,45.0,30.0,3,0.526,1.0,553.419,0.0,0,2018-06-22 07:35:48.000,69,2018-06-22 07:44:58.075,0.25,-90,-180,-180,-90,1
2426,18,0,626.9730000000002,0,0,1,0.25,2,3,0.0,1.0,12,45.0,30.0,3,0.601,1.0,629.355,0.0,0,2018-06-22 07:35:48.000,69,2018-06-22 07:46:14.973,0.25,-90,-180,-180,-90,1
2427,20,0,695.808,0,0,1,0.25,2,3,0.0,1.0,12,45.0,30.0,3,0.376,1.0,697.324,0.0,0,2018-06-22 07:35:48.000,69,2018-06-22 07:47:23.808,0.25,-90,-180,-180,-90,1
2460,1,0,27.102,0,180,1,0.25,2,3,0.0,1.0,12,45.0,30.0,3,0.451,0.0,28.556,0.2,1,2018-06-22 14:08:02.000,101,2018-06-22 14:08:29.102,0.25,90,-180,0,-90,1
2461,2,0,56.923,0,180,1,0.25,2,9,0.0,1.0,6,45.0,30.0,9,0.601,1.0,59.26,0.2,1,2018-06-22 14:08:02.000,101,2018-06-22 14:08:58.923,0.25,-90,0,-180,90,1
2462,3,0,73.92699999999998,0,180,1,0.25,2,3,0.0,1.0,12,45.0,30.0,3,0.526,0.0,76.322,0.2,1,2018-06-22 14:08:02.000,101,2018-06-22 14:09:15.927,0.25,90,-180,0,-90,1
2463,4,0,93.825,0,180,1,0.25,2,9,0.0,1.0,6,45.0,30.0,9,0.301,1.0,95.282,0.2,1,2018-06-22 14:08:02.000,101,2018-06-22 14:09:35.825,0.25,-90,0,-180,90,1
2464,5,0,112.331,0,180,1,0.25,2,3,0.0,1.0,12,45.0,30.0,3,0.376,1.0,113.668,0.0,0,2018-06-22 14:08:02.000,101,2018-06-22 14:09:54.331,0.25,-90,-180,0,90,1
2465,7,0,138.569,0,180,1,0.25,2,3,0.0,1.0,12,45.0,30.0,3,0.601,0.0,142.806,0.2,1,2018-06-22 14:08:02.000,101,2018-06-22 14:10:20.569,0.25,90,-180,0,-90,1
2466,8,0,152.423,0,180,1,0.25,2,9,0.0,1.0,6,45.0,30.0,9,0.301,1.0,153.83700000000005,0.2,1,2018-06-22 14:08:02.000,101,2018-06-22 14:10:34.423,0.25,-90,0,-180,90,1
2467,9,0,171.239,0,180,1,0.25,2,3,0.0,1.0,12,45.0,30.0,3,0.376,1.0,172.56599999999997,0.0,0,2018-06-22 14:08:02.000,101,2018-06-22 14:10:53.239,0.25,-90,-180,0,90,1
2468,11,0,188.017,0,180,1,0.25,2,9,0.0,1.0,6,45.0,30.0,9,0.301,1.0,189.405,0.2,1,2018-06-22 14:08:02.000,101,2018-06-22 14:11:10.017,0.25,-90,0,-180,90,1
2469,12,0,207.575,0,180,1,0.25,2,9,0.0,1.0,6,45.0,30.0,9,0.376,1.0,208.488,0.2,1,2018-06-22 14:08:02.000,101,2018-06-22 14:11:29.575,0.25,-90,0,-180,90,1
2526,1,0,39.973,0,0,1,0.25,2,9,0.0,1.0,6,45.0,30.0,9,0.601,0.0,46.88,0.0,0,2018-06-25 09:35:19.000,92,2018-06-25 09:35:58.973,0.25,90,0,0,90,1
2527,3,0,110.491,0,0,1,0.25,2,3,0.0,1.0,12,45.0,30.0,3,0.526,1.0,112.721,0.0,0,2018-06-25 09:35:19.000,92,2018-06-25 09:37:09.491,0.25,-90,-180,-180,-90,1
2528,5,0,158.563,0,0,1,0.25,2,3,0.0,1.0,12,45.0,30.0,3,0.451,0.0,160.043,0.2,1,2018-06-25 09:35:19.000,92,2018-06-25 09:37:57.563,0.25,90,-180,-180,90,1
2529,6,0,185.506,0,0,1,0.25,2,9,0.0,1.0,6,45.0,30.0,9,0.601,1.0,193.166,0.2,1,2018-06-25 09:35:19.000,92,2018-06-25 09:38:24.506,0.25,-90,0,0,-90,1
2530,7,0,216.407,0,0,1,0.25,2,9,0.0,1.0,6,45.0,30.0,9,0.451,1.0,219.782,0.2,1,2018-06-25 09:35:19.000,92,2018-06-25 09:38:55.407,0.25,-90,0,0,-90,1
2531,8,0,240.984,0,0,1,0.25,2,3,0.0,1.0,12,45.0,30.0,3,0.376,0.0,242.313,0.2,1,2018-06-25 09:35:19.000,92,2018-06-25 09:39:19.984,0.25,90,-180,-180,90,1
2532,9,0,278.449,0,0,1,0.25,2,9,0.0,1.0,6,45.0,30.0,9,0.301,1.0,281.091,0.2,1,2018-06-25 09:35:19.000,92,2018-06-25 09:39:57.449,0.25,-90,0,0,-90,1
2533,10,0,303.513,0,0,1,0.25,2,9,0.0,1.0,6,45.0,30.0,9,0.526,1.0,305.393,0.2,1,2018-06-25 09:35:19.000,92,2018-06-25 09:40:22.513,0.25,-90,0,0,-90,1
2534,11,0,329.8119999999999,0,0,1,0.25,2,3,0.0,1.0,12,45.0,30.0,3,0.301,0.0,330.995,0.2,1,2018-06-25 09:35:19.000,92,2018-06-25 09:40:48.812,0.25,90,-180,-180,90,1
2535,12,0,340.63,0,0,1,0.25,2,9,0.0,1.0,6,45.0,30.0,9,0.526,1.0,342.154,0.2,1,2018-06-25 09:35:19.000,92,2018-06-25 09:40:59.630,0.25,-90,0,0,-90,1
2677,1,0,40.685,0,30,1,0.25,2,3,0.0,1.0,12,45.0,30.0,3,0.376,0.0,42.166,0.2,1,2018-06-26 14:52:03.000,213,2018-06-26 14:52:43.685,0.25,90,-180,150,60,1
2678,2,0,69.063,0,30,1,0.25,2,3,0.0,1.0,12,45.0,30.0,3,0.601,0.0,71.12100000000002,0.2,1,2018-06-26 14:52:03.000,213,2018-06-26 14:53:12.063,0.25,90,-180,150,60,1
2679,3,0,79.64399999999998,0,30,1,0.25,2,3,0.0,1.0,12,45.0,30.0,3,0.526,0.0,80.925,0.2,1,2018-06-26 14:52:03.000,213,2018-06-26 14:53:22.644,0.25,90,-180,150,60,1
2680,4,0,88.929,0,30,1,0.25,2,9,0.0,1.0,6,45.0,30.0,9,0.301,1.0,90.366,0.2,1,2018-06-26 14:52:03.000,213,2018-06-26 14:53:31.929,0.25,-90,0,-30,-120,1
2681,5,0,112.462,0,30,1,0.25,2,9,0.0,1.0,6,45.0,30.0,9,0.451,1.0,115.883,0.2,1,2018-06-26 14:52:03.000,213,2018-06-26 14:53:55.462,0.25,-90,0,-30,-120,1
2682,6,0,134.143,0,30,1,0.25,2,3,0.0,1.0,12,45.0,30.0,3,0.451,0.0,135.191,0.2,1,2018-06-26 14:52:03.000,213,2018-06-26 14:54:17.143,0.25,90,-180,150,60,1
2683,7,0,170.1,0,30,1,0.25,2,3,0.0,1.0,12,45.0,30.0,3,0.526,0.0,171.468,0.2,1,2018-06-26 14:52:03.000,213,2018-06-26 14:54:53.100,0.25,90,-180,150,60,1
2684,8,0,202.886,0,30,1,0.25,2,3,0.0,1.0,12,45.0,30.0,3,0.601,0.0,205.021,0.2,1,2018-06-26 14:52:03.000,213,2018-06-26 14:55:25.886,0.25,90,-180,150,60,1
2685,9,0,219.655,0,30,1,0.25,2,9,0.0,1.0,6,45.0,30.0,9,0.376,1.0,224.855,0.2,1,2018-06-26 14:52:03.000,213,2018-06-26 14:55:42.655,0.25,-90,0,-30,-120,1
2686,10,0,245.836,0,30,1,0.25,2,9,0.0,1.0,6,45.0,30.0,9,0.301,0.0,247.156,0.0,0,2018-06-26 14:52:03.000,213,2018-06-26 14:56:08.836,0.25,90,0,-30,60,1
2743,1,0,47.38800000000001,0,150,1,0.25,2,9,0.0,1.0,6,45.0,30.0,9,0.376,1.0,48.469,0.2,1,2018-06-27 09:38:26.000,70,2018-06-27 09:39:13.388,0.25,-90,0,-150,120,1
2744,2,0,72.357,0,150,1,0.25,2,3,0.0,1.0,12,45.0,30.0,3,0.601,0.0,76.273,0.2,1,2018-06-27 09:38:26.000,70,2018-06-27 09:39:38.357,0.25,90,-180,30,-60,1
2745,3,0,102.184,0,150,1,0.25,2,9,0.0,1.0,6,45.0,30.0,9,0.301,1.0,103.522,0.2,1,2018-06-27 09:38:26.000,70,2018-06-27 09:40:08.184,0.25,-90,0,-150,120,1
2746,4,0,120.757,0,150,1,0.25,2,9,0.0,1.0,6,45.0,30.0,9,0.451,1.0,121.856,0.2,1,2018-06-27 09:38:26.000,70,2018-06-27 09:40:26.757,0.25,-90,0,-150,120,1
2747,5,0,138.741,0,150,1,0.25,2,3,0.0,1.0,12,45.0,30.0,3,0.526,0.0,139.955,0.2,1,2018-06-27 09:38:26.000,70,2018-06-27 09:40:44.741,0.25,90,-180,30,-60,1
2748,6,0,152.63299999999995,0,150,1,0.25,2,9,0.0,1.0,6,45.0,30.0,9,0.601,1.0,154.189,0.2,1,2018-06-27 09:38:26.000,70,2018-06-27 09:40:58.633,0.25,-90,0,-150,120,1
2749,7,0,175.274,0,150,1,0.25,2,9,0.0,1.0,6,45.0,30.0,9,0.376,0.0,177.518,0.0,0,2018-06-27 09:38:26.000,70,2018-06-27 09:41:21.274,0.25,90,0,-150,-60,1
2750,9,0,237.074,0,150,1,0.25,2,3,0.0,1.0,12,45.0,30.0,3,0.451,0.0,238.466,0.2,1,2018-06-27 09:38:26.000,70,2018-06-27 09:42:23.074,0.25,90,-180,30,-60,1
2751,10,0,269.399,0,150,1,0.25,2,9,0.0,1.0,6,45.0,30.0,9,0.301,1.0,276.087,0.2,1,2018-06-27 09:38:26.000,70,2018-06-27 09:42:55.399,0.25,-90,0,-150,120,1
2752,11,0,290.0370000000001,0,150,1,0.25,2,3,0.0,1.0,12,45.0,30.0,3,0.376,0.0,291.99,0.2,1,2018-06-27 09:38:26.000,70,2018-06-27 09:43:16.037,0.25,90,-180,30,-60,1
2803,1,0,40.272,0,-120,1,0.25,2,3,0.0,1.0,12,45.0,30.0,3,0.451,0.0,42.459,0.2,1,2018-06-27 14:32:52.000,37,2018-06-27 14:33:32.272,0.25,90,-180,-60,-150,1
2804,2,0,57.653,0,-120,1,0.25,2,3,0.0,1.0,12,45.0,30.0,3,0.301,0.0,58.931,0.2,1,2018-06-27 14:32:52.000,37,2018-06-27 14:33:49.653,0.25,90,-180,-60,-150,1
2805,3,0,72.64,0,-120,1,0.25,2,3,0.0,1.0,12,45.0,30.0,3,0.601,0.0,73.92699999999998,0.2,1,2018-06-27 14:32:52.000,37,2018-06-27 14:34:04.640,0.25,90,-180,-60,-150,1
2806,4,0,82.75200000000002,0,-120,1,0.25,2,3,0.0,1.0,12,45.0,30.0,3,0.376,0.0,86.965,0.2,1,2018-06-27 14:32:52.000,37,2018-06-27 14:34:14.752,0.25,90,-180,-60,-150,1
2807,5,0,95.933,0,-120,1,0.25,2,3,0.0,1.0,12,45.0,30.0,3,0.526,0.0,97.302,0.2,1,2018-06-27 14:32:52.000,37,2018-06-27 14:34:27.933,0.25,90,-180,-60,-150,1
2808,6,0,111.13,0,-120,1,0.25,2,3,0.0,1.0,12,45.0,30.0,3,0.301,0.0,112.926,0.2,1,2018-06-27 14:32:52.000,37,2018-06-27 14:34:43.130,0.25,90,-180,-60,-150,1
2809,7,0,126.728,0,-120,1,0.25,2,3,0.0,1.0,12,45.0,30.0,3,0.526,0.0,128.13299999999998,0.2,1,2018-06-27 14:32:52.000,37,2018-06-27 14:34:58.728,0.25,90,-180,-60,-150,1
2810,8,0,137.602,0,-120,1,0.25,2,9,0.0,1.0,6,45.0,30.0,9,0.451,0.0,139.002,0.0,0,2018-06-27 14:32:52.000,37,2018-06-27 14:35:09.602,0.25,90,0,120,-150,1
2811,10,0,162.942,0,-120,1,0.25,2,3,0.0,1.0,12,45.0,30.0,3,0.601,0.0,166.127,0.2,1,2018-06-27 14:32:52.000,37,2018-06-27 14:35:34.942,0.25,90,-180,-60,-150,1
2812,11,0,178.4,0,-120,1,0.25,2,9,0.0,1.0,6,45.0,30.0,9,0.301,1.0,179.648,0.2,1,2018-06-27 14:32:52.000,37,2018-06-27 14:35:50.400,0.25,-90,0,120,30,1
2855,1,0,31.531,0,60,1,0.25,2,3,0.0,1.0,12,45.0,30.0,3,0.601,0.0,32.471,0.2,1,2018-06-28 08:39:42.000,171,2018-06-28 08:40:13.531,0.25,90,-180,120,30,1
2856,2,0,40.776,0,60,1,0.25,2,9,0.0,1.0,6,45.0,30.0,9,0.376,1.0,42.279,0.2,1,2018-06-28 08:39:42.000,171,2018-06-28 08:40:22.776,0.25,-90,0,-60,-150,1
2857,3,0,82.27799999999998,0,60,1,0.25,2,3,0.0,1.0,12,45.0,30.0,3,0.451,0.0,83.415,0.2,1,2018-06-28 08:39:42.000,171,2018-06-28 08:41:04.278,0.25,90,-180,120,30,1
2858,4,0,90.666,0,60,1,0.25,2,3,0.0,1.0,12,45.0,30.0,3,0.301,0.0,91.853,0.2,1,2018-06-28 08:39:42.000,171,2018-06-28 08:41:12.666,0.25,90,-180,120,30,1
2859,5,0,99.416,0,60,1,0.25,2,9,0.0,1.0,6,45.0,30.0,9,0.526,1.0,100.778,0.2,1,2018-06-28 08:39:42.000,171,2018-06-28 08:41:21.416,0.25,-90,0,-60,-150,1
2860,6,0,126.891,0,60,1,0.25,2,9,0.0,1.0,6,45.0,30.0,9,0.376,0.0,129.629,0.0,0,2018-06-28 08:39:42.000,171,2018-06-28 08:41:48.891,0.25,90,0,-60,30,1
2861,8,0,150.935,0,60,1,0.25,2,9,0.0,1.0,6,45.0,30.0,9,0.601,0.0,151.865,0.0,0,2018-06-28 08:39:42.000,171,2018-06-28 08:42:12.935,0.25,90,0,-60,30,1
2862,11,0,193.014,0,60,1,0.25,2,9,0.0,1.0,6,45.0,30.0,9,0.451,1.0,197.539,0.2,1,2018-06-28 08:39:42.000,171,2018-06-28 08:42:55.014,0.25,-90,0,-60,-150,1
2863,12,0,235.783,0,60,1,0.25,2,9,0.0,1.0,6,45.0,30.0,9,0.301,1.0,242.027,0.2,1,2018-06-28 08:39:42.000,171,2018-06-28 08:43:37.783,0.25,-90,0,-60,-150,1
2864,13,0,262.752,0,60,1,0.25,2,9,0.0,1.0,6,45.0,30.0,9,0.376,1.0,269.846,0.2,1,2018-06-28 08:39:42.000,171,2018-06-28 08:44:04.752,0.25,-90,0,-60,-150,1
2906,1,0,43.063,0,-30,1,0.25,2,9,0.0,1.0,6,45.0,30.0,9,0.376,1.0,47.103,0.2,1,2018-06-28 14:40:47.000,93,2018-06-28 14:41:30.063,0.25,-90,0,30,-60,1
2907,2,0,67.577,0,-30,1,0.25,2,3,0.0,1.0,12,45.0,30.0,3,0.526,0.0,68.43,0.2,1,2018-06-28 14:40:47.000,93,2018-06-28 14:41:54.577,0.25,90,-180,-150,120,1
2908,3,0,78.068,0,-30,1,0.25,2,9,0.0,1.0,6,45.0,30.0,9,0.451,1.0,79.514,0.2,1,2018-06-28 14:40:47.000,93,2018-06-28 14:42:05.068,0.25,-90,0,30,-60,1
2909,4,0,95.461,0,-30,1,0.25,2,9,0.0,1.0,6,45.0,30.0,9,0.601,0.0,97.274,0.0,0,2018-06-28 14:40:47.000,93,2018-06-28 14:42:22.461,0.25,90,0,30,120,1
2910,6,0,132.763,0,-30,1,0.25,2,3,0.0,1.0,12,45.0,30.0,3,0.376,0.0,133.762,0.2,1,2018-06-28 14:40:47.000,93,2018-06-28 14:42:59.763,0.25,90,-180,-150,120,1
2911,7,0,143.791,0,-30,1,0.25,2,9,0.0,1.0,6,45.0,30.0,9,0.451,0.0,144.668,0.0,0,2018-06-28 14:40:47.000,93,2018-06-28 14:43:10.791,0.25,90,0,30,120,1
2912,9,0,169.206,0,-30,1,0.25,2,3,0.0,1.0,12,45.0,30.0,3,0.526,0.0,170.011,0.2,1,2018-06-28 14:40:47.000,93,2018-06-28 14:43:36.206,0.25,90,-180,-150,120,1
2913,10,0,183.625,0,-30,1,0.25,2,3,0.0,1.0,12,45.0,30.0,3,0.601,0.0,184.48,0.2,1,2018-06-28 14:40:47.000,93,2018-06-28 14:43:50.625,0.25,90,-180,-150,120,1
2914,11,0,193.523,0,-30,1,0.25,2,3,0.0,1.0,12,45.0,30.0,3,0.301,0.0,194.598,0.2,1,2018-06-28 14:40:47.000,93,2018-06-28 14:44:00.523,0.25,90,-180,-150,120,1
2915,12,0,203.533,0,-30,1,0.25,2,9,0.0,1.0,6,45.0,30.0,9,0.526,0.0,204.539,0.0,0,2018-06-28 14:40:47.000,93,2018-06-28 14:44:10.533,0.25,90,0,30,120,1
2968,1,0,23.217,0,-90,1,0.25,2,3,0.0,1.0,12,45.0,30.0,3,0.526,0.0,24.911,0.2,1,2018-06-29 08:57:09.000,46,2018-06-29 08:57:32.217,0.25,90,-180,-90,-180,1
2969,2,0,40.51,0,-90,1,0.25,2,9,0.0,1.0,6,45.0,30.0,9,0.301,1.0,42.581,0.2,1,2018-06-29 08:57:09.000,46,2018-06-29 08:57:49.510,0.25,-90,0,90,0,1
2970,3,0,56.479,0,-90,1,0.25,2,3,0.0,1.0,12,45.0,30.0,3,0.601,0.0,57.858,0.2,1,2018-06-29 08:57:09.000,46,2018-06-29 08:58:05.479,0.25,90,-180,-90,-180,1
2971,4,0,84.12100000000002,0,-90,1,0.25,2,9,0.0,1.0,6,45.0,30.0,9,0.451,1.0,86.77600000000002,0.2,1,2018-06-29 08:57:09.000,46,2018-06-29 08:58:33.121,0.25,-90,0,90,0,1
2972,5,0,99.109,0,-90,1,0.25,2,3,0.0,1.0,12,45.0,30.0,3,0.376,0.0,100.421,0.2,1,2018-06-29 08:57:09.000,46,2018-06-29 08:58:48.109,0.25,90,-180,-90,-180,1
2973,6,0,119.343,0,-90,1,0.25,2,9,0.0,1.0,6,45.0,30.0,9,0.601,1.0,120.904,0.2,1,2018-06-29 08:57:09.000,46,2018-06-29 08:59:08.343,0.25,-90,0,90,0,1
2974,7,0,153.793,0,-90,1,0.25,2,9,0.0,1.0,6,45.0,30.0,9,0.526,1.0,154.86700000000005,0.2,1,2018-06-29 08:57:09.000,46,2018-06-29 08:59:42.793,0.25,-90,0,90,0,1
2975,8,0,170.794,0,-90,1,0.25,2,9,0.0,1.0,6,45.0,30.0,9,0.301,0.0,172.15599999999995,0.0,0,2018-06-29 08:57:09.000,46,2018-06-29 08:59:59.794,0.25,90,0,90,-180,1
2976,10,0,225.803,0,-90,1,0.25,2,3,0.0,1.0,12,45.0,30.0,3,0.451,0.0,226.927,0.2,1,2018-06-29 08:57:09.000,46,2018-06-29 09:00:54.803,0.25,90,-180,-90,-180,1
2977,11,0,259.23,0,-90,1,0.25,2,9,0.0,1.0,6,45.0,30.0,9,0.526,1.0,262.378,0.2,1,2018-06-29 08:57:09.000,46,2018-06-29 09:01:28.230,0.25,-90,0,90,0,1
3013,1,0,43.432,0,0,1,0.25,2,3,0.0,1.0,12,45.0,30.0,3,0.526,0.0,44.971,0.2,1,2018-06-29 15:31:26.000,32,2018-06-29 15:32:09.432,0.25,90,-180,-180,90,1
3014,2,0,50.043,0,0,1,0.25,2,9,0.0,1.0,6,45.0,30.0,9,0.301,1.0,51.653,0.2,1,2018-06-29 15:31:26.000,32,2018-06-29 15:32:16.043,0.25,-90,0,0,-90,1
3015,3,0,73.904,0,0,1,0.25,2,3,0.0,1.0,12,45.0,30.0,3,0.451,0.0,75.19,0.2,1,2018-06-29 15:31:26.000,32,2018-06-29 15:32:39.904,0.25,90,-180,-180,90,1
3016,4,0,107.413,0,0,1,0.25,2,9,0.0,1.0,6,45.0,30.0,9,0.376,1.0,108.959,0.2,1,2018-06-29 15:31:26.000,32,2018-06-29 15:33:13.413,0.25,-90,0,0,-90,1
3017,5,0,130.60299999999998,0,0,1,0.25,2,3,0.0,1.0,12,45.0,30.0,3,0.601,0.0,131.483,0.2,1,2018-06-29 15:31:26.000,32,2018-06-29 15:33:36.603,0.25,90,-180,-180,90,1
3018,6,0,169.947,0,0,1,0.25,2,3,0.0,1.0,12,45.0,30.0,3,0.526,1.0,177.513,0.0,0,2018-06-29 15:31:26.000,32,2018-06-29 15:34:15.947,0.25,-90,-180,-180,-90,1
3019,8,0,214.647,0,0,1,0.25,2,3,0.0,1.0,12,45.0,30.0,3,0.376,0.0,215.638,0.2,1,2018-06-29 15:31:26.000,32,2018-06-29 15:35:00.647,0.25,90,-180,-180,90,1
3020,9,0,256.476,0,0,1,0.25,2,3,0.0,1.0,12,45.0,30.0,3,0.601,1.0,260.616,0.0,0,2018-06-29 15:31:26.000,32,2018-06-29 15:35:42.476,0.25,-90,-180,-180,-90,1
3021,11,0,275.103,0,0,1,0.25,2,9,0.0,1.0,6,45.0,30.0,9,0.526,1.0,279.369,0.2,1,2018-06-29 15:31:26.000,32,2018-06-29 15:36:01.103,0.25,-90,0,0,-90,1
3022,12,0,300.627,0,0,1,0.25,2,9,0.0,1.0,6,45.0,30.0,9,0.376,1.0,308.972,0.2,1,2018-06-29 15:31:26.000,32,2018-06-29 15:36:26.627,0.25,-90,0,0,-90,1
3220,1,0,52.93899999999999,0,90,1,0.25,2,9,0.0,1.0,6,45.0,30.0,9,0.451,1.0,54.512,0.2,1,2018-07-10 15:06:11.000,87,2018-07-10 15:07:03.939,0.25,-90,0,-90,-180,1
3221,2,0,80.221,0,90,1,0.25,2,9,0.0,1.0,6,45.0,30.0,9,0.301,1.0,81.578,0.2,1,2018-07-10 15:06:11.000,87,2018-07-10 15:07:31.221,0.25,-90,0,-90,-180,1
3222,3,0,98.655,0,90,1,0.25,2,9,0.0,1.0,6,45.0,30.0,9,0.601,1.0,100.155,0.2,1,2018-07-10 15:06:11.000,87,2018-07-10 15:07:49.655,0.25,-90,0,-90,-180,1
3223,4,0,118.227,0,90,1,0.25,2,3,0.0,1.0,12,45.0,30.0,3,0.526,0.0,119.077,0.2,1,2018-07-10 15:06:11.000,87,2018-07-10 15:08:09.227,0.25,90,-180,90,0,1
3224,5,0,128.628,0,90,1,0.25,2,9,0.0,1.0,6,45.0,30.0,9,0.376,1.0,129.935,0.2,1,2018-07-10 15:06:11.000,87,2018-07-10 15:08:19.628,0.25,-90,0,-90,-180,1
3225,6,0,153.247,0,90,1,0.25,2,3,0.0,1.0,12,45.0,30.0,3,0.601,0.0,154.16,0.2,1,2018-07-10 15:06:11.000,87,2018-07-10 15:08:44.247,0.25,90,-180,90,0,1
3226,7,0,162.20600000000005,0,90,1,0.25,2,3,0.0,1.0,12,45.0,30.0,3,0.451,0.0,163.023,0.2,1,2018-07-10 15:06:11.000,87,2018-07-10 15:08:53.206,0.25,90,-180,90,0,1
3227,8,0,171.388,0,90,1,0.25,2,9,0.0,1.0,6,45.0,30.0,9,0.376,1.0,172.921,0.2,1,2018-07-10 15:06:11.000,87,2018-07-10 15:09:02.388,0.25,-90,0,-90,-180,1
3228,9,0,187.941,0,90,1,0.25,2,3,0.0,1.0,12,45.0,30.0,3,0.301,0.0,189.454,0.2,1,2018-07-10 15:06:11.000,87,2018-07-10 15:09:18.941,0.25,90,-180,90,0,1
3229,10,0,197.982,0,90,1,0.25,2,3,0.0,1.0,12,45.0,30.0,3,0.526,0.0,198.78,0.2,1,2018-07-10 15:06:11.000,87,2018-07-10 15:09:28.982,0.25,90,-180,90,0,1
3276,1,0,41.635,0,120,1,0.25,2,9,0.0,1.0,6,45.0,30.0,9,0.601,0.0,43.011,0.0,0,2018-07-11 09:26:14.000,197,2018-07-11 09:26:55.635,0.25,90,0,-120,-30,1
3277,3,0,59.083,0,120,1,0.25,2,3,0.0,1.0,12,45.0,30.0,3,0.526,0.0,60.379,0.2,1,2018-07-11 09:26:14.000,197,2018-07-11 09:27:13.083,0.25,90,-180,60,-30,1
3278,4,0,67.835,0,120,1,0.25,2,3,0.0,1.0,12,45.0,30.0,3,0.451,0.0,68.641,0.2,1,2018-07-11 09:26:14.000,197,2018-07-11 09:27:21.835,0.25,90,-180,60,-30,1
3279,5,0,76.12,0,120,1,0.25,2,3,0.0,1.0,12,45.0,30.0,3,0.376,0.0,77.07,0.2,1,2018-07-11 09:26:14.000,197,2018-07-11 09:27:30.120,0.25,90,-180,60,-30,1
3280,6,0,84.22200000000002,0,120,1,0.25,2,9,0.0,1.0,6,45.0,30.0,9,0.526,0.0,85.815,0.0,0,2018-07-11 09:26:14.000,197,2018-07-11 09:27:38.222,0.25,90,0,-120,-30,1
3281,8,0,106.923,0,120,1,0.25,2,9,0.0,1.0,6,45.0,30.0,9,0.301,1.0,107.906,0.2,1,2018-07-11 09:26:14.000,197,2018-07-11 09:28:00.923,0.25,-90,0,-120,150,1
3282,9,0,119.194,0,120,1,0.25,2,3,0.0,1.0,12,45.0,30.0,3,0.376,0.0,120.205,0.2,1,2018-07-11 09:26:14.000,197,2018-07-11 09:28:13.194,0.25,90,-180,60,-30,1
3283,10,0,129.66,0,120,1,0.25,2,9,0.0,1.0,6,45.0,30.0,9,0.601,1.0,132.12,0.2,1,2018-07-11 09:26:14.000,197,2018-07-11 09:28:23.660,0.25,-90,0,-120,150,1
3284,11,0,148.855,0,120,1,0.25,2,9,0.0,1.0,6,45.0,30.0,9,0.451,1.0,149.93200000000004,0.2,1,2018-07-11 09:26:14.000,197,2018-07-11 09:28:42.855,0.25,-90,0,-120,150,1
3285,12,0,168.951,0,120,1,0.25,2,3,0.0,1.0,12,45.0,30.0,3,0.601,0.0,170.39700000000005,0.2,1,2018-07-11 09:26:14.000,197,2018-07-11 09:29:02.951,0.25,90,-180,60,-30,1
3316,1,0,29.03,0,60,1,0.25,2,3,0.0,1.0,12,45.0,30.0,3,0.526,0.0,30.329,0.2,1,2018-07-11 15:30:16.000,47,2018-07-11 15:30:45.030,0.25,90,-180,120,30,1
3317,2,0,37.427,0,60,1,0.25,2,9,0.0,1.0,6,45.0,30.0,9,0.301,1.0,39.079,0.2,1,2018-07-11 15:30:16.000,47,2018-07-11 15:30:53.427,0.25,-90,0,-60,-150,1
3318,3,0,70.468,0,60,1,0.25,2,3,0.0,1.0,12,45.0,30.0,3,0.376,0.0,71.426,0.2,1,2018-07-11 15:30:16.000,47,2018-07-11 15:31:26.468,0.25,90,-180,120,30,1
3319,4,0,78.737,0,60,1,0.25,2,9,0.0,1.0,6,45.0,30.0,9,0.451,0.0,79.392,0.0,0,2018-07-11 15:30:16.000,47,2018-07-11 15:31:34.737,0.25,90,0,-60,30,1
3320,6,0,99.253,0,60,1,0.25,2,9,0.0,1.0,6,45.0,30.0,9,0.376,1.0,100.748,0.2,1,2018-07-11 15:30:16.000,47,2018-07-11 15:31:55.253,0.25,-90,0,-60,-150,1
3321,7,0,131.548,0,60,1,0.25,2,3,0.0,1.0,12,45.0,30.0,3,0.301,0.0,132.525,0.2,1,2018-07-11 15:30:16.000,47,2018-07-11 15:32:27.548,0.25,90,-180,120,30,1
3322,8,0,140.20600000000002,0,60,1,0.25,2,9,0.0,1.0,6,45.0,30.0,9,0.451,1.0,141.282,0.2,1,2018-07-11 15:30:16.000,47,2018-07-11 15:32:36.206,0.25,-90,0,-60,-150,1
3323,9,0,162.969,0,60,1,0.25,2,9,0.0,1.0,6,45.0,30.0,9,0.526,1.0,164.175,0.2,1,2018-07-11 15:30:16.000,47,2018-07-11 15:32:58.969,0.25,-90,0,-60,-150,1
3324,10,0,184.671,0,60,1,0.25,2,3,0.0,1.0,12,45.0,30.0,3,0.601,0.0,185.718,0.2,1,2018-07-11 15:30:16.000,47,2018-07-11 15:33:20.671,0.25,90,-180,120,30,1
3325,11,0,193.328,0,60,1,0.25,2,3,0.0,1.0,12,45.0,30.0,3,0.601,0.0,194.441,0.2,1,2018-07-11 15:30:16.000,47,2018-07-11 15:33:29.328,0.25,90,-180,120,30,1
3357,1,0,43.6,0,150,1,0.25,2,9,0.0,1.0,6,45.0,30.0,9,0.451,1.0,44.95399999999999,0.2,1,2018-07-12 09:39:41.000,80,2018-07-12 09:40:24.600,0.25,-90,0,-150,120,1
3358,2,0,58.412,0,150,1,0.25,2,9,0.0,1.0,6,45.0,30.0,9,0.526,1.0,59.368,0.2,1,2018-07-12 09:39:41.000,80,2018-07-12 09:40:39.412,0.25,-90,0,-150,120,1
3359,3,0,71.615,0,150,1,0.25,2,9,0.0,1.0,6,45.0,30.0,9,0.601,0.0,72.832,0.0,0,2018-07-12 09:39:41.000,80,2018-07-12 09:40:52.615,0.25,90,0,-150,-60,1
3360,5,0,96.045,0,150,1,0.25,2,9,0.0,1.0,6,45.0,30.0,9,0.301,0.0,97.765,0.0,0,2018-07-12 09:39:41.000,80,2018-07-12 09:41:17.045,0.25,90,0,-150,-60,1
3361,8,0,139.227,0,150,1,0.25,2,9,0.0,1.0,6,45.0,30.0,9,0.451,1.0,140.722,0.2,1,2018-07-12 09:39:41.000,80,2018-07-12 09:42:00.227,0.25,-90,0,-150,120,1
3362,9,0,154.254,0,150,1,0.25,2,3,0.0,1.0,12,45.0,30.0,3,0.301,0.0,155.619,0.2,1,2018-07-12 09:39:41.000,80,2018-07-12 09:42:15.254,0.25,90,-180,30,-60,1
3363,10,0,204.242,0,150,1,0.25,2,9,0.0,1.0,6,45.0,30.0,9,0.601,1.0,205.401,0.2,1,2018-07-12 09:39:41.000,80,2018-07-12 09:43:05.242,0.25,-90,0,-150,120,1
3364,11,0,221.209,0,150,1,0.25,2,9,0.0,1.0,6,45.0,30.0,9,0.301,0.0,222.547,0.0,0,2018-07-12 09:39:41.000,80,2018-07-12 09:43:22.209,0.25,90,0,-150,-60,1
3365,14,0,259.503,0,150,1,0.25,2,3,0.0,1.0,12,45.0,30.0,3,0.451,0.0,260.555,0.2,1,2018-07-12 09:39:41.000,80,2018-07-12 09:44:00.503,0.25,90,-180,30,-60,1
3366,15,0,275.076,0,150,1,0.25,2,3,0.0,1.0,12,45.0,30.0,3,0.601,0.0,276.262,0.2,1,2018-07-12 09:39:41.000,80,2018-07-12 09:44:16.076,0.25,90,-180,30,-60,1
3406,1,0,74.692,0,180,1,0.25,2,9,0.0,1.0,6,45.0,30.0,9,0.451,0.0,75.994,0.0,0,2018-07-12 15:23:18.000,144,2018-07-12 15:24:32.692,0.25,90,0,-180,-90,1
3407,3,0,104.216,0,180,1,0.25,2,9,0.0,1.0,6,45.0,30.0,9,0.526,0.0,105.573,0.0,0,2018-07-12 15:23:18.000,144,2018-07-12 15:25:02.216,0.25,90,0,-180,-90,1
3408,5,0,126.81,0,180,1,0.25,2,9,0.0,1.0,6,45.0,30.0,9,0.301,1.0,127.894,0.2,1,2018-07-12 15:23:18.000,144,2018-07-12 15:25:24.810,0.25,-90,0,-180,90,1
3409,6,0,150.976,0,180,1,0.25,2,9,0.0,1.0,6,45.0,30.0,9,0.301,1.0,152.132,0.2,1,2018-07-12 15:23:18.000,144,2018-07-12 15:25:48.976,0.25,-90,0,-180,90,1
3410,7,0,170.363,0,180,1,0.25,2,9,0.0,1.0,6,45.0,30.0,9,0.601,1.0,171.74,0.2,1,2018-07-12 15:23:18.000,144,2018-07-12 15:26:08.363,0.25,-90,0,-180,90,1
3411,8,0,188.93400000000003,0,180,1,0.25,2,9,0.0,1.0,6,45.0,30.0,9,0.451,1.0,190.669,0.2,1,2018-07-12 15:23:18.000,144,2018-07-12 15:26:26.934,0.25,-90,0,-180,90,1
3412,9,0,208.58,0,180,1,0.25,2,9,0.0,1.0,6,45.0,30.0,9,0.376,1.0,209.781,0.2,1,2018-07-12 15:23:18.000,144,2018-07-12 15:26:46.580,0.25,-90,0,-180,90,1
3413,10,0,232.085,0,180,1,0.25,2,3,0.0,1.0,12,45.0,30.0,3,0.526,0.0,233.602,0.2,1,2018-07-12 15:23:18.000,144,2018-07-12 15:27:10.085,0.25,90,-180,0,-90,1
3414,11,0,255.51,0,180,1,0.25,2,9,0.0,1.0,6,45.0,30.0,9,0.526,1.0,256.507,0.2,1,2018-07-12 15:23:18.000,144,2018-07-12 15:27:33.510,0.25,-90,0,-180,90,1
3415,12,0,268.425,0,180,1,0.25,2,9,0.0,1.0,6,45.0,30.0,9,0.376,1.0,270.491,0.2,1,2018-07-12 15:23:18.000,144,2018-07-12 15:27:46.425,0.25,-90,0,-180,90,1
3453,1,0,16.423,0,0,1,0.25,2,3,0.0,1.0,12,45.0,30.0,3,0.601,0.0,17.573,0.2,1,2018-07-13 09:11:38.000,130,2018-07-13 09:11:54.423,0.25,90,-180,-180,90,1
3454,2,0,32.175,0,0,1,0.25,2,3,0.0,1.0,12,45.0,30.0,3,0.526,0.0,39.466,0.2,1,2018-07-13 09:11:38.000,130,2018-07-13 09:12:10.175,0.25,90,-180,-180,90,1
3455,3,0,53.794,0,0,1,0.25,2,9,0.0,1.0,6,45.0,30.0,9,0.376,1.0,57.371,0.2,1,2018-07-13 09:11:38.000,130,2018-07-13 09:12:31.794,0.25,-90,0,0,-90,1
3456,4,0,75.604,0,0,1,0.25,2,3,0.0,1.0,12,45.0,30.0,3,0.301,0.0,77.20100000000002,0.2,1,2018-07-13 09:11:38.000,130,2018-07-13 09:12:53.604,0.25,90,-180,-180,90,1
3457,5,0,87.559,0,0,1,0.25,2,3,0.0,1.0,12,45.0,30.0,3,0.451,0.0,88.431,0.2,1,2018-07-13 09:11:38.000,130,2018-07-13 09:13:05.559,0.25,90,-180,-180,90,1
3458,6,0,100.765,0,0,1,0.25,2,3,0.0,1.0,12,45.0,30.0,3,0.526,0.0,101.687,0.2,1,2018-07-13 09:11:38.000,130,2018-07-13 09:13:18.765,0.25,90,-180,-180,90,1
3459,7,0,110.5,0,0,1,0.25,2,3,0.0,1.0,12,45.0,30.0,3,0.301,0.0,111.475,0.2,1,2018-07-13 09:11:38.000,130,2018-07-13 09:13:28.500,0.25,90,-180,-180,90,1
3460,8,0,120.331,0,0,1,0.25,2,9,0.0,1.0,6,45.0,30.0,9,0.451,1.0,122.59,0.2,1,2018-07-13 09:11:38.000,130,2018-07-13 09:13:38.331,0.25,-90,0,0,-90,1
3461,9,0,155.047,0,0,1,0.25,2,9,0.0,1.0,6,45.0,30.0,9,0.376,0.0,156.31,0.0,0,2018-07-13 09:11:38.000,130,2018-07-13 09:14:13.047,0.25,90,0,0,90,1
3462,14,0,278.539,0,0,1,0.25,2,3,0.0,1.0,12,45.0,30.0,3,0.526,0.0,279.425,0.2,1,2018-07-13 09:11:38.000,130,2018-07-13 09:16:16.539,0.25,90,-180,-180,90,1
3487,1,0,63.705,0,-120,1,0.25,2,9,0.0,1.0,6,45.0,30.0,9,0.301,1.0,65.77199999999999,0.2,1,2018-07-13 15:43:43.000,30,2018-07-13 15:44:46.705,0.25,-90,0,120,30,1
3488,2,0,79.944,0,-120,1,0.25,2,3,0.0,1.0,12,45.0,30.0,3,0.526,0.0,81.209,0.2,1,2018-07-13 15:43:43.000,30,2018-07-13 15:45:02.944,0.25,90,-180,-60,-150,1
3489,3,0,110.149,0,-120,1,0.25,2,3,0.0,1.0,12,45.0,30.0,3,0.601,0.0,111.336,0.2,1,2018-07-13 15:43:43.000,30,2018-07-13 15:45:33.149,0.25,90,-180,-60,-150,1
3490,4,0,119.416,0,-120,1,0.25,2,9,0.0,1.0,6,45.0,30.0,9,0.451,1.0,120.942,0.2,1,2018-07-13 15:43:43.000,30,2018-07-13 15:45:42.416,0.25,-90,0,120,30,1
3491,5,0,138.89700000000002,0,-120,1,0.25,2,9,0.0,1.0,6,45.0,30.0,9,0.376,0.0,140.423,0.0,0,2018-07-13 15:43:43.000,30,2018-07-13 15:46:01.897,0.25,90,0,120,-150,1
3492,7,0,164.416,0,-120,1,0.25,2,9,0.0,1.0,6,45.0,30.0,9,0.526,1.0,167.862,0.2,1,2018-07-13 15:43:43.000,30,2018-07-13 15:46:27.416,0.25,-90,0,120,30,1
3493,8,0,184.795,0,-120,1,0.25,2,9,0.0,1.0,6,45.0,30.0,9,0.376,0.0,186.328,0.0,0,2018-07-13 15:43:43.000,30,2018-07-13 15:46:47.795,0.25,90,0,120,-150,1
3494,11,0,251.531,0,-120,1,0.25,2,9,0.0,1.0,6,45.0,30.0,9,0.601,1.0,252.694,0.2,1,2018-07-13 15:43:43.000,30,2018-07-13 15:47:54.531,0.25,-90,0,120,30,1
3495,12,0,270.238,0,-120,1,0.25,2,3,0.0,1.0,12,45.0,30.0,3,0.451,0.0,271.47,0.2,1,2018-07-13 15:43:43.000,30,2018-07-13 15:48:13.238,0.25,90,-180,-60,-150,1
3496,13,0,300.868,0,-120,1,0.25,2,3,0.0,1.0,12,45.0,30.0,3,0.526,0.0,301.798,0.2,1,2018-07-13 15:43:43.000,30,2018-07-13 15:48:43.868,0.25,90,-180,-60,-150,1
3538,1,0,57.088,0,0,1,0.25,2,9,0.0,1.0,6,45.0,30.0,9,0.376,1.0,58.942,0.2,1,2018-07-16 09:44:04.000,154,2018-07-16 09:45:01.088,0.25,-90,0,0,-90,1
3539,2,0,76.707,0,0,1,0.25,2,3,0.0,1.0,12,45.0,30.0,3,0.451,0.0,77.805,0.2,1,2018-07-16 09:44:04.000,154,2018-07-16 09:45:20.707,0.25,90,-180,-180,90,1
3540,3,0,89.745,0,0,1,0.25,2,9,0.0,1.0,6,45.0,30.0,9,0.526,0.0,90.598,0.0,0,2018-07-16 09:44:04.000,154,2018-07-16 09:45:33.745,0.25,90,0,0,90,1
3541,5,0,113.017,0,0,1,0.25,2,9,0.0,1.0,6,45.0,30.0,9,0.301,0.0,114.623,0.0,0,2018-07-16 09:44:04.000,154,2018-07-16 09:45:57.017,0.25,90,0,0,90,1
3542,7,0,147.804,0,0,1,0.25,2,9,0.0,1.0,6,45.0,30.0,9,0.601,1.0,148.872,0.2,1,2018-07-16 09:44:04.000,154,2018-07-16 09:46:31.804,0.25,-90,0,0,-90,1
3543,8,0,170.528,0,0,1,0.25,2,9,0.0,1.0,6,45.0,30.0,9,0.526,1.0,173.75400000000005,0.2,1,2018-07-16 09:44:04.000,154,2018-07-16 09:46:54.528,0.25,-90,0,0,-90,1
3544,9,0,190.933,0,0,1,0.25,2,3,0.0,1.0,12,45.0,30.0,3,0.451,0.0,191.972,0.2,1,2018-07-16 09:44:04.000,154,2018-07-16 09:47:14.933,0.25,90,-180,-180,90,1
3545,10,0,199.314,0,0,1,0.25,2,9,0.0,1.0,6,45.0,30.0,9,0.301,1.0,200.716,0.2,1,2018-07-16 09:44:04.000,154,2018-07-16 09:47:23.314,0.25,-90,0,0,-90,1
3546,11,0,216.88,0,0,1,0.25,2,3,0.0,1.0,12,45.0,30.0,3,0.301,0.0,217.877,0.2,1,2018-07-16 09:44:04.000,154,2018-07-16 09:47:40.880,0.25,90,-180,-180,90,1
3547,12,0,231.575,0,0,1,0.25,2,3,0.0,1.0,12,45.0,30.0,3,0.376,0.0,232.383,0.2,1,2018-07-16 09:44:04.000,154,2018-07-16 09:47:55.575,0.25,90,-180,-180,90,1
3587,1,0,40.194,0,-60,1,0.25,2,3,0.0,1.0,12,45.0,30.0,3,0.451,0.0,41.945,0.2,1,2018-07-16 14:46:51.000,55,2018-07-16 14:47:31.194,0.25,90,-180,-120,150,1
3588,2,0,56.74,0,-60,1,0.25,2,3,0.0,1.0,12,45.0,30.0,3,0.301,0.0,57.729,0.2,1,2018-07-16 14:46:51.000,55,2018-07-16 14:47:47.740,0.25,90,-180,-120,150,1
3589,3,0,71.633,0,-60,1,0.25,2,3,0.0,1.0,12,45.0,30.0,3,0.376,0.0,72.79,0.2,1,2018-07-16 14:46:51.000,55,2018-07-16 14:48:02.633,0.25,90,-180,-120,150,1
3590,4,0,83.65,0,-60,1,0.25,2,9,0.0,1.0,6,45.0,30.0,9,0.526,1.0,85.09200000000001,0.2,1,2018-07-16 14:46:51.000,55,2018-07-16 14:48:14.650,0.25,-90,0,60,-30,1
3591,5,0,105.423,0,-60,1,0.25,2,3,0.0,1.0,12,45.0,30.0,3,0.601,0.0,106.33,0.2,1,2018-07-16 14:46:51.000,55,2018-07-16 14:48:36.423,0.25,90,-180,-120,150,1
3592,6,0,116.105,0,-60,1,0.25,2,9,0.0,1.0,6,45.0,30.0,9,0.601,0.0,121.889,0.0,0,2018-07-16 14:46:51.000,55,2018-07-16 14:48:47.105,0.25,90,0,60,150,1
3593,8,0,141.595,0,-60,1,0.25,2,9,0.0,1.0,6,45.0,30.0,9,0.301,1.0,145.37,0.2,1,2018-07-16 14:46:51.000,55,2018-07-16 14:49:12.595,0.25,-90,0,60,-30,1
3594,9,0,167.215,0,-60,1,0.25,2,9,0.0,1.0,6,45.0,30.0,9,0.526,1.0,168.507,0.2,1,2018-07-16 14:46:51.000,55,2018-07-16 14:49:38.215,0.25,-90,0,60,-30,1
3595,10,0,194.275,0,-60,1,0.25,2,9,0.0,1.0,6,45.0,30.0,9,0.376,1.0,197.264,0.2,1,2018-07-16 14:46:51.000,55,2018-07-16 14:50:05.275,0.25,-90,0,60,-30,1
3596,11,0,213.006,0,-60,1,0.25,2,9,0.0,1.0,6,45.0,30.0,9,0.376,1.0,214.722,0.2,1,2018-07-16 14:46:51.000,55,2018-07-16 14:50:24.006,0.25,-90,0,60,-30,1
3623,1,0,39.897,0,-30,1,0.25,2,9,0.0,1.0,6,45.0,30.0,9,0.526,1.0,42.69300000000001,0.2,1,2018-07-17 09:31:10.000,22,2018-07-17 09:31:49.897,0.25,-90,0,30,-60,1
3624,2,0,59.357,0,-30,1,0.25,2,3,0.0,1.0,12,45.0,30.0,3,0.451,0.0,60.356,0.2,1,2018-07-17 09:31:10.000,22,2018-07-17 09:32:09.357,0.25,90,-180,-150,120,1
3625,3,0,67.65,0,-30,1,0.25,2,3,0.0,1.0,12,45.0,30.0,3,0.601,0.0,68.389,0.2,1,2018-07-17 09:31:10.000,22,2018-07-17 09:32:17.650,0.25,90,-180,-150,120,1
3626,4,0,74.28699999999998,0,-30,1,0.25,2,3,0.0,1.0,12,45.0,30.0,3,0.301,0.0,75.128,0.2,1,2018-07-17 09:31:10.000,22,2018-07-17 09:32:24.287,0.25,90,-180,-150,120,1
3627,5,0,81.627,0,-30,1,0.25,2,9,0.0,1.0,6,45.0,30.0,9,0.376,1.0,82.94200000000002,0.2,1,2018-07-17 09:31:10.000,22,2018-07-17 09:32:31.627,0.25,-90,0,30,-60,1
3628,6,0,97.278,0,-30,1,0.25,2,3,0.0,1.0,12,45.0,30.0,3,0.376,0.0,98.493,0.2,1,2018-07-17 09:31:10.000,22,2018-07-17 09:32:47.278,0.25,90,-180,-150,120,1
3629,7,0,106.337,0,-30,1,0.25,2,9,0.0,1.0,6,45.0,30.0,9,0.451,1.0,108.354,0.2,1,2018-07-17 09:31:10.000,22,2018-07-17 09:32:56.337,0.25,-90,0,30,-60,1
3630,8,0,123.893,0,-30,1,0.25,2,3,0.0,1.0,12,45.0,30.0,3,0.301,0.0,124.907,0.2,1,2018-07-17 09:31:10.000,22,2018-07-17 09:33:13.893,0.25,90,-180,-150,120,1
3631,9,0,132.049,0,-30,1,0.25,2,9,0.0,1.0,6,45.0,30.0,9,0.601,1.0,133.491,0.2,1,2018-07-17 09:31:10.000,22,2018-07-17 09:33:22.049,0.25,-90,0,30,-60,1
3632,10,0,146.716,0,-30,1,0.25,2,3,0.0,1.0,12,45.0,30.0,3,0.526,0.0,147.58700000000005,0.2,1,2018-07-17 09:31:10.000,22,2018-07-17 09:33:36.716,0.25,90,-180,-150,120,1
3656,1,0,28.06,0,-60,1,0.25,2,9,0.0,1.0,6,45.0,30.0,9,0.301,1.0,29.968000000000004,0.2,1,2018-07-17 15:04:18.000,123,2018-07-17 15:04:46.060,0.25,-90,0,60,-30,1
3657,2,0,41.75,0,-60,1,0.25,2,9,0.0,1.0,6,45.0,30.0,9,0.451,1.0,43.596,0.2,1,2018-07-17 15:04:18.000,123,2018-07-17 15:04:59.750,0.25,-90,0,60,-30,1
3658,3,0,73.484,0,-60,1,0.25,2,9,0.0,1.0,6,45.0,30.0,9,0.376,1.0,74.572,0.2,1,2018-07-17 15:04:18.000,123,2018-07-17 15:05:31.484,0.25,-90,0,60,-30,1
3659,4,0,88.564,0,-60,1,0.25,2,9,0.0,1.0,6,45.0,30.0,9,0.526,1.0,90.608,0.2,1,2018-07-17 15:04:18.000,123,2018-07-17 15:05:46.564,0.25,-90,0,60,-30,1
3660,5,0,103.774,0,-60,1,0.25,2,9,0.0,1.0,6,45.0,30.0,9,0.601,1.0,105.305,0.2,1,2018-07-17 15:04:18.000,123,2018-07-17 15:06:01.774,0.25,-90,0,60,-30,1
3661,6,0,120.223,0,-60,1,0.25,2,3,0.0,1.0,12,45.0,30.0,3,0.601,0.0,121.426,0.2,1,2018-07-17 15:04:18.000,123,2018-07-17 15:06:18.223,0.25,90,-180,-120,150,1
3662,7,0,132.001,0,-60,1,0.25,2,3,0.0,1.0,12,45.0,30.0,3,0.376,0.0,132.917,0.2,1,2018-07-17 15:04:18.000,123,2018-07-17 15:06:30.001,0.25,90,-180,-120,150,1
3663,8,0,139.851,0,-60,1,0.25,2,3,0.0,1.0,12,45.0,30.0,3,0.451,0.0,140.624,0.2,1,2018-07-17 15:04:18.000,123,2018-07-17 15:06:37.851,0.25,90,-180,-120,150,1
3664,9,0,152.88299999999995,0,-60,1,0.25,2,9,0.0,1.0,6,45.0,30.0,9,0.301,1.0,154.42600000000004,0.2,1,2018-07-17 15:04:18.000,123,2018-07-17 15:06:50.883,0.25,-90,0,60,-30,1
3665,10,0,166.18200000000004,0,-60,1,0.25,2,9,0.0,1.0,6,45.0,30.0,9,0.526,1.0,168.003,0.2,1,2018-07-17 15:04:18.000,123,2018-07-17 15:07:04.182,0.25,-90,0,60,-30,1
3686,1,0,30.237,0,30,1,0.25,2,9,0.0,1.0,6,45.0,30.0,9,0.451,1.0,31.518,0.2,1,2018-07-18 10:00:21.000,164,2018-07-18 10:00:51.237,0.25,-90,0,-30,-120,1
3687,2,0,45.832,0,30,1,0.25,2,9,0.0,1.0,6,45.0,30.0,9,0.376,0.0,46.965,0.0,0,2018-07-18 10:00:21.000,164,2018-07-18 10:01:06.832,0.25,90,0,-30,60,1
3688,5,0,73.089,0,30,1,0.25,2,3,0.0,1.0,12,45.0,30.0,3,0.301,0.0,73.965,0.2,1,2018-07-18 10:00:21.000,164,2018-07-18 10:01:34.089,0.25,90,-180,150,60,1
3689,6,0,86.395,0,30,1,0.25,2,9,0.0,1.0,6,45.0,30.0,9,0.526,1.0,87.689,0.2,1,2018-07-18 10:00:21.000,164,2018-07-18 10:01:47.395,0.25,-90,0,-30,-120,1
3690,7,0,103.201,0,30,1,0.25,2,9,0.0,1.0,6,45.0,30.0,9,0.376,0.0,104.57,0.0,0,2018-07-18 10:00:21.000,164,2018-07-18 10:02:04.201,0.25,90,0,-30,60,1
3691,9,0,128.601,0,30,1,0.25,2,9,0.0,1.0,6,45.0,30.0,9,0.601,1.0,130.366,0.2,1,2018-07-18 10:00:21.000,164,2018-07-18 10:02:29.601,0.25,-90,0,-30,-120,1
3692,10,0,152.395,0,30,1,0.25,2,9,0.0,1.0,6,45.0,30.0,9,0.451,0.0,153.591,0.0,0,2018-07-18 10:00:21.000,164,2018-07-18 10:02:53.395,0.25,90,0,-30,60,1
3693,12,0,224.427,0,30,1,0.25,2,3,0.0,1.0,12,45.0,30.0,3,0.451,0.0,225.681,0.2,1,2018-07-18 10:00:21.000,164,2018-07-18 10:04:05.427,0.25,90,-180,150,60,1
3694,13,0,233.121,0,30,1,0.25,2,3,0.0,1.0,12,45.0,30.0,3,0.601,0.0,234.038,0.2,1,2018-07-18 10:00:21.000,164,2018-07-18 10:04:14.121,0.25,90,-180,150,60,1
3695,14,0,242.498,0,30,1,0.25,2,9,0.0,1.0,6,45.0,30.0,9,0.376,1.0,245.15,0.2,1,2018-07-18 10:00:21.000,164,2018-07-18 10:04:23.498,0.25,-90,0,-30,-120,1
3773,1,0,29.998,0,-30,1,0.25,2,9,0.0,1.0,6,45.0,30.0,9,0.526,0.0,30.881,0.0,0,2018-07-19 09:33:41.000,202,2018-07-19 09:34:10.998,0.25,90,0,30,120,1
3774,3,0,64.637,0,-30,1,0.25,2,9,0.0,1.0,6,45.0,30.0,9,0.376,0.0,66.258,0.0,0,2018-07-19 09:33:41.000,202,2018-07-19 09:34:45.637,0.25,90,0,30,120,1
3775,5,0,104.564,0,-30,1,0.25,2,3,0.0,1.0,12,45.0,30.0,3,0.451,0.0,105.254,0.2,1,2018-07-19 09:33:41.000,202,2018-07-19 09:35:25.564,0.25,90,-180,-150,120,1
3776,6,0,113.741,0,-30,1,0.25,2,9,0.0,1.0,6,45.0,30.0,9,0.376,1.0,115.101,0.2,1,2018-07-19 09:33:41.000,202,2018-07-19 09:35:34.741,0.25,-90,0,30,-60,1
3777,7,0,134.191,0,-30,1,0.25,2,9,0.0,1.0,6,45.0,30.0,9,0.451,1.0,135.171,0.2,1,2018-07-19 09:33:41.000,202,2018-07-19 09:35:55.191,0.25,-90,0,30,-60,1
3778,8,0,152.816,0,-30,1,0.25,2,9,0.0,1.0,6,45.0,30.0,9,0.301,1.0,157.753,0.2,1,2018-07-19 09:33:41.000,202,2018-07-19 09:36:13.816,0.25,-90,0,30,-60,1
3779,9,0,176.144,0,-30,1,0.25,2,9,0.0,1.0,6,45.0,30.0,9,0.601,1.0,177.68,0.2,1,2018-07-19 09:33:41.000,202,2018-07-19 09:36:37.144,0.25,-90,0,30,-60,1
3780,10,0,202.788,0,-30,1,0.25,2,9,0.0,1.0,6,45.0,30.0,9,0.526,1.0,204.15,0.2,1,2018-07-19 09:33:41.000,202,2018-07-19 09:37:03.788,0.25,-90,0,30,-60,1
3781,11,0,223.953,0,-30,1,0.25,2,3,0.0,1.0,12,45.0,30.0,3,0.301,0.0,225.051,0.2,1,2018-07-19 09:33:41.000,202,2018-07-19 09:37:24.953,0.25,90,-180,-150,120,1
3782,12,0,241.669,0,-30,1,0.25,2,9,0.0,1.0,6,45.0,30.0,9,0.376,1.0,243.041,0.2,1,2018-07-19 09:33:41.000,202,2018-07-19 09:37:42.669,0.25,-90,0,30,-60,1
3807,1,0,33.679,0,60,1,0.25,2,9,0.0,1.0,6,45.0,30.0,9,0.601,1.0,34.904,0.2,1,2018-07-19 15:36:34.000,183,2018-07-19 15:37:07.679,0.25,-90,0,-60,-150,1
3808,2,0,58.054,0,60,1,0.25,2,3,0.0,1.0,12,45.0,30.0,3,0.451,0.0,59.319,0.2,1,2018-07-19 15:36:34.000,183,2018-07-19 15:37:32.054,0.25,90,-180,120,30,1
3809,3,0,70.76100000000002,0,60,1,0.25,2,9,0.0,1.0,6,45.0,30.0,9,0.376,1.0,72.189,0.2,1,2018-07-19 15:36:34.000,183,2018-07-19 15:37:44.761,0.25,-90,0,-60,-150,1
3810,4,0,92.673,0,60,1,0.25,2,3,0.0,1.0,12,45.0,30.0,3,0.526,0.0,93.85,0.2,1,2018-07-19 15:36:34.000,183,2018-07-19 15:38:06.673,0.25,90,-180,120,30,1
3811,5,0,103.005,0,60,1,0.25,2,9,0.0,1.0,6,45.0,30.0,9,0.301,1.0,104.411,0.2,1,2018-07-19 15:36:34.000,183,2018-07-19 15:38:17.005,0.25,-90,0,-60,-150,1
3812,6,0,127.787,0,60,1,0.25,2,3,0.0,1.0,12,45.0,30.0,3,0.526,0.0,128.829,0.2,1,2018-07-19 15:36:34.000,183,2018-07-19 15:38:41.787,0.25,90,-180,120,30,1
3813,7,0,138.862,0,60,1,0.25,2,3,0.0,1.0,12,45.0,30.0,3,0.301,0.0,139.731,0.2,1,2018-07-19 15:36:34.000,183,2018-07-19 15:38:52.862,0.25,90,-180,120,30,1
3814,8,0,147.67,0,60,1,0.25,2,3,0.0,1.0,12,45.0,30.0,3,0.451,0.0,148.44899999999996,0.2,1,2018-07-19 15:36:34.000,183,2018-07-19 15:39:01.670,0.25,90,-180,120,30,1
3815,9,0,162.783,0,60,1,0.25,2,3,0.0,1.0,12,45.0,30.0,3,0.601,0.0,163.692,0.2,1,2018-07-19 15:36:34.000,183,2018-07-19 15:39:16.783,0.25,90,-180,120,30,1
3816,10,0,173.368,0,60,1,0.25,2,3,0.0,1.0,12,45.0,30.0,3,0.376,0.0,174.25799999999995,0.2,1,2018-07-19 15:36:34.000,183,2018-07-19 15:39:27.368,0.25,90,-180,120,30,1
3866,1,0,40.967,0,120,1,0.25,2,9,0.0,1.0,6,45.0,30.0,9,0.376,1.0,42.16,0.2,1,2018-07-20 09:15:10.000,78,2018-07-20 09:15:50.967,0.25,-90,0,-120,150,1
3867,2,0,52.253,0,120,1,0.25,2,3,0.0,1.0,12,45.0,30.0,3,0.526,0.0,53.13399999999999,0.2,1,2018-07-20 09:15:10.000,78,2018-07-20 09:16:02.253,0.25,90,-180,60,-30,1
3868,3,0,62.049,0,120,1,0.25,2,3,0.0,1.0,12,45.0,30.0,3,0.301,0.0,62.89,0.2,1,2018-07-20 09:15:10.000,78,2018-07-20 09:16:12.049,0.25,90,-180,60,-30,1
3869,4,0,79.497,0,120,1,0.25,2,9,0.0,1.0,6,45.0,30.0,9,0.601,0.0,80.721,0.0,0,2018-07-20 09:15:10.000,78,2018-07-20 09:16:29.497,0.25,90,0,-120,-30,1
3870,6,0,104.665,0,120,1,0.25,2,9,0.0,1.0,6,45.0,30.0,9,0.526,1.0,105.478,0.2,1,2018-07-20 09:15:10.000,78,2018-07-20 09:16:54.665,0.25,-90,0,-120,150,1
3871,7,0,126.697,0,120,1,0.25,2,9,0.0,1.0,6,45.0,30.0,9,0.376,1.0,128.859,0.2,1,2018-07-20 09:15:10.000,78,2018-07-20 09:17:16.697,0.25,-90,0,-120,150,1
3872,8,0,147.343,0,120,1,0.25,2,9,0.0,1.0,6,45.0,30.0,9,0.601,0.0,148.16299999999995,0.0,0,2018-07-20 09:15:10.000,78,2018-07-20 09:17:37.343,0.25,90,0,-120,-30,1
3873,10,0,173.56799999999996,0,120,1,0.25,2,3,0.0,1.0,12,45.0,30.0,3,0.301,0.0,175.116,0.2,1,2018-07-20 09:15:10.000,78,2018-07-20 09:18:03.568,0.25,90,-180,60,-30,1
3874,11,0,183.832,0,120,1,0.25,2,3,0.0,1.0,12,45.0,30.0,3,0.376,0.0,185.203,0.2,1,2018-07-20 09:15:10.000,78,2018-07-20 09:18:13.832,0.25,90,-180,60,-30,1
3875,12,0,203.344,0,120,1,0.25,2,3,0.0,1.0,12,45.0,30.0,3,0.451,0.0,204.805,0.2,1,2018-07-20 09:15:10.000,78,2018-07-20 09:18:33.344,0.25,90,-180,60,-30,1
3921,1,0,89.458,0,90,1,0.25,2,3,0.0,1.0,12,45.0,30.0,3,0.301,0.0,90.372,0.2,1,2018-07-20 15:44:14.000,43,2018-07-20 15:45:43.458,0.25,90,-180,90,0,1
3922,2,0,106.432,0,90,1,0.25,2,3,0.0,1.0,12,45.0,30.0,3,0.376,0.0,107.256,0.2,1,2018-07-20 15:44:14.000,43,2018-07-20 15:46:00.432,0.25,90,-180,90,0,1
3923,3,0,115.849,0,90,1,0.25,2,3,0.0,1.0,12,45.0,30.0,3,0.451,0.0,116.577,0.2,1,2018-07-20 15:44:14.000,43,2018-07-20 15:46:09.849,0.25,90,-180,90,0,1
3924,4,0,127.649,0,90,1,0.25,2,9,0.0,1.0,6,45.0,30.0,9,0.601,1.0,128.748,0.2,1,2018-07-20 15:44:14.000,43,2018-07-20 15:46:21.649,0.25,-90,0,-90,-180,1
3925,5,0,145.05,0,90,1,0.25,2,3,0.0,1.0,12,45.0,30.0,3,0.526,0.0,146.166,0.2,1,2018-07-20 15:44:14.000,43,2018-07-20 15:46:39.050,0.25,90,-180,90,0,1
3926,6,0,155.537,0,90,1,0.25,2,9,0.0,1.0,6,45.0,30.0,9,0.526,1.0,156.702,0.2,1,2018-07-20 15:44:14.000,43,2018-07-20 15:46:49.537,0.25,-90,0,-90,-180,1
3927,7,0,176.00400000000005,0,90,1,0.25,2,9,0.0,1.0,6,45.0,30.0,9,0.451,0.0,177.125,0.0,0,2018-07-20 15:44:14.000,43,2018-07-20 15:47:10.004,0.25,90,0,-90,0,1
3928,10,0,199.507,0,90,1,0.25,2,3,0.0,1.0,12,45.0,30.0,3,0.376,0.0,200.566,0.2,1,2018-07-20 15:44:14.000,43,2018-07-20 15:47:33.507,0.25,90,-180,90,0,1
3929,11,0,211.082,0,90,1,0.25,2,3,0.0,1.0,12,45.0,30.0,3,0.526,0.0,211.97,0.2,1,2018-07-20 15:44:14.000,43,2018-07-20 15:47:45.082,0.25,90,-180,90,0,1
3930,12,0,221.763,0,90,1,0.25,2,9,0.0,1.0,6,45.0,30.0,9,0.301,0.0,222.834,0.0,0,2018-07-20 15:44:14.000,43,2018-07-20 15:47:55.763,0.25,90,0,-90,0,1
3984,1,0,41.732,0,0,1,0.25,2,9,0.0,1.0,6,45.0,30.0,9,0.526,0.0,43.0,0.0,0,2018-07-23 10:00:06.000,115,2018-07-23 10:00:47.732,0.25,90,0,0,90,1
3985,3,0,71.186,0,0,1,0.25,2,3,0.0,1.0,12,45.0,30.0,3,0.301,0.0,72.417,0.2,1,2018-07-23 10:00:06.000,115,2018-07-23 10:01:17.186,0.25,90,-180,-180,90,1
3986,4,0,81.991,0,0,1,0.25,2,9,0.0,1.0,6,45.0,30.0,9,0.376,0.0,83.245,0.0,0,2018-07-23 10:00:06.000,115,2018-07-23 10:01:27.991,0.25,90,0,0,90,1
3987,9,0,133.084,0,0,1,0.25,2,9,0.0,1.0,6,45.0,30.0,9,0.526,1.0,134.923,0.2,1,2018-07-23 10:00:06.000,115,2018-07-23 10:02:19.084,0.25,-90,0,0,-90,1
3988,10,0,153.889,0,0,1,0.25,2,9,0.0,1.0,6,45.0,30.0,9,0.301,1.0,155.685,0.2,1,2018-07-23 10:00:06.000,115,2018-07-23 10:02:39.889,0.25,-90,0,0,-90,1
3989,11,0,174.68099999999995,0,0,1,0.25,2,9,0.0,1.0,6,45.0,30.0,9,0.526,0.0,181.361,0.0,0,2018-07-23 10:00:06.000,115,2018-07-23 10:03:00.681,0.25,90,0,0,90,1
3990,13,0,217.475,0,0,1,0.25,2,3,0.0,1.0,12,45.0,30.0,3,0.301,0.0,218.406,0.2,1,2018-07-23 10:00:06.000,115,2018-07-23 10:03:43.475,0.25,90,-180,-180,90,1
3991,14,0,233.078,0,0,1,0.25,2,3,0.0,1.0,12,45.0,30.0,3,0.601,0.0,233.725,0.2,1,2018-07-23 10:00:06.000,115,2018-07-23 10:03:59.078,0.25,90,-180,-180,90,1
3992,15,0,242.838,0,0,1,0.25,2,3,0.0,1.0,12,45.0,30.0,3,0.451,0.0,243.621,0.2,1,2018-07-23 10:00:06.000,115,2018-07-23 10:04:08.838,0.25,90,-180,-180,90,1
3993,16,0,258.503,0,0,1,0.25,2,3,0.0,1.0,12,45.0,30.0,3,0.526,0.0,259.22700000000003,0.2,1,2018-07-23 10:00:06.000,115,2018-07-23 10:04:24.503,0.25,90,-180,-180,90,1
4060,1,0,42.668,0,60,1,0.25,2,9,0.0,1.0,6,45.0,30.0,9,0.376,0.0,43.527,0.0,0,2018-07-24 09:58:58.000,1,2018-07-24 09:59:40.668,0.25,90,0,-60,30,1
4061,3,0,67.324,0,60,1,0.25,2,3,0.0,1.0,12,45.0,30.0,3,0.451,0.0,68.237,0.2,1,2018-07-24 09:58:58.000,1,2018-07-24 10:00:05.324,0.25,90,-180,120,30,1
4062,4,0,112.733,0,60,1,0.25,2,3,0.0,1.0,12,45.0,30.0,3,0.601,0.0,113.849,0.2,1,2018-07-24 09:58:58.000,1,2018-07-24 10:00:50.733,0.25,90,-180,120,30,1
4063,5,0,133.83100000000002,0,60,1,0.25,2,3,0.0,1.0,12,45.0,30.0,3,0.301,0.0,134.69,0.2,1,2018-07-24 09:58:58.000,1,2018-07-24 10:01:11.831,0.25,90,-180,120,30,1
4064,6,0,156.109,0,60,1,0.25,2,3,0.0,1.0,12,45.0,30.0,3,0.451,0.0,157.127,0.2,1,2018-07-24 09:58:58.000,1,2018-07-24 10:01:34.109,0.25,90,-180,120,30,1
4065,7,0,167.295,0,60,1,0.25,2,3,0.0,1.0,12,45.0,30.0,3,0.601,0.0,168.32,0.2,1,2018-07-24 09:58:58.000,1,2018-07-24 10:01:45.295,0.25,90,-180,120,30,1
4066,8,0,178.202,0,60,1,0.25,2,9,0.0,1.0,6,45.0,30.0,9,0.301,1.0,179.815,0.2,1,2018-07-24 09:58:58.000,1,2018-07-24 10:01:56.202,0.25,-90,0,-60,-150,1
4067,9,0,208.488,0,60,1,0.25,2,9,0.0,1.0,6,45.0,30.0,9,0.526,1.0,210.05,0.2,1,2018-07-24 09:58:58.000,1,2018-07-24 10:02:26.488,0.25,-90,0,-60,-150,1
4068,10,0,227.327,0,60,1,0.25,2,9,0.0,1.0,6,45.0,30.0,9,0.376,1.0,228.788,0.2,1,2018-07-24 09:58:58.000,1,2018-07-24 10:02:45.327,0.25,-90,0,-60,-150,1
4069,11,0,259.724,0,60,1,0.25,2,9,0.0,1.0,6,45.0,30.0,9,0.526,1.0,260.961,0.2,1,2018-07-24 09:58:58.000,1,2018-07-24 10:03:17.724,0.25,-90,0,-60,-150,1
4093,1,0,49.298,0,-150,1,0.25,2,3,0.0,1.0,12,45.0,30.0,3,0.301,0.0,50.607,0.2,1,2018-07-24 15:14:35.000,206,2018-07-24 15:15:24.298,0.25,90,-180,-30,-120,1
4094,2,0,96.064,0,-150,1,0.25,2,9,0.0,1.0,6,45.0,30.0,9,0.526,1.0,97.258,0.2,1,2018-07-24 15:14:35.000,206,2018-07-24 15:16:11.064,0.25,-90,0,150,60,1
4095,3,0,130.04399999999998,0,-150,1,0.25,2,3,0.0,1.0,12,45.0,30.0,3,0.601,0.0,132.488,0.2,1,2018-07-24 15:14:35.000,206,2018-07-24 15:16:45.044,0.25,90,-180,-30,-120,1
4096,4,0,150.207,0,-150,1,0.25,2,3,0.0,1.0,12,45.0,30.0,3,0.376,0.0,151.358,0.2,1,2018-07-24 15:14:35.000,206,2018-07-24 15:17:05.207,0.25,90,-180,-30,-120,1
4097,5,0,169.363,0,-150,1,0.25,2,9,0.0,1.0,6,45.0,30.0,9,0.451,0.0,171.206,0.0,0,2018-07-24 15:14:35.000,206,2018-07-24 15:17:24.363,0.25,90,0,150,-120,1
4098,7,0,226.45,0,-150,1,0.25,2,3,0.0,1.0,12,45.0,30.0,3,0.376,0.0,228.887,0.2,1,2018-07-24 15:14:35.000,206,2018-07-24 15:18:21.450,0.25,90,-180,-30,-120,1
4099,8,0,239.426,0,-150,1,0.25,2,3,0.0,1.0,12,45.0,30.0,3,0.601,0.0,240.578,0.2,1,2018-07-24 15:14:35.000,206,2018-07-24 15:18:34.426,0.25,90,-180,-30,-120,1
4100,9,0,256.317,0,-150,1,0.25,2,9,0.0,1.0,6,45.0,30.0,9,0.301,1.0,257.613,0.2,1,2018-07-24 15:14:35.000,206,2018-07-24 15:18:51.317,0.25,-90,0,150,60,1
4101,10,0,281.496,0,-150,1,0.25,2,3,0.0,1.0,12,45.0,30.0,3,0.451,0.0,283.392,0.2,1,2018-07-24 15:14:35.000,206,2018-07-24 15:19:16.496,0.25,90,-180,-30,-120,1
4102,11,0,296.214,0,-150,1,0.25,2,9,0.0,1.0,6,45.0,30.0,9,0.376,0.0,298.146,0.0,0,2018-07-24 15:14:35.000,206,2018-07-24 15:19:31.214,0.25,90,0,150,-120,1
4175,1,0,94.989,0,120,1,0.25,2,3,0.0,1.0,12,45.0,30.0,3,0.301,0.0,96.189,0.2,1,2018-07-25 15:17:19.000,159,2018-07-25 15:18:53.989,0.25,90,-180,60,-30,1
4176,2,0,169.639,0,120,1,0.25,2,9,0.0,1.0,6,45.0,30.0,9,0.451,1.0,171.517,0.2,1,2018-07-25 15:17:19.000,159,2018-07-25 15:20:08.639,0.25,-90,0,-120,150,1
4177,3,0,197.277,0,120,1,0.25,2,9,0.0,1.0,6,45.0,30.0,9,0.376,0.0,198.557,0.0,0,2018-07-25 15:17:19.000,159,2018-07-25 15:20:36.277,0.25,90,0,-120,-30,1
4178,6,0,317.496,0,120,1,0.25,2,9,0.0,1.0,6,45.0,30.0,9,0.601,0.0,318.539,0.0,0,2018-07-25 15:17:19.000,159,2018-07-25 15:22:36.496,0.25,90,0,-120,-30,1
4179,8,0,455.04,0,120,1,0.25,2,9,0.0,1.0,6,45.0,30.0,9,0.376,1.0,456.025,0.2,1,2018-07-25 15:17:19.000,159,2018-07-25 15:24:54.040,0.25,-90,0,-120,150,1
4180,9,0,485.653,0,120,1,0.25,2,9,0.0,1.0,6,45.0,30.0,9,0.301,1.0,486.609,0.2,1,2018-07-25 15:17:19.000,159,2018-07-25 15:25:24.653,0.25,-90,0,-120,150,1
4181,10,0,520.747,0,120,1,0.25,2,3,0.0,1.0,12,45.0,30.0,3,0.451,0.0,522.24,0.2,1,2018-07-25 15:17:19.000,159,2018-07-25 15:25:59.747,0.25,90,-180,60,-30,1
4182,11,0,593.802,0,120,1,0.25,2,9,0.0,1.0,6,45.0,30.0,9,0.376,1.0,595.192,0.2,1,2018-07-25 15:17:19.000,159,2018-07-25 15:27:12.802,0.25,-90,0,-120,150,1
4183,12,0,620.697,0,120,1,0.25,2,3,0.0,1.0,12,45.0,30.0,3,0.301,0.0,622.067,0.2,1,2018-07-25 15:17:19.000,159,2018-07-25 15:27:39.697,0.25,90,-180,60,-30,1
4184,13,0,673.1439999999999,0,120,1,0.25,2,3,0.0,1.0,12,45.0,30.0,3,0.451,0.0,674.682,0.2,1,2018-07-25 15:17:19.000,159,2018-07-25 15:28:32.144,0.25,90,-180,60,-30,1
4203,1,0,42.09,0,180,1,0.25,2,9,0.0,1.0,6,45.0,30.0,9,0.601,1.0,43.165,0.2,1,2018-07-26 09:29:26.000,94,2018-07-26 09:30:08.090,0.25,-90,0,-180,90,1
4204,2,0,57.06,0,180,1,0.25,2,3,0.0,1.0,12,45.0,30.0,3,0.451,0.0,57.878,0.2,1,2018-07-26 09:29:26.000,94,2018-07-26 09:30:23.060,0.25,90,-180,0,-90,1
4205,3,0,65.836,0,180,1,0.25,2,3,0.0,1.0,12,45.0,30.0,3,0.526,0.0,66.712,0.2,1,2018-07-26 09:29:26.000,94,2018-07-26 09:30:31.836,0.25,90,-180,0,-90,1
4206,4,0,76.566,0,180,1,0.25,2,9,0.0,1.0,6,45.0,30.0,9,0.301,1.0,77.36,0.2,1,2018-07-26 09:29:26.000,94,2018-07-26 09:30:42.566,0.25,-90,0,-180,90,1
4207,5,0,90.859,0,180,1,0.25,2,3,0.0,1.0,12,45.0,30.0,3,0.376,0.0,91.767,0.2,1,2018-07-26 09:29:26.000,94,2018-07-26 09:30:56.859,0.25,90,-180,0,-90,1
4208,6,0,100.077,0,180,1,0.25,2,3,0.0,1.0,12,45.0,30.0,3,0.376,0.0,101.076,0.2,1,2018-07-26 09:29:26.000,94,2018-07-26 09:31:06.077,0.25,90,-180,0,-90,1
4209,7,0,109.003,0,180,1,0.25,2,3,0.0,1.0,12,45.0,30.0,3,0.301,0.0,110.172,0.2,1,2018-07-26 09:29:26.000,94,2018-07-26 09:31:15.003,0.25,90,-180,0,-90,1
4210,8,0,121.752,0,180,1,0.25,2,3,0.0,1.0,12,45.0,30.0,3,0.526,0.0,122.503,0.2,1,2018-07-26 09:29:26.000,94,2018-07-26 09:31:27.752,0.25,90,-180,0,-90,1
4211,9,0,131.377,0,180,1,0.25,2,3,0.0,1.0,12,45.0,30.0,3,0.601,0.0,132.236,0.2,1,2018-07-26 09:29:26.000,94,2018-07-26 09:31:37.377,0.25,90,-180,0,-90,1
4212,10,0,140.671,0,180,1,0.25,2,3,0.0,1.0,12,45.0,30.0,3,0.451,0.0,141.534,0.2,1,2018-07-26 09:29:26.000,94,2018-07-26 09:31:46.671,0.25,90,-180,0,-90,1
4259,1,0,73.476,0,-120,1,0.25,2,3,0.0,1.0,12,45.0,30.0,3,0.301,0.0,74.366,0.2,1,2018-07-26 15:50:09.000,192,2018-07-26 15:51:22.476,0.25,90,-180,-60,-150,1
4260,2,0,114.587,0,-120,1,0.25,2,3,0.0,1.0,12,45.0,30.0,3,0.451,0.0,115.385,0.2,1,2018-07-26 15:50:09.000,192,2018-07-26 15:52:03.587,0.25,90,-180,-60,-150,1
4261,3,0,124.767,0,-120,1,0.25,2,9,0.0,1.0,6,45.0,30.0,9,0.526,0.0,125.246,0.0,0,2018-07-26 15:50:09.000,192,2018-07-26 15:52:13.767,0.25,90,0,120,-150,1
4262,5,0,149.02100000000004,0,-120,1,0.25,2,9,0.0,1.0,6,45.0,30.0,9,0.601,1.0,150.267,0.2,1,2018-07-26 15:50:09.000,192,2018-07-26 15:52:38.021,0.25,-90,0,120,30,1
4263,6,0,168.84400000000005,0,-120,1,0.25,2,9,0.0,1.0,6,45.0,30.0,9,0.376,1.0,170.68400000000003,0.2,1,2018-07-26 15:50:09.000,192,2018-07-26 15:52:57.844,0.25,-90,0,120,30,1
4264,7,0,191.135,0,-120,1,0.25,2,9,0.0,1.0,6,45.0,30.0,9,0.451,1.0,192.263,0.2,1,2018-07-26 15:50:09.000,192,2018-07-26 15:53:20.135,0.25,-90,0,120,30,1
4265,8,0,219.201,0,-120,1,0.25,2,3,0.0,1.0,12,45.0,30.0,3,0.601,0.0,220.112,0.2,1,2018-07-26 15:50:09.000,192,2018-07-26 15:53:48.201,0.25,90,-180,-60,-150,1
4266,9,0,233.583,0,-120,1,0.25,2,9,0.0,1.0,6,45.0,30.0,9,0.301,1.0,235.337,0.2,1,2018-07-26 15:50:09.000,192,2018-07-26 15:54:02.583,0.25,-90,0,120,30,1
4267,10,0,256.509,0,-120,1,0.25,2,3,0.0,1.0,12,45.0,30.0,3,0.526,0.0,257.339,0.2,1,2018-07-26 15:50:09.000,192,2018-07-26 15:54:25.509,0.25,90,-180,-60,-150,1
4268,11,0,268.611,0,-120,1,0.25,2,9,0.0,1.0,6,45.0,30.0,9,0.601,1.0,269.818,0.2,1,2018-07-26 15:50:09.000,192,2018-07-26 15:54:37.611,0.25,-90,0,120,30,1
4315,1,0,42.378,0,-90,1,0.25,2,3,0.0,1.0,12,45.0,30.0,3,0.526,0.0,43.37300000000001,0.2,1,2018-07-27 10:31:14.000,165,2018-07-27 10:31:56.378,0.25,90,-180,-90,-180,1
4316,2,0,86.506,0,-90,1,0.25,2,9,0.0,1.0,6,45.0,30.0,9,0.601,1.0,88.12899999999998,0.2,1,2018-07-27 10:31:14.000,165,2018-07-27 10:32:40.506,0.25,-90,0,90,0,1
4317,3,0,112.823,0,-90,1,0.25,2,9,0.0,1.0,6,45.0,30.0,9,0.376,0.0,114.554,0.0,0,2018-07-27 10:31:14.000,165,2018-07-27 10:33:06.823,0.25,90,0,90,-180,1
4318,5,0,133.393,0,-90,1,0.25,2,3,0.0,1.0,12,45.0,30.0,3,0.301,0.0,134.565,0.2,1,2018-07-27 10:31:14.000,165,2018-07-27 10:33:27.393,0.25,90,-180,-90,-180,1
4319,6,0,180.567,0,-90,1,0.25,2,9,0.0,1.0,6,45.0,30.0,9,0.526,1.0,182.65,0.2,1,2018-07-27 10:31:14.000,165,2018-07-27 10:34:14.567,0.25,-90,0,90,0,1
4320,7,0,203.95,0,-90,1,0.25,2,3,0.0,1.0,12,45.0,30.0,3,0.301,0.0,205.078,0.2,1,2018-07-27 10:31:14.000,165,2018-07-27 10:34:37.950,0.25,90,-180,-90,-180,1
4321,8,0,227.132,0,-90,1,0.25,2,9,0.0,1.0,6,45.0,30.0,9,0.376,1.0,228.19,0.2,1,2018-07-27 10:31:14.000,165,2018-07-27 10:35:01.132,0.25,-90,0,90,0,1
4322,9,0,268.64,0,-90,1,0.25,2,3,0.0,1.0,12,45.0,30.0,3,0.601,0.0,269.853,0.2,1,2018-07-27 10:31:14.000,165,2018-07-27 10:35:42.640,0.25,90,-180,-90,-180,1
4323,10,0,283.889,0,-90,1,0.25,2,3,0.0,1.0,12,45.0,30.0,3,0.451,0.0,285.023,0.2,1,2018-07-27 10:31:14.000,165,2018-07-27 10:35:57.889,0.25,90,-180,-90,-180,1
4324,11,0,298.129,0,-90,1,0.25,2,9,0.0,1.0,6,45.0,30.0,9,0.526,1.0,300.1090000000001,0.2,1,2018-07-27 10:31:14.000,165,2018-07-27 10:36:12.129,0.25,-90,0,90,0,1
4378,1,0,129.531,0,180,1,0.25,2,9,0.0,1.0,6,45.0,30.0,9,0.376,1.0,130.579,0.2,1,2018-07-27 16:39:09.000,39,2018-07-27 16:41:18.531,0.25,-90,0,-180,90,1
4379,2,0,148.086,0,180,1,0.25,2,9,0.0,1.0,6,45.0,30.0,9,0.526,1.0,149.357,0.2,1,2018-07-27 16:39:09.000,39,2018-07-27 16:41:37.086,0.25,-90,0,-180,90,1
4380,3,0,161.738,0,180,1,0.25,2,3,0.0,1.0,12,45.0,30.0,3,0.451,0.0,162.78799999999995,0.2,1,2018-07-27 16:39:09.000,39,2018-07-27 16:41:50.738,0.25,90,-180,0,-90,1
4381,4,0,173.165,0,180,1,0.25,2,3,0.0,1.0,12,45.0,30.0,3,0.301,0.0,174.02599999999995,0.2,1,2018-07-27 16:39:09.000,39,2018-07-27 16:42:02.165,0.25,90,-180,0,-90,1
4382,5,0,183.792,0,180,1,0.25,2,3,0.0,1.0,12,45.0,30.0,3,0.601,0.0,184.357,0.2,1,2018-07-27 16:39:09.000,39,2018-07-27 16:42:12.792,0.25,90,-180,0,-90,1
4383,6,0,205.177,0,180,1,0.25,2,3,0.0,1.0,12,45.0,30.0,3,0.601,0.0,206.141,0.2,1,2018-07-27 16:39:09.000,39,2018-07-27 16:42:34.177,0.25,90,-180,0,-90,1
4384,7,0,215.352,0,180,1,0.25,2,3,0.0,1.0,12,45.0,30.0,3,0.526,0.0,216.087,0.2,1,2018-07-27 16:39:09.000,39,2018-07-27 16:42:44.352,0.25,90,-180,0,-90,1
4385,8,0,225.852,0,180,1,0.25,2,3,0.0,1.0,12,45.0,30.0,3,0.301,0.0,227.018,0.2,1,2018-07-27 16:39:09.000,39,2018-07-27 16:42:54.852,0.25,90,-180,0,-90,1
4386,9,0,235.577,0,180,1,0.25,2,9,0.0,1.0,6,45.0,30.0,9,0.451,0.0,236.408,0.0,0,2018-07-27 16:39:09.000,39,2018-07-27 16:43:04.577,0.25,90,0,-180,-90,1
4387,11,0,253.358,0,180,1,0.25,2,3,0.0,1.0,12,45.0,30.0,3,0.451,0.0,254.187,0.2,1,2018-07-27 16:39:09.000,39,2018-07-27 16:43:22.358,0.25,90,-180,0,-90,1
4444,1,0,24.864,0,0,1,0.25,2,3,0.0,1.0,12,45.0,30.0,3,0.376,0.0,25.715,0.2,1,2018-07-30 09:45:28.000,20,2018-07-30 09:45:52.864,0.25,90,-180,-180,90,1
4445,2,0,35.431,0,0,1,0.25,2,9,0.0,1.0,6,45.0,30.0,9,0.451,1.0,36.707,0.2,1,2018-07-30 09:45:28.000,20,2018-07-30 09:46:03.431,0.25,-90,0,0,-90,1
4446,3,0,70.47,0,0,1,0.25,2,9,0.0,1.0,6,45.0,30.0,9,0.601,1.0,71.69800000000002,0.2,1,2018-07-30 09:45:28.000,20,2018-07-30 09:46:38.470,0.25,-90,0,0,-90,1
4447,4,0,106.536,0,0,1,0.25,2,3,0.0,1.0,12,45.0,30.0,3,0.301,0.0,108.001,0.2,1,2018-07-30 09:45:28.000,20,2018-07-30 09:47:14.536,0.25,90,-180,-180,90,1
4448,5,0,136.649,0,0,1,0.25,2,9,0.0,1.0,6,45.0,30.0,9,0.526,1.0,137.817,0.2,1,2018-07-30 09:45:28.000,20,2018-07-30 09:47:44.649,0.25,-90,0,0,-90,1
4449,6,0,188.335,0,0,1,0.25,2,3,0.0,1.0,12,45.0,30.0,3,0.451,0.0,189.304,0.2,1,2018-07-30 09:45:28.000,20,2018-07-30 09:48:36.335,0.25,90,-180,-180,90,1
4450,7,0,204.599,0,0,1,0.25,2,9,0.0,1.0,6,45.0,30.0,9,0.376,1.0,205.653,0.2,1,2018-07-30 09:45:28.000,20,2018-07-30 09:48:52.599,0.25,-90,0,0,-90,1
4451,8,0,224.774,0,0,1,0.25,2,9,0.0,1.0,6,45.0,30.0,9,0.601,1.0,225.98,0.2,1,2018-07-30 09:45:28.000,20,2018-07-30 09:49:12.774,0.25,-90,0,0,-90,1
4452,9,0,279.506,0,0,1,0.25,2,3,0.0,1.0,12,45.0,30.0,3,0.301,0.0,280.675,0.2,1,2018-07-30 09:45:28.000,20,2018-07-30 09:50:07.506,0.25,90,-180,-180,90,1
4453,10,0,310.084,0,0,1,0.25,2,3,0.0,1.0,12,45.0,30.0,3,0.526,0.0,311.183,0.2,1,2018-07-30 09:45:28.000,20,2018-07-30 09:50:38.084,0.25,90,-180,-180,90,1
4586,1,0,75.169,0,150,1,0.25,2,3,0.0,1.0,12,45.0,30.0,3,0.601,0.0,76.633,0.2,1,2018-08-01 10:07:27.000,107,2018-08-01 10:08:42.169,0.25,90,-180,30,-60,1
4587,2,0,99.113,0,150,1,0.25,2,3,0.0,1.0,12,45.0,30.0,3,0.376,0.0,100.545,0.2,1,2018-08-01 10:07:27.000,107,2018-08-01 10:09:06.113,0.25,90,-180,30,-60,1
4588,3,0,108.269,0,150,1,0.25,2,9,0.0,1.0,6,45.0,30.0,9,0.526,1.0,109.856,0.2,1,2018-08-01 10:07:27.000,107,2018-08-01 10:09:15.269,0.25,-90,0,-150,120,1
4589,4,0,172.43400000000003,0,150,1,0.25,2,3,0.0,1.0,12,45.0,30.0,3,0.451,0.0,174.97799999999995,0.2,1,2018-08-01 10:07:27.000,107,2018-08-01 10:10:19.434,0.25,90,-180,30,-60,1
4590,5,0,206.805,0,150,1,0.25,2,3,0.0,1.0,12,45.0,30.0,3,0.301,0.0,208.284,0.2,1,2018-08-01 10:07:27.000,107,2018-08-01 10:10:53.805,0.25,90,-180,30,-60,1
4591,6,0,214.633,0,150,1,0.25,2,9,0.0,1.0,6,45.0,30.0,9,0.601,1.0,217.013,0.2,1,2018-08-01 10:07:27.000,107,2018-08-01 10:11:01.633,0.25,-90,0,-150,120,1
4592,7,0,275.504,0,150,1,0.25,2,3,0.0,1.0,12,45.0,30.0,3,0.451,0.0,279.089,0.2,1,2018-08-01 10:07:27.000,107,2018-08-01 10:12:02.504,0.25,90,-180,30,-60,1
4593,8,0,328.329,0,150,1,0.25,2,3,0.0,1.0,12,45.0,30.0,3,0.376,1.0,329.704,0.0,0,2018-08-01 10:07:27.000,107,2018-08-01 10:12:55.329,0.25,-90,-180,30,120,1
4594,10,0,401.24300000000005,0,150,1,0.25,2,3,0.0,1.0,12,45.0,30.0,3,0.301,0.0,402.939,0.2,1,2018-08-01 10:07:27.000,107,2018-08-01 10:14:08.243,0.25,90,-180,30,-60,1
4595,11,0,433.049,0,150,1,0.25,2,9,0.0,1.0,6,45.0,30.0,9,0.601,1.0,434.158,0.2,1,2018-08-01 10:07:27.000,107,2018-08-01 10:14:40.049,0.25,-90,0,-150,120,1
4652,1,0,56.21100000000001,0,-60,1,0.25,2,9,0.0,1.0,6,45.0,30.0,9,0.451,1.0,58.179,0.2,1,2018-08-01 15:33:02.000,118,2018-08-01 15:33:58.211,0.25,-90,0,60,-30,1
4653,2,0,71.718,0,-60,1,0.25,2,9,0.0,1.0,6,45.0,30.0,9,0.526,1.0,72.959,0.2,1,2018-08-01 15:33:02.000,118,2018-08-01 15:34:13.718,0.25,-90,0,60,-30,1
4654,3,0,105.152,0,-60,1,0.25,2,3,0.0,1.0,12,45.0,30.0,3,0.301,0.0,106.246,0.2,1,2018-08-01 15:33:02.000,118,2018-08-01 15:34:47.152,0.25,90,-180,-120,150,1
4655,4,0,118.731,0,-60,1,0.25,2,9,0.0,1.0,6,45.0,30.0,9,0.376,1.0,120.125,0.2,1,2018-08-01 15:33:02.000,118,2018-08-01 15:35:00.731,0.25,-90,0,60,-30,1
4656,5,0,139.559,0,-60,1,0.25,2,3,0.0,1.0,12,45.0,30.0,3,0.601,0.0,140.709,0.2,1,2018-08-01 15:33:02.000,118,2018-08-01 15:35:21.559,0.25,90,-180,-120,150,1
4657,6,0,150.498,0,-60,1,0.25,2,9,0.0,1.0,6,45.0,30.0,9,0.526,1.0,151.952,0.2,1,2018-08-01 15:33:02.000,118,2018-08-01 15:35:32.498,0.25,-90,0,60,-30,1
4658,7,0,173.503,0,-60,1,0.25,2,3,0.0,1.0,12,45.0,30.0,3,0.601,0.0,174.882,0.2,1,2018-08-01 15:33:02.000,118,2018-08-01 15:35:55.503,0.25,90,-180,-120,150,1
4659,8,0,212.057,0,-60,1,0.25,2,9,0.0,1.0,6,45.0,30.0,9,0.451,1.0,213.729,0.2,1,2018-08-01 15:33:02.000,118,2018-08-01 15:36:34.057,0.25,-90,0,60,-30,1
4660,9,0,234.136,0,-60,1,0.25,2,9,0.0,1.0,6,45.0,30.0,9,0.376,1.0,235.837,0.2,1,2018-08-01 15:33:02.000,118,2018-08-01 15:36:56.136,0.25,-90,0,60,-30,1
4661,10,0,248.857,0,-60,1,0.25,2,9,0.0,1.0,6,45.0,30.0,9,0.301,1.0,250.32,0.2,1,2018-08-01 15:33:02.000,118,2018-08-01 15:37:10.857,0.25,-90,0,60,-30,1
4703,1,0,49.101000000000006,0,-120,1,0.25,2,9,0.0,1.0,6,45.0,30.0,9,0.451,1.0,50.466,0.2,1,2018-08-02 09:05:16.000,142,2018-08-02 09:06:05.101,0.25,-90,0,120,30,1
4704,2,0,65.36,0,-120,1,0.25,2,3,0.0,1.0,12,45.0,30.0,3,0.376,0.0,66.546,0.2,1,2018-08-02 09:05:16.000,142,2018-08-02 09:06:21.360,0.25,90,-180,-60,-150,1
4705,3,0,82.445,0,-120,1,0.25,2,3,0.0,1.0,12,45.0,30.0,3,0.601,0.0,83.60799999999998,0.2,1,2018-08-02 09:05:16.000,142,2018-08-02 09:06:38.445,0.25,90,-180,-60,-150,1
4706,4,0,94.924,0,-120,1,0.25,2,9,0.0,1.0,6,45.0,30.0,9,0.526,0.0,96.464,0.0,0,2018-08-02 09:05:16.000,142,2018-08-02 09:06:50.924,0.25,90,0,120,-150,1
4707,6,0,120.945,0,-120,1,0.25,2,3,0.0,1.0,12,45.0,30.0,3,0.451,0.0,122.004,0.2,1,2018-08-02 09:05:16.000,142,2018-08-02 09:07:16.945,0.25,90,-180,-60,-150,1
4708,7,0,134.976,0,-120,1,0.25,2,9,0.0,1.0,6,45.0,30.0,9,0.526,1.0,136.16899999999998,0.2,1,2018-08-02 09:05:16.000,142,2018-08-02 09:07:30.976,0.25,-90,0,120,30,1
4709,8,0,154.708,0,-120,1,0.25,2,3,0.0,1.0,12,45.0,30.0,3,0.376,0.0,155.422,0.2,1,2018-08-02 09:05:16.000,142,2018-08-02 09:07:50.708,0.25,90,-180,-60,-150,1
4710,9,0,167.604,0,-120,1,0.25,2,9,0.0,1.0,6,45.0,30.0,9,0.301,1.0,169.233,0.2,1,2018-08-02 09:05:16.000,142,2018-08-02 09:08:03.604,0.25,-90,0,120,30,1
4711,10,0,184.516,0,-120,1,0.25,2,9,0.0,1.0,6,45.0,30.0,9,0.601,1.0,185.687,0.2,1,2018-08-02 09:05:16.000,142,2018-08-02 09:08:20.516,0.25,-90,0,120,30,1
4712,11,0,207.209,0,-120,1,0.25,2,9,0.0,1.0,6,45.0,30.0,9,0.301,1.0,208.49,0.2,1,2018-08-02 09:05:16.000,142,2018-08-02 09:08:43.209,0.25,-90,0,120,30,1
4737,1,0,35.56,0,90,1,0.25,2,3,0.0,1.0,12,45.0,30.0,3,0.526,0.0,36.738,0.2,1,2018-08-02 14:34:08.000,207,2018-08-02 14:34:43.560,0.25,90,-180,90,0,1
4738,2,0,45.755,0,90,1,0.25,2,9,0.0,1.0,6,45.0,30.0,9,0.301,1.0,47.21100000000001,0.2,1,2018-08-02 14:34:08.000,207,2018-08-02 14:34:53.755,0.25,-90,0,-90,-180,1
4739,3,0,65.06,0,90,1,0.25,2,9,0.0,1.0,6,45.0,30.0,9,0.601,1.0,66.646,0.2,1,2018-08-02 14:34:08.000,207,2018-08-02 14:35:13.060,0.25,-90,0,-90,-180,1
4740,4,0,97.517,0,90,1,0.25,2,3,0.0,1.0,12,45.0,30.0,3,0.376,0.0,98.482,0.2,1,2018-08-02 14:34:08.000,207,2018-08-02 14:35:45.517,0.25,90,-180,90,0,1
4741,5,0,108.349,0,90,1,0.25,2,9,0.0,1.0,6,45.0,30.0,9,0.451,1.0,114.19,0.2,1,2018-08-02 14:34:08.000,207,2018-08-02 14:35:56.349,0.25,-90,0,-90,-180,1
4742,6,0,137.565,0,90,1,0.25,2,9,0.0,1.0,6,45.0,30.0,9,0.376,0.0,139.195,0.0,0,2018-08-02 14:34:08.000,207,2018-08-02 14:36:25.565,0.25,90,0,-90,0,1
4743,8,0,180.473,0,90,1,0.25,2,9,0.0,1.0,6,45.0,30.0,9,0.451,0.0,181.747,0.0,0,2018-08-02 14:34:08.000,207,2018-08-02 14:37:08.473,0.25,90,0,-90,0,1
4744,10,0,212.198,0,90,1,0.25,2,9,0.0,1.0,6,45.0,30.0,9,0.526,0.0,214.099,0.0,0,2018-08-02 14:34:08.000,207,2018-08-02 14:37:40.198,0.25,90,0,-90,0,1
4745,12,0,241.242,0,90,1,0.25,2,3,0.0,1.0,12,45.0,30.0,3,0.601,0.0,242.447,0.2,1,2018-08-02 14:34:08.000,207,2018-08-02 14:38:09.242,0.25,90,-180,90,0,1
4746,13,0,260.108,0,90,1,0.25,2,9,0.0,1.0,6,45.0,30.0,9,0.376,0.0,261.66700000000003,0.0,0,2018-08-02 14:34:08.000,207,2018-08-02 14:38:28.108,0.25,90,0,-90,0,1
4789,1,0,44.849,0,30,1,0.25,2,9,0.0,1.0,6,45.0,30.0,9,0.526,0.0,46.07899999999999,0.0,0,2018-08-03 09:38:46.000,59,2018-08-03 09:39:30.849,0.25,90,0,-30,60,1
4790,3,0,56.351000000000006,0,30,1,0.25,2,3,0.0,1.0,12,45.0,30.0,3,0.601,0.0,57.187,0.2,1,2018-08-03 09:38:46.000,59,2018-08-03 09:39:42.351,0.25,90,-180,150,60,1
4791,4,0,65.601,0,30,1,0.25,2,3,0.0,1.0,12,45.0,30.0,3,0.301,0.0,66.492,0.2,1,2018-08-03 09:38:46.000,59,2018-08-03 09:39:51.601,0.25,90,-180,150,60,1
