,Trial,CorrectionTrial,StartTime,CenterReward,CenterSpoutRotation,nStimReps,Duration,Modality,LED Location,LED_trial_V,LED_bgnd_V,Speaker Location,Speaker_trial_V,Speaker_bgnd_V,TargetSpout,HoldTime,Response,RespTime,ValveTime,Correct,SessionDate,SessionID,StartDateTime,StimulusTotalDuration,response_angle_world,speaker_angle_world,speaker_angle_platform,response_angle_platform,not_probe
185,71,0,2195.38,0,60,1,0.25,2,9,0.0,1.0,6,45.0,30.0,9,0.5660000000000001,1.0,2197.77,0.22,1,2018-03-15 15:55:38.000,64,2018-03-15 16:32:13.380,0.25,-90,0,-60,-150,1
186,72,0,2213.837,0,60,1,0.25,2,3,0.0,1.0,12,45.0,30.0,3,1.061,0.0,2215.127,0.18,1,2018-03-15 15:55:38.000,64,2018-03-15 16:32:31.837,0.25,90,-180,120,30,1
187,73,0,2223.032,0,60,1,0.25,2,9,0.0,1.0,6,45.0,30.0,9,0.401,1.0,2229.17,0.22,1,2018-03-15 15:55:38.000,64,2018-03-15 16:32:41.032,0.25,-90,0,-60,-150,1
188,74,0,2254.608,0,60,1,0.25,2,3,0.0,1.0,12,45.0,30.0,3,0.8959999999999999,0.0,2256.092,0.18,1,2018-03-15 15:55:38.000,64,2018-03-15 16:33:12.608,0.25,90,-180,120,30,1
189,75,0,2267.837,0,60,1,0.25,2,3,0.0,1.0,12,45.0,30.0,3,0.731,0.0,2270.416,0.18,1,2018-03-15 15:55:38.000,64,2018-03-15 16:33:25.837,0.25,90,-180,120,30,1
190,76,0,2284.62,0,60,1,0.25,2,3,0.0,1.0,12,45.0,30.0,3,1.061,0.0,2285.911,0.18,1,2018-03-15 15:55:38.000,64,2018-03-15 16:33:42.620,0.25,90,-180,120,30,1
191,77,0,2296.784,0,60,1,0.25,2,3,0.0,1.0,12,45.0,30.0,3,0.8959999999999999,0.0,2298.411,0.18,1,2018-03-15 15:55:38.000,64,2018-03-15 16:33:54.784,0.25,90,-180,120,30,1
192,78,0,2310.203,0,60,1,0.25,2,9,0.0,1.0,6,45.0,30.0,9,0.731,0.0,2313.53,0.0,0,2018-03-15 15:55:38.000,64,2018-03-15 16:34:08.203,0.25,90,0,-60,30,1
193,80,0,2331.97,0,60,1,0.25,2,3,0.0,1.0,12,45.0,30.0,3,0.5660000000000001,0.0,2333.208,0.18,1,2018-03-15 15:55:38.000,64,2018-03-15 16:34:29.970,0.25,90,-180,120,30,1
194,81,0,2342.638,0,60,1,0.25,2,9,0.0,1.0,6,45.0,30.0,9,0.5660000000000001,0.0,2344.024,0.0,0,2018-03-15 15:55:38.000,64,2018-03-15 16:34:40.638,0.25,90,0,-60,30,1
235,60,0,1466.4879999999996,0,0,1,0.25,2,3,0.0,1.0,12,45.0,30.0,3,0.731,0.0,1467.809,0.2,1,2018-03-16 10:35:14.000,173,2018-03-16 10:59:40.488,0.25,90,-180,-180,90,1
236,61,0,1485.464,0,0,1,0.25,2,9,0.0,1.0,6,45.0,30.0,9,0.5660000000000001,0.0,1487.335,0.0,0,2018-03-16 10:35:14.000,173,2018-03-16 10:59:59.464,0.25,90,0,0,90,1
237,64,0,1526.684,0,0,1,0.25,2,9,0.0,1.0,6,45.0,30.0,9,1.061,0.0,1527.787,0.0,0,2018-03-16 10:35:14.000,173,2018-03-16 11:00:40.684,0.25,90,0,0,90,1
238,66,0,1552.878,0,0,1,0.25,2,9,0.0,1.0,6,45.0,30.0,9,0.5660000000000001,1.0,1561.3,0.2,1,2018-03-16 10:35:14.000,173,2018-03-16 11:01:06.878,0.25,-90,0,0,-90,1
239,67,0,1579.187,0,0,1,0.25,2,9,0.0,1.0,6,45.0,30.0,9,0.401,0.0,1580.553,0.0,0,2018-03-16 10:35:14.000,173,2018-03-16 11:01:33.187,0.25,90,0,0,90,1
240,70,0,1790.4620000000002,0,0,1,0.25,2,3,0.0,1.0,12,45.0,30.0,3,0.731,0.0,1792.112,0.2,1,2018-03-16 10:35:14.000,173,2018-03-16 11:05:04.462,0.25,90,-180,-180,90,1
241,71,0,1809.857,0,0,1,0.25,2,3,0.0,1.0,12,45.0,30.0,3,0.5660000000000001,0.0,1811.005,0.2,1,2018-03-16 10:35:14.000,173,2018-03-16 11:05:23.857,0.25,90,-180,-180,90,1
242,72,0,1839.783,0,0,1,0.25,2,9,0.0,1.0,6,45.0,30.0,9,0.401,0.0,1842.051,0.0,0,2018-03-16 10:35:14.000,173,2018-03-16 11:05:53.783,0.25,90,0,0,90,1
243,74,0,1867.972,0,0,1,0.25,2,3,0.0,1.0,12,45.0,30.0,3,0.8959999999999999,0.0,1876.762,0.2,1,2018-03-16 10:35:14.000,173,2018-03-16 11:06:21.972,0.25,90,-180,-180,90,1
244,75,0,1891.836,0,0,1,0.25,2,9,0.0,1.0,6,45.0,30.0,9,0.731,0.0,1893.573,0.0,0,2018-03-16 10:35:14.000,173,2018-03-16 11:06:45.836,0.25,90,0,0,90,1
355,54,0,1276.4260000000004,0,150,1,0.25,2,3,0.0,1.0,12,45.0,30.0,3,1.061,1.0,1279.107,0.0,0,2018-03-26 15:03:49.000,211,2018-03-26 15:25:05.426,0.25,-90,-180,30,120,1
356,57,0,1335.339,0,150,1,0.25,2,9,0.0,1.0,6,45.0,30.0,9,0.8959999999999999,1.0,1337.216,0.2,1,2018-03-26 15:03:49.000,211,2018-03-26 15:26:04.339,0.25,-90,0,-150,120,1
357,58,0,1354.015,0,150,1,0.25,2,3,0.0,1.0,12,45.0,30.0,3,0.731,0.0,1358.8970000000004,0.2,1,2018-03-26 15:03:49.000,211,2018-03-26 15:26:23.015,0.25,90,-180,30,-60,1
358,59,0,1370.741,0,150,1,0.25,2,9,0.0,1.0,6,45.0,30.0,9,0.5660000000000001,0.0,1378.338,0.0,0,2018-03-26 15:03:49.000,211,2018-03-26 15:26:39.741,0.25,90,0,-150,-60,1
359,61,0,1422.944,0,150,1,0.25,2,3,0.0,1.0,12,45.0,30.0,3,0.8959999999999999,0.0,1426.402,0.2,1,2018-03-26 15:03:49.000,211,2018-03-26 15:27:31.944,0.25,90,-180,30,-60,1
360,62,0,1436.0839999999996,0,150,1,0.25,2,9,0.0,1.0,6,45.0,30.0,9,0.401,1.0,1437.692,0.2,1,2018-03-26 15:03:49.000,211,2018-03-26 15:27:45.084,0.25,-90,0,-150,120,1
361,63,0,1448.389,0,150,1,0.25,2,3,0.0,1.0,12,45.0,30.0,3,0.5660000000000001,0.0,1450.692,0.2,1,2018-03-26 15:03:49.000,211,2018-03-26 15:27:57.389,0.25,90,-180,30,-60,1
362,64,0,1462.529,0,150,1,0.25,2,9,0.0,1.0,6,45.0,30.0,9,1.061,1.0,1464.203,0.2,1,2018-03-26 15:03:49.000,211,2018-03-26 15:28:11.529,0.25,-90,0,-150,120,1
363,65,0,1492.0970000000002,0,150,1,0.25,2,9,0.0,1.0,6,45.0,30.0,9,0.731,0.0,1497.12,0.0,0,2018-03-26 15:03:49.000,211,2018-03-26 15:28:41.097,0.25,90,0,-150,-60,1
364,68,0,1556.1270000000004,0,150,1,0.25,2,9,0.0,1.0,6,45.0,30.0,9,0.5660000000000001,0.0,1560.1989999999996,0.0,0,2018-03-26 15:03:49.000,211,2018-03-26 15:29:45.127,0.25,90,0,-150,-60,1
393,37,0,983.269,0,0,1,0.25,2,3,0.0,1.0,12,45.0,30.0,3,0.731,0.0,984.605,0.2,1,2018-03-28 09:21:33.000,14,2018-03-28 09:37:56.269,0.25,90,-180,-180,90,1
394,38,0,1003.379,0,0,1,0.25,2,3,0.0,1.0,12,45.0,30.0,3,0.5660000000000001,0.0,1005.179,0.2,1,2018-03-28 09:21:33.000,14,2018-03-28 09:38:16.379,0.25,90,-180,-180,90,1
395,39,0,1028.109,0,0,1,0.25,2,9,0.0,1.0,6,45.0,30.0,9,0.401,1.0,1033.026,0.2,1,2018-03-28 09:21:33.000,14,2018-03-28 09:38:41.109,0.25,-90,0,0,-90,1
396,40,0,1052.07,0,0,1,0.25,2,9,0.0,1.0,6,45.0,30.0,9,1.061,1.0,1060.374,0.2,1,2018-03-28 09:21:33.000,14,2018-03-28 09:39:05.070,0.25,-90,0,0,-90,1
397,41,0,1080.677,0,0,1,0.25,2,9,0.0,1.0,6,45.0,30.0,9,0.5660000000000001,1.0,1086.59,0.2,1,2018-03-28 09:21:33.000,14,2018-03-28 09:39:33.677,0.25,-90,0,0,-90,1
398,42,0,1102.816,0,0,1,0.25,2,3,0.0,1.0,12,45.0,30.0,3,0.731,1.0,1110.306,0.0,0,2018-03-28 09:21:33.000,14,2018-03-28 09:39:55.816,0.25,-90,-180,-180,-90,1
399,44,0,1142.835,0,0,1,0.25,2,3,0.0,1.0,12,45.0,30.0,3,0.401,1.0,1144.822,0.0,0,2018-03-28 09:21:33.000,14,2018-03-28 09:40:35.835,0.25,-90,-180,-180,-90,1
400,46,0,1199.861,0,0,1,0.25,2,3,0.0,1.0,12,45.0,30.0,3,0.401,0.0,1201.121,0.2,1,2018-03-28 09:21:33.000,14,2018-03-28 09:41:32.861,0.25,90,-180,-180,90,1
401,47,0,1216.732,0,0,1,0.25,2,3,0.0,1.0,12,45.0,30.0,3,0.5660000000000001,0.0,1218.294,0.2,1,2018-03-28 09:21:33.000,14,2018-03-28 09:41:49.732,0.25,90,-180,-180,90,1
402,48,0,1228.5839999999996,0,0,1,0.25,2,9,0.0,1.0,6,45.0,30.0,9,0.731,0.0,1229.664,0.0,0,2018-03-28 09:21:33.000,14,2018-03-28 09:42:01.584,0.25,90,0,0,90,1
1009,32,0,776.488,0,-90,1,0.25,2,9,0.0,1.0,6,45.0,30.0,9,0.376,1.0,779.534,0.2,1,2018-05-01 16:18:43.000,203,2018-05-01 16:31:39.488,0.25,-90,0,90,0,1
1010,33,0,798.5189999999999,0,-90,1,0.25,2,9,0.0,1.0,6,45.0,30.0,9,0.451,1.0,800.6619999999998,0.2,1,2018-05-01 16:18:43.000,203,2018-05-01 16:32:01.519,0.25,-90,0,90,0,1
1011,34,0,823.137,0,-90,1,0.25,2,9,0.0,1.0,6,45.0,30.0,9,0.526,1.0,825.7689999999999,0.2,1,2018-05-01 16:18:43.000,203,2018-05-01 16:32:26.137,0.25,-90,0,90,0,1
1012,35,0,866.688,0,-90,1,0.25,2,9,0.0,1.0,6,45.0,30.0,9,0.301,1.0,870.5169999999998,0.2,1,2018-05-01 16:18:43.000,203,2018-05-01 16:33:09.688,0.25,-90,0,90,0,1
1013,36,0,881.9989999999998,0,-90,1,0.25,2,3,0.0,1.0,12,45.0,30.0,3,0.376,0.0,883.9169999999998,0.2,1,2018-05-01 16:18:43.000,203,2018-05-01 16:33:24.999,0.25,90,-180,-90,-180,1
1014,37,0,965.604,0,-90,1,0.25,2,3,0.0,1.0,12,45.0,30.0,3,0.301,0.0,967.036,0.2,1,2018-05-01 16:18:43.000,203,2018-05-01 16:34:48.604,0.25,90,-180,-90,-180,1
1015,38,0,980.083,0,-90,1,0.25,2,3,0.0,1.0,12,45.0,30.0,3,0.451,0.0,981.826,0.2,1,2018-05-01 16:18:43.000,203,2018-05-01 16:35:03.083,0.25,90,-180,-90,-180,1
1016,39,0,993.276,0,-90,1,0.25,2,9,0.0,1.0,6,45.0,30.0,9,0.526,1.0,996.719,0.2,1,2018-05-01 16:18:43.000,203,2018-05-01 16:35:16.276,0.25,-90,0,90,0,1
1017,40,0,1040.848,0,-90,1,0.25,2,9,0.0,1.0,6,45.0,30.0,9,0.601,1.0,1042.323,0.2,1,2018-05-01 16:18:43.000,203,2018-05-01 16:36:03.848,0.25,-90,0,90,0,1
1018,41,0,1051.82,0,-90,1,0.25,2,9,0.0,1.0,6,45.0,30.0,9,0.526,0.0,1053.76,0.0,0,2018-05-01 16:18:43.000,203,2018-05-01 16:36:14.820,0.25,90,0,90,-180,1
1050,8,0,212.405,0,0,1,0.25,2,9,0.0,1.0,6,45.0,30.0,9,0.451,1.0,217.394,0.2,1,2018-05-02 14:20:58.000,113,2018-05-02 14:24:30.405,0.25,-90,0,0,-90,1
1051,9,0,240.77,0,0,1,0.25,2,9,0.0,1.0,6,45.0,30.0,9,0.601,1.0,242.662,0.2,1,2018-05-02 14:20:58.000,113,2018-05-02 14:24:58.770,0.25,-90,0,0,-90,1
1052,10,0,273.962,0,0,1,0.25,2,3,0.0,1.0,12,45.0,30.0,3,0.526,0.0,275.324,0.2,1,2018-05-02 14:20:58.000,113,2018-05-02 14:25:31.962,0.25,90,-180,-180,90,1
1053,11,0,298.676,0,0,1,0.25,2,9,0.0,1.0,6,45.0,30.0,9,0.301,1.0,303.634,0.2,1,2018-05-02 14:20:58.000,113,2018-05-02 14:25:56.676,0.25,-90,0,0,-90,1
1054,12,0,327.961,0,0,1,0.25,2,9,0.0,1.0,6,45.0,30.0,9,0.451,0.0,331.736,0.0,0,2018-05-02 14:20:58.000,113,2018-05-02 14:26:25.961,0.25,90,0,0,90,1
1055,14,0,390.144,0,0,1,0.25,2,9,0.0,1.0,6,45.0,30.0,9,0.526,1.0,391.538,0.2,1,2018-05-02 14:20:58.000,113,2018-05-02 14:27:28.144,0.25,-90,0,0,-90,1
1056,15,0,412.887,0,0,1,0.25,2,3,0.0,1.0,12,45.0,30.0,3,0.376,0.0,414.141,0.2,1,2018-05-02 14:20:58.000,113,2018-05-02 14:27:50.887,0.25,90,-180,-180,90,1
1057,16,0,433.279,0,0,1,0.25,2,9,0.0,1.0,6,45.0,30.0,9,0.301,0.0,434.855,0.0,0,2018-05-02 14:20:58.000,113,2018-05-02 14:28:11.279,0.25,90,0,0,90,1
1058,19,0,528.929,0,0,1,0.25,2,9,0.0,1.0,6,45.0,30.0,9,0.526,1.0,530.768,0.2,1,2018-05-02 14:20:58.000,113,2018-05-02 14:29:46.929,0.25,-90,0,0,-90,1
1059,20,0,553.336,0,0,1,0.25,2,9,0.0,1.0,6,45.0,30.0,9,0.451,0.0,557.1419999999998,0.0,0,2018-05-02 14:20:58.000,113,2018-05-02 14:30:11.336,0.25,90,0,0,90,1
1417,28,0,732.3660000000001,0,90,1,0.25,2,9,0.0,1.0,6,45.0,30.0,9,0.526,0.0,739.073,0.0,0,2018-05-09 09:16:22.000,98,2018-05-09 09:28:34.366,0.25,90,0,-90,0,1
1418,30,0,771.3560000000001,0,90,1,0.25,2,9,0.0,1.0,6,45.0,30.0,9,0.301,1.0,775.79,0.2,1,2018-05-09 09:16:22.000,98,2018-05-09 09:29:13.356,0.25,-90,0,-90,-180,1
1419,31,0,804.061,0,90,1,0.25,2,3,0.0,1.0,12,45.0,30.0,3,0.526,0.0,805.319,0.2,1,2018-05-09 09:16:22.000,98,2018-05-09 09:29:46.061,0.25,90,-180,90,0,1
1420,32,0,827.153,0,90,1,0.25,2,9,0.0,1.0,6,45.0,30.0,9,0.601,1.0,830.2589999999999,0.2,1,2018-05-09 09:16:22.000,98,2018-05-09 09:30:09.153,0.25,-90,0,-90,-180,1
1421,33,0,1046.66,0,90,1,0.25,2,3,0.0,1.0,12,45.0,30.0,3,0.376,0.0,1049.908,0.2,1,2018-05-09 09:16:22.000,98,2018-05-09 09:33:48.660,0.25,90,-180,90,0,1
1422,34,0,1065.053,0,90,1,0.25,2,3,0.0,1.0,12,45.0,30.0,3,0.301,0.0,1066.821,0.2,1,2018-05-09 09:16:22.000,98,2018-05-09 09:34:07.053,0.25,90,-180,90,0,1
1423,35,0,1095.768,0,90,1,0.25,2,3,0.0,1.0,12,45.0,30.0,3,0.451,0.0,1097.607,0.2,1,2018-05-09 09:16:22.000,98,2018-05-09 09:34:37.768,0.25,90,-180,90,0,1
1424,36,0,1105.122,0,90,1,0.25,2,3,0.0,1.0,12,45.0,30.0,3,0.601,0.0,1106.539,0.2,1,2018-05-09 09:16:22.000,98,2018-05-09 09:34:47.122,0.25,90,-180,90,0,1
1425,37,0,1117.467,0,90,1,0.25,2,9,0.0,1.0,6,45.0,30.0,9,0.451,1.0,1119.54,0.2,1,2018-05-09 09:16:22.000,98,2018-05-09 09:34:59.467,0.25,-90,0,-90,-180,1
1426,38,0,1132.738,0,90,1,0.25,2,9,0.0,1.0,6,45.0,30.0,9,0.301,1.0,1136.127,0.2,1,2018-05-09 09:16:22.000,98,2018-05-09 09:35:14.738,0.25,-90,0,-90,-180,1
1512,33,0,866.258,0,-90,1,0.25,2,3,0.0,1.0,12,45.0,30.0,3,0.376,0.0,867.956,0.2,1,2018-05-10 09:10:27.000,8,2018-05-10 09:24:53.258,0.25,90,-180,-90,-180,1
1513,34,0,893.452,0,-90,1,0.25,2,3,0.0,1.0,12,45.0,30.0,3,0.526,1.0,899.7360000000001,0.0,0,2018-05-10 09:10:27.000,8,2018-05-10 09:25:20.452,0.25,-90,-180,-90,0,1
1514,37,0,964.693,0,-90,1,0.25,2,3,0.0,1.0,12,45.0,30.0,3,0.601,1.0,968.177,0.0,0,2018-05-10 09:10:27.000,8,2018-05-10 09:26:31.693,0.25,-90,-180,-90,0,1
1515,39,0,998.408,0,-90,1,0.25,2,3,0.0,1.0,12,45.0,30.0,3,0.526,0.0,1001.383,0.2,1,2018-05-10 09:10:27.000,8,2018-05-10 09:27:05.408,0.25,90,-180,-90,-180,1
1516,40,0,1029.82,0,-90,1,0.25,2,9,0.0,1.0,6,45.0,30.0,9,0.376,1.0,1031.478,0.2,1,2018-05-10 09:10:27.000,8,2018-05-10 09:27:36.820,0.25,-90,0,90,0,1
1517,41,0,1046.392,0,-90,1,0.25,2,9,0.0,1.0,6,45.0,30.0,9,0.451,1.0,1048.393,0.2,1,2018-05-10 09:10:27.000,8,2018-05-10 09:27:53.392,0.25,-90,0,90,0,1
1518,42,0,1068.704,0,-90,1,0.25,2,3,0.0,1.0,12,45.0,30.0,3,0.301,0.0,1072.095,0.2,1,2018-05-10 09:10:27.000,8,2018-05-10 09:28:15.704,0.25,90,-180,-90,-180,1
1519,43,0,1097.29,0,-90,1,0.25,2,3,0.0,1.0,12,45.0,30.0,3,0.601,0.0,1099.118,0.2,1,2018-05-10 09:10:27.000,8,2018-05-10 09:28:44.290,0.25,90,-180,-90,-180,1
1520,44,0,1134.673,0,-90,1,0.25,2,9,0.0,1.0,6,45.0,30.0,9,0.526,1.0,1135.979,0.2,1,2018-05-10 09:10:27.000,8,2018-05-10 09:29:21.673,0.25,-90,0,90,0,1
1521,45,0,1151.374,0,-90,1,0.25,2,3,0.0,1.0,12,45.0,30.0,3,0.376,1.0,1153.132,0.0,0,2018-05-10 09:10:27.000,8,2018-05-10 09:29:38.374,0.25,-90,-180,-90,0,1
1592,30,0,848.308,0,0,1,0.25,2,3,0.0,1.0,12,45.0,30.0,3,0.526,0.0,849.183,0.2,1,2018-05-11 09:59:55.000,71,2018-05-11 10:14:03.308,0.25,90,-180,-180,90,1
1593,31,0,875.446,0,0,1,0.25,2,3,0.0,1.0,12,45.0,30.0,3,0.601,0.0,876.7410000000001,0.2,1,2018-05-11 09:59:55.000,71,2018-05-11 10:14:30.446,0.25,90,-180,-180,90,1
1594,32,0,917.382,0,0,1,0.25,2,9,0.0,1.0,6,45.0,30.0,9,0.526,0.0,919.033,0.0,0,2018-05-11 09:59:55.000,71,2018-05-11 10:15:12.382,0.25,90,0,0,90,1
1595,34,0,949.358,0,0,1,0.25,2,9,0.0,1.0,6,45.0,30.0,9,0.376,1.0,952.512,0.2,1,2018-05-11 09:59:55.000,71,2018-05-11 10:15:44.358,0.25,-90,0,0,-90,1
1596,35,0,969.645,0,0,1,0.25,2,3,0.0,1.0,12,45.0,30.0,3,0.301,0.0,970.776,0.2,1,2018-05-11 09:59:55.000,71,2018-05-11 10:16:04.645,0.25,90,-180,-180,90,1
1597,36,0,990.243,0,0,1,0.25,2,9,0.0,1.0,6,45.0,30.0,9,0.526,0.0,991.396,0.0,0,2018-05-11 09:59:55.000,71,2018-05-11 10:16:25.243,0.25,90,0,0,90,1
1598,38,0,1018.697,0,0,1,0.25,2,3,0.0,1.0,12,45.0,30.0,3,0.601,0.0,1020.075,0.2,1,2018-05-11 09:59:55.000,71,2018-05-11 10:16:53.697,0.25,90,-180,-180,90,1
1599,39,0,1036.367,0,0,1,0.25,2,9,0.0,1.0,6,45.0,30.0,9,0.376,0.0,1039.909,0.0,0,2018-05-11 09:59:55.000,71,2018-05-11 10:17:11.367,0.25,90,0,0,90,1
1600,41,0,1063.816,0,0,1,0.25,2,3,0.0,1.0,12,45.0,30.0,3,0.526,1.0,1067.559,0.0,0,2018-05-11 09:59:55.000,71,2018-05-11 10:17:38.816,0.25,-90,-180,-180,-90,1
1601,43,0,1094.856,0,0,1,0.25,2,9,0.0,1.0,6,45.0,30.0,9,0.601,0.0,1096.33,0.0,0,2018-05-11 09:59:55.000,71,2018-05-11 10:18:09.856,0.25,90,0,0,90,1
1753,16,0,468.161,0,-60,1,0.25,2,3,0.0,1.0,12,45.0,30.0,3,0.451,0.0,469.481,0.2,1,2018-05-22 14:48:35.000,135,2018-05-22 14:56:23.161,0.25,90,-180,-120,150,1
1754,17,0,520.178,0,-60,1,0.25,2,9,0.0,1.0,6,45.0,30.0,9,0.376,1.0,524.049,0.2,1,2018-05-22 14:48:35.000,135,2018-05-22 14:57:15.178,0.25,-90,0,60,-30,1
1755,18,0,553.1659999999998,0,-60,1,0.25,2,3,0.0,1.0,12,45.0,30.0,3,0.526,1.0,559.898,0.0,0,2018-05-22 14:48:35.000,135,2018-05-22 14:57:48.166,0.25,-90,-180,-120,-30,1
1756,22,0,654.207,0,-60,1,0.25,2,9,0.0,1.0,6,45.0,30.0,9,0.301,1.0,656.5,0.2,1,2018-05-22 14:48:35.000,135,2018-05-22 14:59:29.207,0.25,-90,0,60,-30,1
1757,23,0,676.7460000000002,0,-60,1,0.25,2,3,0.0,1.0,12,45.0,30.0,3,0.376,0.0,678.225,0.2,1,2018-05-22 14:48:35.000,135,2018-05-22 14:59:51.746,0.25,90,-180,-120,150,1
1758,24,0,686.717,0,-60,1,0.25,2,9,0.0,1.0,6,45.0,30.0,9,0.601,1.0,689.159,0.2,1,2018-05-22 14:48:35.000,135,2018-05-22 15:00:01.717,0.25,-90,0,60,-30,1
1759,25,0,706.63,0,-60,1,0.25,2,9,0.0,1.0,6,45.0,30.0,9,0.526,0.0,711.1139999999998,0.0,0,2018-05-22 14:48:35.000,135,2018-05-22 15:00:21.630,0.25,90,0,60,150,1
1760,27,0,741.909,0,-60,1,0.25,2,3,0.0,1.0,12,45.0,30.0,3,0.451,0.0,743.9010000000002,0.2,1,2018-05-22 14:48:35.000,135,2018-05-22 15:00:56.909,0.25,90,-180,-120,150,1
1761,28,0,755.1389999999999,0,-60,1,0.25,2,9,0.0,1.0,6,45.0,30.0,9,0.601,1.0,761.655,0.2,1,2018-05-22 14:48:35.000,135,2018-05-22 15:01:10.139,0.25,-90,0,60,-30,1
1762,29,0,774.1389999999999,0,-60,1,0.25,2,9,0.0,1.0,6,45.0,30.0,9,0.376,0.0,776.192,0.0,0,2018-05-22 14:48:35.000,135,2018-05-22 15:01:29.139,0.25,90,0,60,150,1
1862,32,0,819.6419999999998,0,120,1,0.25,2,9,0.0,1.0,6,45.0,30.0,9,0.376,1.0,821.6339999999999,0.2,1,2018-05-24 09:17:55.000,163,2018-05-24 09:31:34.642,0.25,-90,0,-120,150,1
1863,33,0,841.94,0,120,1,0.25,2,3,0.0,1.0,12,45.0,30.0,3,0.301,0.0,843.834,0.2,1,2018-05-24 09:17:55.000,163,2018-05-24 09:31:56.940,0.25,90,-180,60,-30,1
1864,34,0,853.0010000000002,0,120,1,0.25,2,3,0.0,1.0,12,45.0,30.0,3,0.451,0.0,854.539,0.2,1,2018-05-24 09:17:55.000,163,2018-05-24 09:32:08.001,0.25,90,-180,60,-30,1
1865,35,0,862.834,0,120,1,0.25,2,9,0.0,1.0,6,45.0,30.0,9,0.526,1.0,864.826,0.2,1,2018-05-24 09:17:55.000,163,2018-05-24 09:32:17.834,0.25,-90,0,-120,150,1
1866,36,0,882.582,0,120,1,0.25,2,9,0.0,1.0,6,45.0,30.0,9,0.301,0.0,885.4169999999998,0.0,0,2018-05-24 09:17:55.000,163,2018-05-24 09:32:37.582,0.25,90,0,-120,-30,1
1867,38,0,906.6,0,120,1,0.25,2,9,0.0,1.0,6,45.0,30.0,9,0.376,0.0,908.221,0.0,0,2018-05-24 09:17:55.000,163,2018-05-24 09:33:01.600,0.25,90,0,-120,-30,1
1868,41,0,949.692,0,120,1,0.25,2,9,0.0,1.0,6,45.0,30.0,9,0.301,0.0,955.336,0.0,0,2018-05-24 09:17:55.000,163,2018-05-24 09:33:44.692,0.25,90,0,-120,-30,1
1869,43,0,997.326,0,120,1,0.25,2,3,0.0,1.0,12,45.0,30.0,3,0.601,0.0,998.786,0.2,1,2018-05-24 09:17:55.000,163,2018-05-24 09:34:32.326,0.25,90,-180,60,-30,1
1870,44,0,1021.443,0,120,1,0.25,2,9,0.0,1.0,6,45.0,30.0,9,0.526,1.0,1023.295,0.2,1,2018-05-24 09:17:55.000,163,2018-05-24 09:34:56.443,0.25,-90,0,-120,150,1
1871,45,0,1075.214,0,120,1,0.25,2,3,0.0,1.0,12,45.0,30.0,3,0.451,0.0,1076.973,0.2,1,2018-05-24 09:17:55.000,163,2018-05-24 09:35:50.214,0.25,90,-180,60,-30,1
1907,23,0,892.961,0,-150,1,0.25,2,3,0.0,1.0,12,45.0,30.0,3,0.451,0.0,894.044,0.2,1,2018-05-25 09:07:02.000,109,2018-05-25 09:21:54.961,0.25,90,-180,-30,-120,1
1908,24,0,910.739,0,-150,1,0.25,2,9,0.0,1.0,6,45.0,30.0,9,0.376,1.0,912.107,0.2,1,2018-05-25 09:07:02.000,109,2018-05-25 09:22:12.739,0.25,-90,0,150,60,1
1909,25,0,925.657,0,-150,1,0.25,2,9,0.0,1.0,6,45.0,30.0,9,0.601,1.0,926.968,0.2,1,2018-05-25 09:07:02.000,109,2018-05-25 09:22:27.657,0.25,-90,0,150,60,1
1910,26,0,944.929,0,-150,1,0.25,2,3,0.0,1.0,12,45.0,30.0,3,0.451,0.0,946.679,0.2,1,2018-05-25 09:07:02.000,109,2018-05-25 09:22:46.929,0.25,90,-180,-30,-120,1
1911,27,0,954.588,0,-150,1,0.25,2,3,0.0,1.0,12,45.0,30.0,3,0.601,0.0,955.988,0.2,1,2018-05-25 09:07:02.000,109,2018-05-25 09:22:56.588,0.25,90,-180,-30,-120,1
1912,28,0,964.12,0,-150,1,0.25,2,3,0.0,1.0,12,45.0,30.0,3,0.301,0.0,965.296,0.2,1,2018-05-25 09:07:02.000,109,2018-05-25 09:23:06.120,0.25,90,-180,-30,-120,1
1913,29,0,996.027,0,-150,1,0.25,2,3,0.0,1.0,12,45.0,30.0,3,0.526,0.0,997.142,0.2,1,2018-05-25 09:07:02.000,109,2018-05-25 09:23:38.027,0.25,90,-180,-30,-120,1
1914,30,0,1021.938,0,-150,1,0.25,2,9,0.0,1.0,6,45.0,30.0,9,0.376,1.0,1023.213,0.2,1,2018-05-25 09:07:02.000,109,2018-05-25 09:24:03.938,0.25,-90,0,150,60,1
1915,31,0,1039.09,0,-150,1,0.25,2,3,0.0,1.0,12,45.0,30.0,3,0.451,0.0,1040.263,0.2,1,2018-05-25 09:07:02.000,109,2018-05-25 09:24:21.090,0.25,90,-180,-30,-120,1
1916,32,0,1049.521,0,-150,1,0.25,2,9,0.0,1.0,6,45.0,30.0,9,0.301,0.0,1050.944,0.0,0,2018-05-25 09:07:02.000,109,2018-05-25 09:24:31.521,0.25,90,0,150,-120,1
1932,25,0,519.876,0,180,1,0.25,2,3,0.0,1.0,12,45.0,30.0,3,0.301,0.0,521.2080000000002,0.2,1,2018-05-25 14:30:37.000,95,2018-05-25 14:39:16.876,0.25,90,-180,0,-90,1
1933,26,0,532.638,0,180,1,0.25,2,9,0.0,1.0,6,45.0,30.0,9,0.301,0.0,534.023,0.0,0,2018-05-25 14:30:37.000,95,2018-05-25 14:39:29.638,0.25,90,0,-180,-90,1
1934,28,0,589.514,0,180,1,0.25,2,3,0.0,1.0,12,45.0,30.0,3,0.451,0.0,590.7080000000002,0.2,1,2018-05-25 14:30:37.000,95,2018-05-25 14:40:26.514,0.25,90,-180,0,-90,1
1935,29,0,604.898,0,180,1,0.25,2,9,0.0,1.0,6,45.0,30.0,9,0.601,0.0,608.072,0.0,0,2018-05-25 14:30:37.000,95,2018-05-25 14:40:41.898,0.25,90,0,-180,-90,1
1936,33,0,661.824,0,180,1,0.25,2,3,0.0,1.0,12,45.0,30.0,3,0.526,0.0,662.914,0.2,1,2018-05-25 14:30:37.000,95,2018-05-25 14:41:38.824,0.25,90,-180,0,-90,1
1937,34,0,671.4789999999998,0,180,1,0.25,2,3,0.0,1.0,12,45.0,30.0,3,0.301,0.0,673.115,0.2,1,2018-05-25 14:30:37.000,95,2018-05-25 14:41:48.479,0.25,90,-180,0,-90,1
1938,35,0,682.192,0,180,1,0.25,2,9,0.0,1.0,6,45.0,30.0,9,0.601,1.0,683.5,0.2,1,2018-05-25 14:30:37.000,95,2018-05-25 14:41:59.192,0.25,-90,0,-180,90,1
1939,36,0,700.133,0,180,1,0.25,2,9,0.0,1.0,6,45.0,30.0,9,0.526,0.0,701.54,0.0,0,2018-05-25 14:30:37.000,95,2018-05-25 14:42:17.133,0.25,90,0,-180,-90,1
1940,40,0,776.327,0,180,1,0.25,2,3,0.0,1.0,12,45.0,30.0,3,0.601,0.0,777.55,0.2,1,2018-05-25 14:30:37.000,95,2018-05-25 14:43:33.327,0.25,90,-180,0,-90,1
1941,41,0,784.9939999999998,0,180,1,0.25,2,9,0.0,1.0,6,45.0,30.0,9,0.451,0.0,781.196,0.0,0,2018-05-25 14:30:37.000,95,2018-05-25 14:43:41.994,0.25,90,0,-180,-90,1
1999,27,0,606.151,0,0,1,0.25,2,9,0.0,1.0,6,45.0,30.0,9,0.601,1.0,607.741,0.2,1,2018-05-29 10:27:04.000,146,2018-05-29 10:37:10.151,0.25,-90,0,0,-90,1
2000,28,0,748.56,0,0,1,0.25,2,3,0.0,1.0,12,45.0,30.0,3,0.451,0.0,750.775,0.2,1,2018-05-29 10:27:04.000,146,2018-05-29 10:39:32.560,0.25,90,-180,-180,90,1
2001,29,0,758.01,0,0,1,0.25,2,9,0.0,1.0,6,45.0,30.0,9,0.301,1.0,764.025,0.2,1,2018-05-29 10:27:04.000,146,2018-05-29 10:39:42.010,0.25,-90,0,0,-90,1
2002,30,0,771.515,0,0,1,0.25,2,9,0.0,1.0,6,45.0,30.0,9,0.376,0.0,772.9760000000001,0.0,0,2018-05-29 10:27:04.000,146,2018-05-29 10:39:55.515,0.25,90,0,0,90,1
2003,32,0,790.188,0,0,1,0.25,2,3,0.0,1.0,12,45.0,30.0,3,0.301,0.0,791.367,0.2,1,2018-05-29 10:27:04.000,146,2018-05-29 10:40:14.188,0.25,90,-180,-180,90,1
2004,33,0,797.8560000000001,0,0,1,0.25,2,3,0.0,1.0,12,45.0,30.0,3,0.526,0.0,798.9019999999998,0.2,1,2018-05-29 10:27:04.000,146,2018-05-29 10:40:21.856,0.25,90,-180,-180,90,1
2005,34,0,806.6389999999999,0,0,1,0.25,2,9,0.0,1.0,6,45.0,30.0,9,0.376,0.0,809.466,0.0,0,2018-05-29 10:27:04.000,146,2018-05-29 10:40:30.639,0.25,90,0,0,90,1
2006,36,0,976.443,0,0,1,0.25,2,3,0.0,1.0,12,45.0,30.0,3,0.376,0.0,979.197,0.2,1,2018-05-29 10:27:04.000,146,2018-05-29 10:43:20.443,0.25,90,-180,-180,90,1
2007,37,0,986.393,0,0,1,0.25,2,3,0.0,1.0,12,45.0,30.0,3,0.526,0.0,987.334,0.2,1,2018-05-29 10:27:04.000,146,2018-05-29 10:43:30.393,0.25,90,-180,-180,90,1
2008,38,0,993.682,0,0,1,0.25,2,3,0.0,1.0,12,45.0,30.0,3,0.451,0.0,994.758,0.2,1,2018-05-29 10:27:04.000,146,2018-05-29 10:43:37.682,0.25,90,-180,-180,90,1
2031,16,0,876.8430000000002,0,-30,1,0.25,2,9,0.0,1.0,6,45.0,30.0,9,0.451,0.0,878.165,0.0,0,2018-05-30 10:16:29.000,122,2018-05-30 10:31:05.843,0.25,90,0,30,120,1
2032,18,0,917.834,0,-30,1,0.25,2,9,0.0,1.0,6,45.0,30.0,9,0.376,1.0,923.034,0.2,1,2018-05-30 10:16:29.000,122,2018-05-30 10:31:46.834,0.25,-90,0,30,-60,1
2033,19,0,958.278,0,-30,1,0.25,2,3,0.0,1.0,12,45.0,30.0,3,0.301,1.0,959.655,0.0,0,2018-05-30 10:16:29.000,122,2018-05-30 10:32:27.278,0.25,-90,-180,-150,-60,1
2034,21,0,995.071,0,-30,1,0.25,2,9,0.0,1.0,6,45.0,30.0,9,0.376,1.0,998.414,0.2,1,2018-05-30 10:16:29.000,122,2018-05-30 10:33:04.071,0.25,-90,0,30,-60,1
2035,22,0,1017.629,0,-30,1,0.25,2,9,0.0,1.0,6,45.0,30.0,9,0.301,1.0,1024.439,0.2,1,2018-05-30 10:16:29.000,122,2018-05-30 10:33:26.629,0.25,-90,0,30,-60,1
2036,23,0,1049.8,0,-30,1,0.25,2,9,0.0,1.0,6,45.0,30.0,9,0.451,1.0,1052.997,0.2,1,2018-05-30 10:16:29.000,122,2018-05-30 10:33:58.800,0.25,-90,0,30,-60,1
2037,24,0,1096.138,0,-30,1,0.25,2,3,0.0,1.0,12,45.0,30.0,3,0.526,0.0,1097.272,0.2,1,2018-05-30 10:16:29.000,122,2018-05-30 10:34:45.138,0.25,90,-180,-150,120,1
2038,25,0,1118.052,0,-30,1,0.25,2,9,0.0,1.0,6,45.0,30.0,9,0.601,1.0,1119.162,0.2,1,2018-05-30 10:16:29.000,122,2018-05-30 10:35:07.052,0.25,-90,0,30,-60,1
2039,26,0,1137.575,0,-30,1,0.25,2,3,0.0,1.0,12,45.0,30.0,3,0.526,1.0,1142.422,0.0,0,2018-05-30 10:16:29.000,122,2018-05-30 10:35:26.575,0.25,-90,-180,-150,-60,1
2040,29,0,1201.257,0,-30,1,0.25,2,9,0.0,1.0,6,45.0,30.0,9,0.301,0.0,1202.848,0.0,0,2018-05-30 10:16:29.000,122,2018-05-30 10:36:30.257,0.25,90,0,30,120,1
2061,25,0,644.456,0,30,1,0.25,2,9,0.0,1.0,6,45.0,30.0,9,0.376,1.0,646.5,0.2,1,2018-05-30 16:04:13.000,103,2018-05-30 16:14:57.456,0.25,-90,0,-30,-120,1
2062,26,0,672.4889999999998,0,30,1,0.25,2,9,0.0,1.0,6,45.0,30.0,9,0.451,1.0,680.3439999999998,0.2,1,2018-05-30 16:04:13.000,103,2018-05-30 16:15:25.489,0.25,-90,0,-30,-120,1
2063,27,0,698.7360000000001,0,30,1,0.25,2,9,0.0,1.0,6,45.0,30.0,9,0.301,1.0,701.171,0.2,1,2018-05-30 16:04:13.000,103,2018-05-30 16:15:51.736,0.25,-90,0,-30,-120,1
2064,28,0,732.195,0,30,1,0.25,2,3,0.0,1.0,12,45.0,30.0,3,0.601,0.0,733.3989999999999,0.2,1,2018-05-30 16:04:13.000,103,2018-05-30 16:16:25.195,0.25,90,-180,150,60,1
2065,29,0,743.335,0,30,1,0.25,2,3,0.0,1.0,12,45.0,30.0,3,0.526,0.0,744.451,0.2,1,2018-05-30 16:04:13.000,103,2018-05-30 16:16:36.335,0.25,90,-180,150,60,1
2066,30,0,754.033,0,30,1,0.25,2,9,0.0,1.0,6,45.0,30.0,9,0.376,0.0,755.1139999999998,0.0,0,2018-05-30 16:04:13.000,103,2018-05-30 16:16:47.033,0.25,90,0,-30,60,1
2067,32,0,786.716,0,30,1,0.25,2,9,0.0,1.0,6,45.0,30.0,9,0.301,1.0,795.975,0.2,1,2018-05-30 16:04:13.000,103,2018-05-30 16:17:19.716,0.25,-90,0,-30,-120,1
2068,33,0,811.671,0,30,1,0.25,2,9,0.0,1.0,6,45.0,30.0,9,0.376,0.0,812.961,0.0,0,2018-05-30 16:04:13.000,103,2018-05-30 16:17:44.671,0.25,90,0,-30,60,1
2069,36,0,908.451,0,30,1,0.25,2,3,0.0,1.0,12,45.0,30.0,3,0.451,0.0,909.471,0.2,1,2018-05-30 16:04:13.000,103,2018-05-30 16:19:21.451,0.25,90,-180,150,60,1
2070,37,0,924.983,0,30,1,0.25,2,9,0.0,1.0,6,45.0,30.0,9,0.601,0.0,926.39,0.0,0,2018-05-30 16:04:13.000,103,2018-05-30 16:19:37.983,0.25,90,0,-30,60,1
2079,10,0,446.73800000000006,0,-150,1,0.25,2,3,0.0,1.0,12,45.0,30.0,3,0.526,0.0,448.445,0.2,1,2018-05-31 09:24:59.000,149,2018-05-31 09:32:25.738,0.25,90,-180,-30,-120,1
2080,11,0,507.273,0,-150,1,0.25,2,9,0.0,1.0,6,45.0,30.0,9,0.526,1.0,508.42800000000005,0.2,1,2018-05-31 09:24:59.000,149,2018-05-31 09:33:26.273,0.25,-90,0,150,60,1
2081,12,0,545.556,0,-150,1,0.25,2,9,0.0,1.0,6,45.0,30.0,9,0.601,1.0,546.889,0.2,1,2018-05-31 09:24:59.000,149,2018-05-31 09:34:04.556,0.25,-90,0,150,60,1
2082,13,0,565.178,0,-150,1,0.25,2,9,0.0,1.0,6,45.0,30.0,9,0.451,1.0,566.207,0.2,1,2018-05-31 09:24:59.000,149,2018-05-31 09:34:24.178,0.25,-90,0,150,60,1
2083,14,0,590.558,0,-150,1,0.25,2,9,0.0,1.0,6,45.0,30.0,9,0.376,1.0,592.302,0.2,1,2018-05-31 09:24:59.000,149,2018-05-31 09:34:49.558,0.25,-90,0,150,60,1
2084,15,0,623.066,0,-150,1,0.25,2,9,0.0,1.0,6,45.0,30.0,9,0.301,0.0,624.626,0.0,0,2018-05-31 09:24:59.000,149,2018-05-31 09:35:22.066,0.25,90,0,150,-120,1
2085,17,0,648.219,0,-150,1,0.25,2,9,0.0,1.0,6,45.0,30.0,9,0.451,1.0,649.288,0.2,1,2018-05-31 09:24:59.000,149,2018-05-31 09:35:47.219,0.25,-90,0,150,60,1
2086,18,0,708.247,0,-150,1,0.25,2,9,0.0,1.0,6,45.0,30.0,9,0.526,1.0,709.637,0.2,1,2018-05-31 09:24:59.000,149,2018-05-31 09:36:47.247,0.25,-90,0,150,60,1
2087,19,0,746.189,0,-150,1,0.25,2,3,0.0,1.0,12,45.0,30.0,3,0.376,1.0,759.6419999999998,0.0,0,2018-05-31 09:24:59.000,149,2018-05-31 09:37:25.189,0.25,-90,-180,-30,60,1
2088,21,0,831.645,0,-150,1,0.25,2,3,0.0,1.0,12,45.0,30.0,3,0.451,0.0,832.9910000000001,0.2,1,2018-05-31 09:24:59.000,149,2018-05-31 09:38:50.645,0.25,90,-180,-30,-120,1
2095,10,0,332.01199999999994,0,-120,1,0.25,2,3,0.0,1.0,12,45.0,30.0,3,0.601,1.0,333.266,0.0,0,2018-05-31 14:57:10.000,73,2018-05-31 15:02:42.012,0.25,-90,-180,-60,30,1
2096,12,0,367.7,0,-120,1,0.25,2,9,0.0,1.0,6,45.0,30.0,9,0.451,1.0,368.784,0.2,1,2018-05-31 14:57:10.000,73,2018-05-31 15:03:17.700,0.25,-90,0,120,30,1
2097,13,0,398.24,0,-120,1,0.25,2,3,0.0,1.0,12,45.0,30.0,3,0.601,0.0,401.741,0.2,1,2018-05-31 14:57:10.000,73,2018-05-31 15:03:48.240,0.25,90,-180,-60,-150,1
2098,14,0,413.887,0,-120,1,0.25,2,9,0.0,1.0,6,45.0,30.0,9,0.526,1.0,414.789,0.2,1,2018-05-31 14:57:10.000,73,2018-05-31 15:04:03.887,0.25,-90,0,120,30,1
2099,15,0,448.23800000000006,0,-120,1,0.25,2,3,0.0,1.0,12,45.0,30.0,3,0.301,0.0,449.592,0.2,1,2018-05-31 14:57:10.000,73,2018-05-31 15:04:38.238,0.25,90,-180,-60,-150,1
2100,16,0,477.997,0,-120,1,0.25,2,9,0.0,1.0,6,45.0,30.0,9,0.526,1.0,479.026,0.2,1,2018-05-31 14:57:10.000,73,2018-05-31 15:05:07.997,0.25,-90,0,120,30,1
2101,17,0,503.162,0,-120,1,0.25,2,9,0.0,1.0,6,45.0,30.0,9,0.376,1.0,504.337,0.2,1,2018-05-31 14:57:10.000,73,2018-05-31 15:05:33.162,0.25,-90,0,120,30,1
2102,18,0,531.217,0,-120,1,0.25,2,3,0.0,1.0,12,45.0,30.0,3,0.301,0.0,532.744,0.2,1,2018-05-31 14:57:10.000,73,2018-05-31 15:06:01.217,0.25,90,-180,-60,-150,1
2103,19,0,551.7869999999998,0,-120,1,0.25,2,9,0.0,1.0,6,45.0,30.0,9,0.451,0.0,553.586,0.0,0,2018-05-31 14:57:10.000,73,2018-05-31 15:06:21.787,0.25,90,0,120,-150,1
2104,21,0,621.319,0,-120,1,0.25,2,9,0.0,1.0,6,45.0,30.0,9,0.301,0.0,623.7869999999998,0.0,0,2018-05-31 14:57:10.000,73,2018-05-31 15:07:31.319,0.25,90,0,120,-150,1
2141,56,0,1266.418,0,150,1,0.25,2,3,0.0,1.0,12,45.0,30.0,3,0.376,0.0,1269.477,0.2,1,2018-06-01 09:15:00.000,11,2018-06-01 09:36:06.418,0.25,90,-180,30,-60,1
2142,57,0,1278.249,0,150,1,0.25,2,3,0.0,1.0,12,45.0,30.0,3,0.301,0.0,1279.806,0.2,1,2018-06-01 09:15:00.000,11,2018-06-01 09:36:18.249,0.25,90,-180,30,-60,1
2143,58,0,1287.8,0,150,1,0.25,2,3,0.0,1.0,12,45.0,30.0,3,0.451,0.0,1289.738,0.2,1,2018-06-01 09:15:00.000,11,2018-06-01 09:36:27.800,0.25,90,-180,30,-60,1
2144,59,0,1306.595,0,150,1,0.25,2,3,0.0,1.0,12,45.0,30.0,3,0.526,0.0,1308.546,0.2,1,2018-06-01 09:15:00.000,11,2018-06-01 09:36:46.595,0.25,90,-180,30,-60,1
2145,60,0,1496.644,0,150,1,0.25,2,9,0.0,1.0,6,45.0,30.0,9,0.601,1.0,1500.274,0.2,1,2018-06-01 09:15:00.000,11,2018-06-01 09:39:56.644,0.25,-90,0,-150,120,1
2146,61,0,1513.446,0,150,1,0.25,2,3,0.0,1.0,12,45.0,30.0,3,0.601,0.0,1515.359,0.2,1,2018-06-01 09:15:00.000,11,2018-06-01 09:40:13.446,0.25,90,-180,30,-60,1
2147,62,0,1522.448,0,150,1,0.25,2,9,0.0,1.0,6,45.0,30.0,9,0.526,0.0,1524.549,0.0,0,2018-06-01 09:15:00.000,11,2018-06-01 09:40:22.448,0.25,90,0,-150,-60,1
2148,64,0,1560.767,0,150,1,0.25,2,3,0.0,1.0,12,45.0,30.0,3,0.376,0.0,1563.079,0.2,1,2018-06-01 09:15:00.000,11,2018-06-01 09:41:00.767,0.25,90,-180,30,-60,1
2149,65,0,1576.438,0,150,1,0.25,2,3,0.0,1.0,12,45.0,30.0,3,0.301,0.0,1578.7220000000002,0.2,1,2018-06-01 09:15:00.000,11,2018-06-01 09:41:16.438,0.25,90,-180,30,-60,1
2150,66,0,1601.263,0,150,1,0.25,2,3,0.0,1.0,12,45.0,30.0,3,0.526,1.0,1604.091,0.0,0,2018-06-01 09:15:00.000,11,2018-06-01 09:41:41.263,0.25,-90,-180,30,120,1
2176,34,0,603.915,0,0,1,0.25,2,9,0.0,1.0,6,45.0,30.0,9,0.526,0.0,608.906,0.0,0,2018-06-01 14:45:00.000,132,2018-06-01 14:55:03.915,0.25,90,0,0,90,1
2177,36,0,633.312,0,0,1,0.25,2,9,0.0,1.0,6,45.0,30.0,9,0.301,1.0,635.46,0.2,1,2018-06-01 14:45:00.000,132,2018-06-01 14:55:33.312,0.25,-90,0,0,-90,1
2178,37,0,658.808,0,0,1,0.25,2,3,0.0,1.0,12,45.0,30.0,3,0.526,0.0,660.7810000000002,0.2,1,2018-06-01 14:45:00.000,132,2018-06-01 14:55:58.808,0.25,90,-180,-180,90,1
2179,38,0,671.3380000000002,0,0,1,0.25,2,9,0.0,1.0,6,45.0,30.0,9,0.451,0.0,672.73,0.0,0,2018-06-01 14:45:00.000,132,2018-06-01 14:56:11.338,0.25,90,0,0,90,1
2180,42,0,741.6410000000002,0,0,1,0.25,2,3,0.0,1.0,12,45.0,30.0,3,0.526,0.0,742.705,0.2,1,2018-06-01 14:45:00.000,132,2018-06-01 14:57:21.641,0.25,90,-180,-180,90,1
2181,43,0,756.828,0,0,1,0.25,2,3,0.0,1.0,12,45.0,30.0,3,0.451,0.0,758.05,0.2,1,2018-06-01 14:45:00.000,132,2018-06-01 14:57:36.828,0.25,90,-180,-180,90,1
2182,44,0,766.905,0,0,1,0.25,2,9,0.0,1.0,6,45.0,30.0,9,0.601,1.0,769.622,0.2,1,2018-06-01 14:45:00.000,132,2018-06-01 14:57:46.905,0.25,-90,0,0,-90,1
2183,45,0,781.378,0,0,1,0.25,2,9,0.0,1.0,6,45.0,30.0,9,0.376,1.0,784.835,0.2,1,2018-06-01 14:45:00.000,132,2018-06-01 14:58:01.378,0.25,-90,0,0,-90,1
2184,46,0,794.1460000000002,0,0,1,0.25,2,3,0.0,1.0,12,45.0,30.0,3,0.526,0.0,795.225,0.2,1,2018-06-01 14:45:00.000,132,2018-06-01 14:58:14.146,0.25,90,-180,-180,90,1
2185,47,0,804.992,0,0,1,0.25,2,9,0.0,1.0,6,45.0,30.0,9,0.601,0.0,806.36,0.0,0,2018-06-01 14:45:00.000,132,2018-06-01 14:58:24.992,0.25,90,0,0,90,1
2260,22,0,560.34,0,-120,1,0.25,2,3,0.0,1.0,12,45.0,30.0,3,0.376,1.0,565.294,0.0,0,2018-06-19 14:20:37.000,158,2018-06-19 14:29:57.340,0.25,-90,-180,-60,30,1
2261,24,0,707.23,0,-120,1,0.25,2,9,0.0,1.0,6,45.0,30.0,9,0.301,1.0,709.053,0.2,1,2018-06-19 14:20:37.000,158,2018-06-19 14:32:24.230,0.25,-90,0,120,30,1
2262,25,0,720.04,0,-120,1,0.25,2,3,0.0,1.0,12,45.0,30.0,3,0.601,1.0,722.579,0.0,0,2018-06-19 14:20:37.000,158,2018-06-19 14:32:37.040,0.25,-90,-180,-60,30,1
2263,27,0,736.2919999999998,0,-120,1,0.25,2,3,0.0,1.0,12,45.0,30.0,3,0.526,0.0,738.8330000000002,0.2,1,2018-06-19 14:20:37.000,158,2018-06-19 14:32:53.292,0.25,90,-180,-60,-150,1
2264,28,0,747.801,0,-120,1,0.25,2,3,0.0,1.0,12,45.0,30.0,3,0.376,0.0,750.373,0.2,1,2018-06-19 14:20:37.000,158,2018-06-19 14:33:04.801,0.25,90,-180,-60,-150,1
2265,29,0,759.832,0,-120,1,0.25,2,9,0.0,1.0,6,45.0,30.0,9,0.601,1.0,761.0060000000002,0.2,1,2018-06-19 14:20:37.000,158,2018-06-19 14:33:16.832,0.25,-90,0,120,30,1
2266,30,0,769.14,0,-120,1,0.25,2,3,0.0,1.0,12,45.0,30.0,3,0.301,0.0,770.572,0.2,1,2018-06-19 14:20:37.000,158,2018-06-19 14:33:26.140,0.25,90,-180,-60,-150,1
2267,31,0,779.003,0,-120,1,0.25,2,3,0.0,1.0,12,45.0,30.0,3,0.301,0.0,781.4580000000002,0.2,1,2018-06-19 14:20:37.000,158,2018-06-19 14:33:36.003,0.25,90,-180,-60,-150,1
2268,32,0,791.56,0,-120,1,0.25,2,9,0.0,1.0,6,45.0,30.0,9,0.451,1.0,792.7669999999998,0.2,1,2018-06-19 14:20:37.000,158,2018-06-19 14:33:48.560,0.25,-90,0,120,30,1
2269,33,0,801.878,0,-120,1,0.25,2,9,0.0,1.0,6,45.0,30.0,9,0.601,0.0,804.811,0.0,0,2018-06-19 14:20:37.000,158,2018-06-19 14:33:58.878,0.25,90,0,120,-150,1
2286,17,0,540.635,0,60,1,0.25,2,3,0.0,1.0,12,45.0,30.0,3,0.301,0.0,542.115,0.2,1,2018-06-20 09:11:32.000,38,2018-06-20 09:20:32.635,0.25,90,-180,120,30,1
2287,18,0,555.014,0,60,1,0.25,2,9,0.0,1.0,6,45.0,30.0,9,0.376,1.0,557.614,0.2,1,2018-06-20 09:11:32.000,38,2018-06-20 09:20:47.014,0.25,-90,0,-60,-150,1
2288,19,0,576.494,0,60,1,0.25,2,3,0.0,1.0,12,45.0,30.0,3,0.601,0.0,577.705,0.2,1,2018-06-20 09:11:32.000,38,2018-06-20 09:21:08.494,0.25,90,-180,120,30,1
2289,20,0,590.053,0,60,1,0.25,2,3,0.0,1.0,12,45.0,30.0,3,0.526,0.0,591.021,0.2,1,2018-06-20 09:11:32.000,38,2018-06-20 09:21:22.053,0.25,90,-180,120,30,1
2290,21,0,603.129,0,60,1,0.25,2,3,0.0,1.0,12,45.0,30.0,3,0.601,0.0,604.006,0.2,1,2018-06-20 09:11:32.000,38,2018-06-20 09:21:35.129,0.25,90,-180,120,30,1
2291,22,0,612.313,0,60,1,0.25,2,3,0.0,1.0,12,45.0,30.0,3,0.451,0.0,613.304,0.2,1,2018-06-20 09:11:32.000,38,2018-06-20 09:21:44.313,0.25,90,-180,120,30,1
2292,23,0,620.8580000000002,0,60,1,0.25,2,3,0.0,1.0,12,45.0,30.0,3,0.376,0.0,621.805,0.2,1,2018-06-20 09:11:32.000,38,2018-06-20 09:21:52.858,0.25,90,-180,120,30,1
2293,24,0,631.607,0,60,1,0.25,2,9,0.0,1.0,6,45.0,30.0,9,0.526,0.0,632.754,0.0,0,2018-06-20 09:11:32.000,38,2018-06-20 09:22:03.607,0.25,90,0,-60,30,1
2294,26,0,659.02,0,60,1,0.25,2,9,0.0,1.0,6,45.0,30.0,9,0.451,1.0,660.3560000000001,0.2,1,2018-06-20 09:11:32.000,38,2018-06-20 09:22:31.020,0.25,-90,0,-60,-150,1
2295,27,0,708.68,0,60,1,0.25,2,3,0.0,1.0,12,45.0,30.0,3,0.601,1.0,710.706,0.0,0,2018-06-20 09:11:32.000,38,2018-06-20 09:23:20.680,0.25,-90,-180,120,-150,1
2317,25,0,490.756,0,-120,1,0.25,2,9,0.0,1.0,6,45.0,30.0,9,0.451,0.0,494.298,0.0,0,2018-06-20 14:31:41.000,104,2018-06-20 14:39:51.756,0.25,90,0,120,-150,1
2318,27,0,522.007,0,-120,1,0.25,2,3,0.0,1.0,12,45.0,30.0,3,0.376,0.0,523.45,0.2,1,2018-06-20 14:31:41.000,104,2018-06-20 14:40:23.007,0.25,90,-180,-60,-150,1
2319,28,0,533.702,0,-120,1,0.25,2,9,0.0,1.0,6,45.0,30.0,9,0.526,0.0,535.509,0.0,0,2018-06-20 14:31:41.000,104,2018-06-20 14:40:34.702,0.25,90,0,120,-150,1
2320,30,0,576.0,0,-120,1,0.25,2,3,0.0,1.0,12,45.0,30.0,3,0.601,0.0,577.174,0.2,1,2018-06-20 14:31:41.000,104,2018-06-20 14:41:17.000,0.25,90,-180,-60,-150,1
2321,31,0,616.664,0,-120,1,0.25,2,3,0.0,1.0,12,45.0,30.0,3,0.451,0.0,618.001,0.2,1,2018-06-20 14:31:41.000,104,2018-06-20 14:41:57.664,0.25,90,-180,-60,-150,1
2322,32,0,630.015,0,-120,1,0.25,2,9,0.0,1.0,6,45.0,30.0,9,0.301,1.0,631.21,0.2,1,2018-06-20 14:31:41.000,104,2018-06-20 14:42:11.015,0.25,-90,0,120,30,1
2323,33,0,647.264,0,-120,1,0.25,2,9,0.0,1.0,6,45.0,30.0,9,0.376,1.0,648.798,0.2,1,2018-06-20 14:31:41.000,104,2018-06-20 14:42:28.264,0.25,-90,0,120,30,1
2324,34,0,666.855,0,-120,1,0.25,2,3,0.0,1.0,12,45.0,30.0,3,0.601,0.0,668.0419999999998,0.2,1,2018-06-20 14:31:41.000,104,2018-06-20 14:42:47.855,0.25,90,-180,-60,-150,1
2325,35,0,688.633,0,-120,1,0.25,2,9,0.0,1.0,6,45.0,30.0,9,0.526,1.0,690.3660000000001,0.2,1,2018-06-20 14:31:41.000,104,2018-06-20 14:43:09.633,0.25,-90,0,120,30,1
2326,36,0,700.6210000000002,0,-120,1,0.25,2,9,0.0,1.0,6,45.0,30.0,9,0.301,0.0,702.357,0.0,0,2018-06-20 14:31:41.000,104,2018-06-20 14:43:21.621,0.25,90,0,120,-150,1
2355,38,0,825.7280000000002,0,-30,1,0.25,2,3,0.0,1.0,12,45.0,30.0,3,0.526,0.0,828.148,0.2,1,2018-06-21 09:22:34.000,157,2018-06-21 09:36:19.728,0.25,90,-180,-150,120,1
2356,39,0,837.7139999999998,0,-30,1,0.25,2,9,0.0,1.0,6,45.0,30.0,9,0.301,0.0,839.3689999999998,0.0,0,2018-06-21 09:22:34.000,157,2018-06-21 09:36:31.714,0.25,90,0,30,120,1
2357,41,0,860.465,0,-30,1,0.25,2,3,0.0,1.0,12,45.0,30.0,3,0.601,0.0,861.408,0.2,1,2018-06-21 09:22:34.000,157,2018-06-21 09:36:54.465,0.25,90,-180,-150,120,1
2358,42,0,870.4010000000002,0,-30,1,0.25,2,3,0.0,1.0,12,45.0,30.0,3,0.301,0.0,871.467,0.2,1,2018-06-21 09:22:34.000,157,2018-06-21 09:37:04.401,0.25,90,-180,-150,120,1
2359,43,0,897.6139999999998,0,-30,1,0.25,2,3,0.0,1.0,12,45.0,30.0,3,0.526,0.0,898.6089999999998,0.2,1,2018-06-21 09:22:34.000,157,2018-06-21 09:37:31.614,0.25,90,-180,-150,120,1
2360,44,0,906.575,0,-30,1,0.25,2,3,0.0,1.0,12,45.0,30.0,3,0.376,0.0,907.495,0.2,1,2018-06-21 09:22:34.000,157,2018-06-21 09:37:40.575,0.25,90,-180,-150,120,1
2361,45,0,916.204,0,-30,1,0.25,2,9,0.0,1.0,6,45.0,30.0,9,0.451,0.0,917.785,0.0,0,2018-06-21 09:22:34.000,157,2018-06-21 09:37:50.204,0.25,90,0,30,120,1
2362,49,0,971.53,0,-30,1,0.25,2,3,0.0,1.0,12,45.0,30.0,3,0.526,0.0,972.68,0.2,1,2018-06-21 09:22:34.000,157,2018-06-21 09:38:45.530,0.25,90,-180,-150,120,1
2363,50,0,980.201,0,-30,1,0.25,2,3,0.0,1.0,12,45.0,30.0,3,0.451,1.0,981.471,0.0,0,2018-06-21 09:22:34.000,157,2018-06-21 09:38:54.201,0.25,-90,-180,-150,-60,1
2364,52,0,1001.632,0,-30,1,0.25,2,9,0.0,1.0,6,45.0,30.0,9,0.301,0.0,1004.492,0.0,0,2018-06-21 09:22:34.000,157,2018-06-21 09:39:15.632,0.25,90,0,30,120,1
2408,52,0,1248.787,0,-150,1,0.25,2,9,0.0,1.0,6,45.0,30.0,9,0.301,0.0,1250.065,0.0,0,2018-06-21 14:42:41.000,83,2018-06-21 15:03:29.787,0.25,90,0,150,-120,1
2409,54,0,1271.157,0,-150,1,0.25,2,9,0.0,1.0,6,45.0,30.0,9,0.451,0.0,1272.332,0.0,0,2018-06-21 14:42:41.000,83,2018-06-21 15:03:52.157,0.25,90,0,150,-120,1
2410,56,0,1298.055,0,-150,1,0.25,2,3,0.0,1.0,12,45.0,30.0,3,0.451,0.0,1299.083,0.2,1,2018-06-21 14:42:41.000,83,2018-06-21 15:04:19.055,0.25,90,-180,-30,-120,1
2411,57,0,1307.714,0,-150,1,0.25,2,9,0.0,1.0,6,45.0,30.0,9,0.376,0.0,1310.039,0.0,0,2018-06-21 14:42:41.000,83,2018-06-21 15:04:28.714,0.25,90,0,150,-120,1
2412,60,0,1363.049,0,-150,1,0.25,2,3,0.0,1.0,12,45.0,30.0,3,0.601,0.0,1364.17,0.2,1,2018-06-21 14:42:41.000,83,2018-06-21 15:05:24.049,0.25,90,-180,-30,-120,1
2413,61,0,1372.639,0,-150,1,0.25,2,9,0.0,1.0,6,45.0,30.0,9,0.451,1.0,1374.186,0.2,1,2018-06-21 14:42:41.000,83,2018-06-21 15:05:33.639,0.25,-90,0,150,60,1
2414,62,0,1395.436,0,-150,1,0.25,2,9,0.0,1.0,6,45.0,30.0,9,0.526,1.0,1396.621,0.2,1,2018-06-21 14:42:41.000,83,2018-06-21 15:05:56.436,0.25,-90,0,150,60,1
2415,63,0,1407.076,0,-150,1,0.25,2,3,0.0,1.0,12,45.0,30.0,3,0.376,0.0,1408.146,0.2,1,2018-06-21 14:42:41.000,83,2018-06-21 15:06:08.076,0.25,90,-180,-30,-120,1
2416,64,0,1416.38,0,-150,1,0.25,2,9,0.0,1.0,6,45.0,30.0,9,0.601,0.0,1420.004,0.0,0,2018-06-21 14:42:41.000,83,2018-06-21 15:06:17.380,0.25,90,0,150,-120,1
2417,66,0,1438.2020000000002,0,-150,1,0.25,2,3,0.0,1.0,12,45.0,30.0,3,0.526,0.0,1439.487,0.2,1,2018-06-21 14:42:41.000,83,2018-06-21 15:06:39.202,0.25,90,-180,-30,-120,1
2450,50,0,1539.193,0,0,1,0.25,2,9,0.0,1.0,6,45.0,30.0,9,0.601,1.0,1541.04,0.2,1,2018-06-22 07:35:48.000,69,2018-06-22 08:01:27.193,0.25,-90,0,0,-90,1
2451,51,0,1555.68,0,0,1,0.25,2,9,0.0,1.0,6,45.0,30.0,9,0.301,0.0,1557.4489999999996,0.0,0,2018-06-22 07:35:48.000,69,2018-06-22 08:01:43.680,0.25,90,0,0,90,1
2452,53,0,1632.284,0,0,1,0.25,2,9,0.0,1.0,6,45.0,30.0,9,0.451,0.0,1633.299,0.0,0,2018-06-22 07:35:48.000,69,2018-06-22 08:03:00.284,0.25,90,0,0,90,1
2453,55,0,1668.207,0,0,1,0.25,2,3,0.0,1.0,12,45.0,30.0,3,0.601,0.0,1669.085,0.2,1,2018-06-22 07:35:48.000,69,2018-06-22 08:03:36.207,0.25,90,-180,-180,90,1
2454,56,0,1678.842,0,0,1,0.25,2,9,0.0,1.0,6,45.0,30.0,9,0.601,0.0,1680.7479999999996,0.0,0,2018-06-22 07:35:48.000,69,2018-06-22 08:03:46.842,0.25,90,0,0,90,1
2455,59,0,1713.914,0,0,1,0.25,2,9,0.0,1.0,6,45.0,30.0,9,0.301,0.0,1715.906,0.0,0,2018-06-22 07:35:48.000,69,2018-06-22 08:04:21.914,0.25,90,0,0,90,1
2456,61,0,1751.511,0,0,1,0.25,2,9,0.0,1.0,6,45.0,30.0,9,0.451,1.0,1753.014,0.2,1,2018-06-22 07:35:48.000,69,2018-06-22 08:04:59.511,0.25,-90,0,0,-90,1
2457,62,0,1775.042,0,0,1,0.25,2,3,0.0,1.0,12,45.0,30.0,3,0.376,0.0,1776.6760000000004,0.2,1,2018-06-22 07:35:48.000,69,2018-06-22 08:05:23.042,0.25,90,-180,-180,90,1
2458,63,0,1806.666,0,0,1,0.25,2,9,0.0,1.0,6,45.0,30.0,9,0.601,1.0,1808.276,0.2,1,2018-06-22 07:35:48.000,69,2018-06-22 08:05:54.666,0.25,-90,0,0,-90,1
2459,64,0,1821.827,0,0,1,0.25,2,9,0.0,1.0,6,45.0,30.0,9,0.526,1.0,1823.492,0.2,1,2018-06-22 07:35:48.000,69,2018-06-22 08:06:09.827,0.25,-90,0,0,-90,1
2516,69,0,1039.6989999999996,0,180,1,0.25,2,3,0.0,1.0,12,45.0,30.0,3,0.376,0.0,1041.353,0.2,1,2018-06-22 14:08:02.000,101,2018-06-22 14:25:21.699,0.25,90,-180,0,-90,1
2517,70,0,1048.049,0,180,1,0.25,2,9,0.0,1.0,6,45.0,30.0,9,0.526,0.0,1050.323,0.0,0,2018-06-22 14:08:02.000,101,2018-06-22 14:25:30.049,0.25,90,0,-180,-90,1
2518,73,0,1090.9260000000004,0,180,1,0.25,2,3,0.0,1.0,12,45.0,30.0,3,0.601,0.0,1092.525,0.2,1,2018-06-22 14:08:02.000,101,2018-06-22 14:26:12.926,0.25,90,-180,0,-90,1
2519,74,0,1103.958,0,180,1,0.25,2,3,0.0,1.0,12,45.0,30.0,3,0.451,0.0,1105.603,0.2,1,2018-06-22 14:08:02.000,101,2018-06-22 14:26:25.958,0.25,90,-180,0,-90,1
2520,75,0,1113.687,0,180,1,0.25,2,3,0.0,1.0,12,45.0,30.0,3,0.301,1.0,1116.78,0.0,0,2018-06-22 14:08:02.000,101,2018-06-22 14:26:35.687,0.25,-90,-180,0,90,1
2521,77,0,1130.282,0,180,1,0.25,2,3,0.0,1.0,12,45.0,30.0,3,0.451,0.0,1133.312,0.2,1,2018-06-22 14:08:02.000,101,2018-06-22 14:26:52.282,0.25,90,-180,0,-90,1
2522,78,0,1139.952,0,180,1,0.25,2,3,0.0,1.0,12,45.0,30.0,3,0.526,0.0,1141.513,0.2,1,2018-06-22 14:08:02.000,101,2018-06-22 14:27:01.952,0.25,90,-180,0,-90,1
2523,79,0,1150.739,0,180,1,0.25,2,3,0.0,1.0,12,45.0,30.0,3,0.301,0.0,1153.616,0.2,1,2018-06-22 14:08:02.000,101,2018-06-22 14:27:12.739,0.25,90,-180,0,-90,1
2524,80,0,1186.831,0,180,1,0.25,2,3,0.0,1.0,12,45.0,30.0,3,0.376,0.0,1188.249,0.2,1,2018-06-22 14:08:02.000,101,2018-06-22 14:27:48.831,0.25,90,-180,0,-90,1
2525,81,0,1202.929,0,180,1,0.25,2,9,0.0,1.0,6,45.0,30.0,9,0.451,0.0,1204.707,0.0,0,2018-06-22 14:08:02.000,101,2018-06-22 14:28:04.929,0.25,90,0,-180,-90,1
2573,59,0,1214.706,0,0,1,0.25,2,3,0.0,1.0,12,45.0,30.0,3,0.301,0.0,1215.722,0.2,1,2018-06-25 09:35:19.000,92,2018-06-25 09:55:33.706,0.25,90,-180,-180,90,1
2574,60,0,1223.122,0,0,1,0.25,2,3,0.0,1.0,12,45.0,30.0,3,0.451,0.0,1218.4260000000004,0.2,1,2018-06-25 09:35:19.000,92,2018-06-25 09:55:42.122,0.25,90,-180,-180,90,1
2575,61,0,1231.63,0,0,1,0.25,2,9,0.0,1.0,6,45.0,30.0,9,0.526,0.0,1232.792,0.0,0,2018-06-25 09:35:19.000,92,2018-06-25 09:55:50.630,0.25,90,0,0,90,1
2576,63,0,1245.186,0,0,1,0.25,2,3,0.0,1.0,12,45.0,30.0,3,0.376,0.0,1246.462,0.2,1,2018-06-25 09:35:19.000,92,2018-06-25 09:56:04.186,0.25,90,-180,-180,90,1
2577,64,0,1252.418,0,0,1,0.25,2,3,0.0,1.0,12,45.0,30.0,3,0.451,0.0,1253.694,0.2,1,2018-06-25 09:35:19.000,92,2018-06-25 09:56:11.418,0.25,90,-180,-180,90,1
2578,65,0,1262.156,0,0,1,0.25,2,3,0.0,1.0,12,45.0,30.0,3,0.301,0.0,1263.214,0.2,1,2018-06-25 09:35:19.000,92,2018-06-25 09:56:21.156,0.25,90,-180,-180,90,1
2579,66,0,1269.48,0,0,1,0.25,2,9,0.0,1.0,6,45.0,30.0,9,0.601,1.0,1271.192,0.2,1,2018-06-25 09:35:19.000,92,2018-06-25 09:56:28.480,0.25,-90,0,0,-90,1
2580,67,0,1282.163,0,0,1,0.25,2,9,0.0,1.0,6,45.0,30.0,9,0.526,0.0,1283.598,0.0,0,2018-06-25 09:35:19.000,92,2018-06-25 09:56:41.163,0.25,90,0,0,90,1
2581,69,0,1296.701,0,0,1,0.25,2,9,0.0,1.0,6,45.0,30.0,9,0.301,1.0,1300.543,0.2,1,2018-06-25 09:35:19.000,92,2018-06-25 09:56:55.701,0.25,-90,0,0,-90,1
2582,70,0,1309.085,0,0,1,0.25,2,9,0.0,1.0,6,45.0,30.0,9,0.376,0.0,1311.483,0.0,0,2018-06-25 09:35:19.000,92,2018-06-25 09:57:08.085,0.25,90,0,0,90,1
2733,60,0,1085.856,0,30,1,0.25,2,3,0.0,1.0,12,45.0,30.0,3,0.601,0.0,1086.95,0.2,1,2018-06-26 14:52:03.000,213,2018-06-26 15:10:08.856,0.25,90,-180,150,60,1
2734,61,0,1097.995,0,30,1,0.25,2,9,0.0,1.0,6,45.0,30.0,9,0.601,1.0,1099.266,0.2,1,2018-06-26 14:52:03.000,213,2018-06-26 15:10:20.995,0.25,-90,0,-30,-120,1
2735,62,0,1109.669,0,30,1,0.25,2,3,0.0,1.0,12,45.0,30.0,3,0.526,0.0,1110.669,0.2,1,2018-06-26 14:52:03.000,213,2018-06-26 15:10:32.669,0.25,90,-180,150,60,1
2736,63,0,1116.384,0,30,1,0.25,2,9,0.0,1.0,6,45.0,30.0,9,0.376,1.0,1118.657,0.2,1,2018-06-26 14:52:03.000,213,2018-06-26 15:10:39.384,0.25,-90,0,-30,-120,1
2737,64,0,1135.812,0,30,1,0.25,2,3,0.0,1.0,12,45.0,30.0,3,0.451,0.0,1136.971,0.2,1,2018-06-26 14:52:03.000,213,2018-06-26 15:10:58.812,0.25,90,-180,150,60,1
2738,65,0,1143.49,0,30,1,0.25,2,3,0.0,1.0,12,45.0,30.0,3,0.301,0.0,1144.585,0.2,1,2018-06-26 14:52:03.000,213,2018-06-26 15:11:06.490,0.25,90,-180,150,60,1
2739,66,0,1150.136,0,30,1,0.25,2,9,0.0,1.0,6,45.0,30.0,9,0.601,1.0,1151.599,0.2,1,2018-06-26 14:52:03.000,213,2018-06-26 15:11:13.136,0.25,-90,0,-30,-120,1
2740,67,0,1160.005,0,30,1,0.25,2,9,0.0,1.0,6,45.0,30.0,9,0.451,1.0,1162.754,0.2,1,2018-06-26 14:52:03.000,213,2018-06-26 15:11:23.005,0.25,-90,0,-30,-120,1
2741,68,0,1175.922,0,30,1,0.25,2,3,0.0,1.0,12,45.0,30.0,3,0.301,0.0,1177.23,0.2,1,2018-06-26 14:52:03.000,213,2018-06-26 15:11:38.922,0.25,90,-180,150,60,1
2742,69,0,1186.037,0,30,1,0.25,2,9,0.0,1.0,6,45.0,30.0,9,0.376,1.0,1189.989,0.2,1,2018-06-26 14:52:03.000,213,2018-06-26 15:11:49.037,0.25,-90,0,-30,-120,1
2793,68,0,1020.178,0,150,1,0.25,2,3,0.0,1.0,12,45.0,30.0,3,0.526,0.0,1021.554,0.2,1,2018-06-27 09:38:26.000,70,2018-06-27 09:55:26.178,0.25,90,-180,30,-60,1
2794,69,0,1029.181,0,150,1,0.25,2,9,0.0,1.0,6,45.0,30.0,9,0.451,1.0,1031.453,0.2,1,2018-06-27 09:38:26.000,70,2018-06-27 09:55:35.181,0.25,-90,0,-150,120,1
2795,70,0,1053.941,0,150,1,0.25,2,9,0.0,1.0,6,45.0,30.0,9,0.301,0.0,1055.14,0.0,0,2018-06-27 09:38:26.000,70,2018-06-27 09:55:59.941,0.25,90,0,-150,-60,1
2796,73,0,1081.507,0,150,1,0.25,2,9,0.0,1.0,6,45.0,30.0,9,0.526,0.0,1082.617,0.0,0,2018-06-27 09:38:26.000,70,2018-06-27 09:56:27.507,0.25,90,0,-150,-60,1
2797,75,0,1100.371,0,150,1,0.25,2,3,0.0,1.0,12,45.0,30.0,3,0.301,0.0,1101.566,0.2,1,2018-06-27 09:38:26.000,70,2018-06-27 09:56:46.371,0.25,90,-180,30,-60,1
2798,76,0,1117.21,0,150,1,0.25,2,3,0.0,1.0,12,45.0,30.0,3,0.376,0.0,1118.696,0.2,1,2018-06-27 09:38:26.000,70,2018-06-27 09:57:03.210,0.25,90,-180,30,-60,1
2799,77,0,1124.559,0,150,1,0.25,2,3,0.0,1.0,12,45.0,30.0,3,0.526,0.0,1126.105,0.2,1,2018-06-27 09:38:26.000,70,2018-06-27 09:57:10.559,0.25,90,-180,30,-60,1
2800,78,0,1134.675,0,150,1,0.25,2,9,0.0,1.0,6,45.0,30.0,9,0.601,1.0,1137.016,0.2,1,2018-06-27 09:38:26.000,70,2018-06-27 09:57:20.675,0.25,-90,0,-150,120,1
2801,79,0,1143.376,0,150,1,0.25,2,9,0.0,1.0,6,45.0,30.0,9,0.301,0.0,1144.543,0.0,0,2018-06-27 09:38:26.000,70,2018-06-27 09:57:29.376,0.25,90,0,-150,-60,1
2802,82,0,1192.136,0,150,1,0.25,2,3,0.0,1.0,12,45.0,30.0,3,0.376,0.0,1193.513,0.2,1,2018-06-27 09:38:26.000,70,2018-06-27 09:58:18.136,0.25,90,-180,30,-60,1
2845,50,0,750.977,0,-120,1,0.25,2,9,0.0,1.0,6,45.0,30.0,9,0.526,0.0,756.067,0.0,0,2018-06-27 14:32:52.000,37,2018-06-27 14:45:22.977,0.25,90,0,120,-150,1
2846,52,0,793.8560000000001,0,-120,1,0.25,2,3,0.0,1.0,12,45.0,30.0,3,0.376,0.0,795.255,0.2,1,2018-06-27 14:32:52.000,37,2018-06-27 14:46:05.856,0.25,90,-180,-60,-150,1
2847,53,0,833.263,0,-120,1,0.25,2,9,0.0,1.0,6,45.0,30.0,9,0.601,0.0,834.9739999999998,0.0,0,2018-06-27 14:32:52.000,37,2018-06-27 14:46:45.263,0.25,90,0,120,-150,1
2848,55,0,848.29,0,-120,1,0.25,2,3,0.0,1.0,12,45.0,30.0,3,0.451,0.0,849.7239999999998,0.2,1,2018-06-27 14:32:52.000,37,2018-06-27 14:47:00.290,0.25,90,-180,-60,-150,1
2849,56,0,864.7639999999999,0,-120,1,0.25,2,3,0.0,1.0,12,45.0,30.0,3,0.301,0.0,865.908,0.2,1,2018-06-27 14:32:52.000,37,2018-06-27 14:47:16.764,0.25,90,-180,-60,-150,1
2850,57,0,882.797,0,-120,1,0.25,2,3,0.0,1.0,12,45.0,30.0,3,0.376,0.0,884.1460000000002,0.2,1,2018-06-27 14:32:52.000,37,2018-06-27 14:47:34.797,0.25,90,-180,-60,-150,1
2851,58,0,897.164,0,-120,1,0.25,2,9,0.0,1.0,6,45.0,30.0,9,0.601,1.0,898.422,0.2,1,2018-06-27 14:32:52.000,37,2018-06-27 14:47:49.164,0.25,-90,0,120,30,1
2852,59,0,906.408,0,-120,1,0.25,2,9,0.0,1.0,6,45.0,30.0,9,0.526,1.0,907.35,0.2,1,2018-06-27 14:32:52.000,37,2018-06-27 14:47:58.408,0.25,-90,0,120,30,1
2853,60,0,924.495,0,-120,1,0.25,2,9,0.0,1.0,6,45.0,30.0,9,0.451,1.0,926.269,0.2,1,2018-06-27 14:32:52.000,37,2018-06-27 14:48:16.495,0.25,-90,0,120,30,1
2854,61,0,949.982,0,-120,1,0.25,2,9,0.0,1.0,6,45.0,30.0,9,0.526,0.0,959.594,0.0,0,2018-06-27 14:32:52.000,37,2018-06-27 14:48:41.982,0.25,90,0,120,-150,1
2896,50,0,911.864,0,60,1,0.25,2,9,0.0,1.0,6,45.0,30.0,9,0.301,1.0,913.215,0.2,1,2018-06-28 08:39:42.000,171,2018-06-28 08:54:53.864,0.25,-90,0,-60,-150,1
2897,51,0,928.934,0,60,1,0.25,2,9,0.0,1.0,6,45.0,30.0,9,0.451,0.0,930.926,0.0,0,2018-06-28 08:39:42.000,171,2018-06-28 08:55:10.934,0.25,90,0,-60,30,1
2898,53,0,952.898,0,60,1,0.25,2,3,0.0,1.0,12,45.0,30.0,3,0.601,0.0,953.876,0.2,1,2018-06-28 08:39:42.000,171,2018-06-28 08:55:34.898,0.25,90,-180,120,30,1
2899,54,0,961.311,0,60,1,0.25,2,3,0.0,1.0,12,45.0,30.0,3,0.376,0.0,962.302,0.2,1,2018-06-28 08:39:42.000,171,2018-06-28 08:55:43.311,0.25,90,-180,120,30,1
2900,55,0,969.457,0,60,1,0.25,2,9,0.0,1.0,6,45.0,30.0,9,0.301,1.0,972.676,0.2,1,2018-06-28 08:39:42.000,171,2018-06-28 08:55:51.457,0.25,-90,0,-60,-150,1
2901,56,0,987.464,0,60,1,0.25,2,9,0.0,1.0,6,45.0,30.0,9,0.451,1.0,988.758,0.2,1,2018-06-28 08:39:42.000,171,2018-06-28 08:56:09.464,0.25,-90,0,-60,-150,1
2902,57,0,1005.125,0,60,1,0.25,2,3,0.0,1.0,12,45.0,30.0,3,0.601,0.0,1006.468,0.2,1,2018-06-28 08:39:42.000,171,2018-06-28 08:56:27.125,0.25,90,-180,120,30,1
2903,58,0,1015.631,0,60,1,0.25,2,9,0.0,1.0,6,45.0,30.0,9,0.301,1.0,1019.006,0.2,1,2018-06-28 08:39:42.000,171,2018-06-28 08:56:37.631,0.25,-90,0,-60,-150,1
2904,59,0,1030.075,0,60,1,0.25,2,3,0.0,1.0,12,45.0,30.0,3,0.376,0.0,1031.093,0.2,1,2018-06-28 08:39:42.000,171,2018-06-28 08:56:52.075,0.25,90,-180,120,30,1
2905,60,0,1038.843,0,60,1,0.25,2,3,0.0,1.0,12,45.0,30.0,3,0.526,0.0,1040.168,0.2,1,2018-06-28 08:39:42.000,171,2018-06-28 08:57:00.843,0.25,90,-180,120,30,1
2958,64,0,884.76,0,-30,1,0.25,2,3,0.0,1.0,12,45.0,30.0,3,0.601,0.0,885.811,0.2,1,2018-06-28 14:40:47.000,93,2018-06-28 14:55:31.760,0.25,90,-180,-150,120,1
2959,65,0,894.169,0,-30,1,0.25,2,9,0.0,1.0,6,45.0,30.0,9,0.376,1.0,899.962,0.2,1,2018-06-28 14:40:47.000,93,2018-06-28 14:55:41.169,0.25,-90,0,30,-60,1
2960,66,0,918.624,0,-30,1,0.25,2,3,0.0,1.0,12,45.0,30.0,3,0.601,0.0,919.538,0.2,1,2018-06-28 14:40:47.000,93,2018-06-28 14:56:05.624,0.25,90,-180,-150,120,1
2961,67,0,928.504,0,-30,1,0.25,2,3,0.0,1.0,12,45.0,30.0,3,0.376,0.0,929.314,0.2,1,2018-06-28 14:40:47.000,93,2018-06-28 14:56:15.504,0.25,90,-180,-150,120,1
2962,68,0,937.489,0,-30,1,0.25,2,9,0.0,1.0,6,45.0,30.0,9,0.526,1.0,942.502,0.2,1,2018-06-28 14:40:47.000,93,2018-06-28 14:56:24.489,0.25,-90,0,30,-60,1
2963,69,0,963.343,0,-30,1,0.25,2,3,0.0,1.0,12,45.0,30.0,3,0.451,0.0,964.349,0.2,1,2018-06-28 14:40:47.000,93,2018-06-28 14:56:50.343,0.25,90,-180,-150,120,1
2964,70,0,976.188,0,-30,1,0.25,2,9,0.0,1.0,6,45.0,30.0,9,0.301,1.0,978.73,0.2,1,2018-06-28 14:40:47.000,93,2018-06-28 14:57:03.188,0.25,-90,0,30,-60,1
2965,71,0,996.749,0,-30,1,0.25,2,9,0.0,1.0,6,45.0,30.0,9,0.301,0.0,998.32,0.0,0,2018-06-28 14:40:47.000,93,2018-06-28 14:57:23.749,0.25,90,0,30,120,1
2966,75,0,1037.364,0,-30,1,0.25,2,3,0.0,1.0,12,45.0,30.0,3,0.451,0.0,1038.372,0.2,1,2018-06-28 14:40:47.000,93,2018-06-28 14:58:04.364,0.25,90,-180,-150,120,1
2967,76,0,1044.655,0,-30,1,0.25,2,9,0.0,1.0,6,45.0,30.0,9,0.451,0.0,1049.787,0.0,0,2018-06-28 14:40:47.000,93,2018-06-28 14:58:11.655,0.25,90,0,30,120,1
3003,43,0,857.2489999999998,0,-90,1,0.25,2,9,0.0,1.0,6,45.0,30.0,9,0.526,1.0,858.585,0.2,1,2018-06-29 08:57:09.000,46,2018-06-29 09:11:26.249,0.25,-90,0,90,0,1
3004,44,0,873.3560000000001,0,-90,1,0.25,2,9,0.0,1.0,6,45.0,30.0,9,0.451,0.0,875.02,0.0,0,2018-06-29 08:57:09.000,46,2018-06-29 09:11:42.356,0.25,90,0,90,-180,1
3005,46,0,903.393,0,-90,1,0.25,2,9,0.0,1.0,6,45.0,30.0,9,0.376,0.0,904.754,0.0,0,2018-06-29 08:57:09.000,46,2018-06-29 09:12:12.393,0.25,90,0,90,-180,1
3006,48,0,929.194,0,-90,1,0.25,2,3,0.0,1.0,12,45.0,30.0,3,0.526,0.0,930.675,0.2,1,2018-06-29 08:57:09.000,46,2018-06-29 09:12:38.194,0.25,90,-180,-90,-180,1
3007,49,0,940.819,0,-90,1,0.25,2,3,0.0,1.0,12,45.0,30.0,3,0.301,0.0,941.973,0.2,1,2018-06-29 08:57:09.000,46,2018-06-29 09:12:49.819,0.25,90,-180,-90,-180,1
3008,50,0,956.617,0,-90,1,0.25,2,3,0.0,1.0,12,45.0,30.0,3,0.601,0.0,957.957,0.2,1,2018-06-29 08:57:09.000,46,2018-06-29 09:13:05.617,0.25,90,-180,-90,-180,1
3009,51,0,971.21,0,-90,1,0.25,2,3,0.0,1.0,12,45.0,30.0,3,0.376,0.0,972.504,0.2,1,2018-06-29 08:57:09.000,46,2018-06-29 09:13:20.210,0.25,90,-180,-90,-180,1
3010,52,0,989.551,0,-90,1,0.25,2,3,0.0,1.0,12,45.0,30.0,3,0.601,0.0,975.985,0.2,1,2018-06-29 08:57:09.000,46,2018-06-29 09:13:38.551,0.25,90,-180,-90,-180,1
3011,53,0,1043.112,0,-90,1,0.25,2,3,0.0,1.0,12,45.0,30.0,3,0.526,0.0,1044.583,0.2,1,2018-06-29 08:57:09.000,46,2018-06-29 09:14:32.112,0.25,90,-180,-90,-180,1
3012,54,0,1054.142,0,-90,1,0.25,2,9,0.0,1.0,6,45.0,30.0,9,0.301,0.0,1056.865,0.0,0,2018-06-29 08:57:09.000,46,2018-06-29 09:14:43.142,0.25,90,0,90,-180,1
3064,64,0,1159.607,0,0,1,0.25,2,3,0.0,1.0,12,45.0,30.0,3,0.301,0.0,1160.703,0.2,1,2018-06-29 15:31:26.000,32,2018-06-29 15:50:45.607,0.25,90,-180,-180,90,1
3065,65,0,1167.365,0,0,1,0.25,2,3,0.0,1.0,12,45.0,30.0,3,0.451,0.0,1168.256,0.2,1,2018-06-29 15:31:26.000,32,2018-06-29 15:50:53.365,0.25,90,-180,-180,90,1
3066,66,0,1177.345,0,0,1,0.25,2,3,0.0,1.0,12,45.0,30.0,3,0.526,0.0,1178.275,0.2,1,2018-06-29 15:31:26.000,32,2018-06-29 15:51:03.345,0.25,90,-180,-180,90,1
3067,67,0,1186.1,0,0,1,0.25,2,9,0.0,1.0,6,45.0,30.0,9,0.376,1.0,1188.536,0.2,1,2018-06-29 15:31:26.000,32,2018-06-29 15:51:12.100,0.25,-90,0,0,-90,1
3068,68,0,1201.053,0,0,1,0.25,2,3,0.0,1.0,12,45.0,30.0,3,0.451,0.0,1201.955,0.2,1,2018-06-29 15:31:26.000,32,2018-06-29 15:51:27.053,0.25,90,-180,-180,90,1
3069,69,0,1212.218,0,0,1,0.25,2,3,0.0,1.0,12,45.0,30.0,3,0.601,0.0,1213.162,0.2,1,2018-06-29 15:31:26.000,32,2018-06-29 15:51:38.218,0.25,90,-180,-180,90,1
3070,70,0,1221.236,0,0,1,0.25,2,9,0.0,1.0,6,45.0,30.0,9,0.301,1.0,1223.953,0.2,1,2018-06-29 15:31:26.000,32,2018-06-29 15:51:47.236,0.25,-90,0,0,-90,1
3071,71,0,1242.412,0,0,1,0.25,2,9,0.0,1.0,6,45.0,30.0,9,0.376,0.0,1243.778,0.0,0,2018-06-29 15:31:26.000,32,2018-06-29 15:52:08.412,0.25,90,0,0,90,1
3072,73,0,1260.896,0,0,1,0.25,2,9,0.0,1.0,6,45.0,30.0,9,0.451,0.0,1261.894,0.0,0,2018-06-29 15:31:26.000,32,2018-06-29 15:52:26.896,0.25,90,0,0,90,1
3073,76,0,1303.285,0,0,1,0.25,2,9,0.0,1.0,6,45.0,30.0,9,0.451,0.0,1305.165,0.0,0,2018-06-29 15:31:26.000,32,2018-06-29 15:53:09.285,0.25,90,0,0,90,1
3266,52,0,831.653,0,90,1,0.25,2,9,0.0,1.0,6,45.0,30.0,9,0.451,1.0,833.765,0.2,1,2018-07-10 15:06:11.000,87,2018-07-10 15:20:02.653,0.25,-90,0,-90,-180,1
3267,53,0,858.9060000000002,0,90,1,0.25,2,9,0.0,1.0,6,45.0,30.0,9,0.526,1.0,860.5889999999998,0.2,1,2018-07-10 15:06:11.000,87,2018-07-10 15:20:29.906,0.25,-90,0,-90,-180,1
3268,54,0,868.587,0,90,1,0.25,2,9,0.0,1.0,6,45.0,30.0,9,0.601,1.0,869.841,0.2,1,2018-07-10 15:06:11.000,87,2018-07-10 15:20:39.587,0.25,-90,0,-90,-180,1
3269,55,0,890.2639999999999,0,90,1,0.25,2,9,0.0,1.0,6,45.0,30.0,9,0.301,1.0,892.048,0.2,1,2018-07-10 15:06:11.000,87,2018-07-10 15:21:01.264,0.25,-90,0,-90,-180,1
3270,56,0,898.204,0,90,1,0.25,2,3,0.0,1.0,12,45.0,30.0,3,0.451,0.0,899.315,0.2,1,2018-07-10 15:06:11.000,87,2018-07-10 15:21:09.204,0.25,90,-180,90,0,1
3271,57,0,906.192,0,90,1,0.25,2,9,0.0,1.0,6,45.0,30.0,9,0.301,0.0,909.858,0.0,0,2018-07-10 15:06:11.000,87,2018-07-10 15:21:17.192,0.25,90,0,-90,0,1
3272,59,0,928.313,0,90,1,0.25,2,3,0.0,1.0,12,45.0,30.0,3,0.376,0.0,929.479,0.2,1,2018-07-10 15:06:11.000,87,2018-07-10 15:21:39.313,0.25,90,-180,90,0,1
3273,60,0,935.862,0,90,1,0.25,2,9,0.0,1.0,6,45.0,30.0,9,0.601,1.0,937.47,0.2,1,2018-07-10 15:06:11.000,87,2018-07-10 15:21:46.862,0.25,-90,0,-90,-180,1
3274,61,0,949.134,0,90,1,0.25,2,3,0.0,1.0,12,45.0,30.0,3,0.451,0.0,950.228,0.2,1,2018-07-10 15:06:11.000,87,2018-07-10 15:22:00.134,0.25,90,-180,90,0,1
3275,62,0,955.817,0,90,1,0.25,2,9,0.0,1.0,6,45.0,30.0,9,0.526,1.0,957.064,0.2,1,2018-07-10 15:06:11.000,87,2018-07-10 15:22:06.817,0.25,-90,0,-90,-180,1
3306,41,0,535.663,0,120,1,0.25,2,3,0.0,1.0,12,45.0,30.0,3,0.451,0.0,536.993,0.2,1,2018-07-11 09:26:14.000,197,2018-07-11 09:35:09.663,0.25,90,-180,60,-30,1
3307,42,0,552.328,0,120,1,0.25,2,3,0.0,1.0,12,45.0,30.0,3,0.601,0.0,553.79,0.2,1,2018-07-11 09:26:14.000,197,2018-07-11 09:35:26.328,0.25,90,-180,60,-30,1
3308,43,0,560.279,0,120,1,0.25,2,3,0.0,1.0,12,45.0,30.0,3,0.526,0.0,561.55,0.2,1,2018-07-11 09:26:14.000,197,2018-07-11 09:35:34.279,0.25,90,-180,60,-30,1
3309,44,0,573.097,0,120,1,0.25,2,3,0.0,1.0,12,45.0,30.0,3,0.376,1.0,575.8340000000002,0.0,0,2018-07-11 09:26:14.000,197,2018-07-11 09:35:47.097,0.25,-90,-180,60,150,1
3310,46,0,588.2819999999998,0,120,1,0.25,2,3,0.0,1.0,12,45.0,30.0,3,0.451,0.0,589.7080000000002,0.2,1,2018-07-11 09:26:14.000,197,2018-07-11 09:36:02.282,0.25,90,-180,60,-30,1
3311,47,0,594.849,0,120,1,0.25,2,9,0.0,1.0,6,45.0,30.0,9,0.301,1.0,602.189,0.2,1,2018-07-11 09:26:14.000,197,2018-07-11 09:36:08.849,0.25,-90,0,-120,150,1
3312,48,0,610.566,0,120,1,0.25,2,3,0.0,1.0,12,45.0,30.0,3,0.601,0.0,611.365,0.2,1,2018-07-11 09:26:14.000,197,2018-07-11 09:36:24.566,0.25,90,-180,60,-30,1
3313,49,0,618.444,0,120,1,0.25,2,3,0.0,1.0,12,45.0,30.0,3,0.526,1.0,620.212,0.0,0,2018-07-11 09:26:14.000,197,2018-07-11 09:36:32.444,0.25,-90,-180,60,150,1
3314,51,0,636.235,0,120,1,0.25,2,9,0.0,1.0,6,45.0,30.0,9,0.376,1.0,637.827,0.2,1,2018-07-11 09:26:14.000,197,2018-07-11 09:36:50.235,0.25,-90,0,-120,150,1
3315,52,0,659.627,0,120,1,0.25,2,9,0.0,1.0,6,45.0,30.0,9,0.601,0.0,661.763,0.0,0,2018-07-11 09:26:14.000,197,2018-07-11 09:37:13.627,0.25,90,0,-120,-30,1
3347,34,0,564.939,0,60,1,0.25,2,3,0.0,1.0,12,45.0,30.0,3,0.376,0.0,565.989,0.2,1,2018-07-11 15:30:16.000,47,2018-07-11 15:39:40.939,0.25,90,-180,120,30,1
3348,35,0,573.634,0,60,1,0.25,2,9,0.0,1.0,6,45.0,30.0,9,0.451,1.0,575.415,0.2,1,2018-07-11 15:30:16.000,47,2018-07-11 15:39:49.634,0.25,-90,0,-60,-150,1
3349,36,0,586.347,0,60,1,0.25,2,3,0.0,1.0,12,45.0,30.0,3,0.451,0.0,587.33,0.2,1,2018-07-11 15:30:16.000,47,2018-07-11 15:40:02.347,0.25,90,-180,120,30,1
3350,37,0,594.769,0,60,1,0.25,2,9,0.0,1.0,6,45.0,30.0,9,0.301,1.0,598.599,0.2,1,2018-07-11 15:30:16.000,47,2018-07-11 15:40:10.769,0.25,-90,0,-60,-150,1
3351,38,0,608.697,0,60,1,0.25,2,3,0.0,1.0,12,45.0,30.0,3,0.376,0.0,609.688,0.2,1,2018-07-11 15:30:16.000,47,2018-07-11 15:40:24.697,0.25,90,-180,120,30,1
3352,39,0,633.518,0,60,1,0.25,2,3,0.0,1.0,12,45.0,30.0,3,0.601,0.0,635.078,0.2,1,2018-07-11 15:30:16.000,47,2018-07-11 15:40:49.518,0.25,90,-180,120,30,1
3353,40,0,642.795,0,60,1,0.25,2,9,0.0,1.0,6,45.0,30.0,9,0.526,1.0,644.03,0.2,1,2018-07-11 15:30:16.000,47,2018-07-11 15:40:58.795,0.25,-90,0,-60,-150,1
3354,41,0,655.654,0,60,1,0.25,2,3,0.0,1.0,12,45.0,30.0,3,0.376,0.0,656.5319999999998,0.2,1,2018-07-11 15:30:16.000,47,2018-07-11 15:41:11.654,0.25,90,-180,120,30,1
3355,42,0,666.455,0,60,1,0.25,2,3,0.0,1.0,12,45.0,30.0,3,0.526,0.0,667.8969999999998,0.2,1,2018-07-11 15:30:16.000,47,2018-07-11 15:41:22.455,0.25,90,-180,120,30,1
3356,43,0,684.465,0,60,1,0.25,2,9,0.0,1.0,6,45.0,30.0,9,0.451,1.0,685.6410000000002,0.2,1,2018-07-11 15:30:16.000,47,2018-07-11 15:41:40.465,0.25,-90,0,-60,-150,1
3396,54,0,752.1460000000002,0,150,1,0.25,2,9,0.0,1.0,6,45.0,30.0,9,0.451,1.0,753.43,0.2,1,2018-07-12 09:39:41.000,80,2018-07-12 09:52:13.146,0.25,-90,0,-150,120,1
3397,55,0,762.2130000000002,0,150,1,0.25,2,9,0.0,1.0,6,45.0,30.0,9,0.526,0.0,763.201,0.0,0,2018-07-12 09:39:41.000,80,2018-07-12 09:52:23.213,0.25,90,0,-150,-60,1
3398,57,0,776.8660000000001,0,150,1,0.25,2,9,0.0,1.0,6,45.0,30.0,9,0.601,1.0,778.944,0.2,1,2018-07-12 09:39:41.000,80,2018-07-12 09:52:37.866,0.25,-90,0,-150,120,1
3399,58,0,792.0269999999998,0,150,1,0.25,2,9,0.0,1.0,6,45.0,30.0,9,0.301,1.0,792.94,0.2,1,2018-07-12 09:39:41.000,80,2018-07-12 09:52:53.027,0.25,-90,0,-150,120,1
3400,59,0,803.447,0,150,1,0.25,2,9,0.0,1.0,6,45.0,30.0,9,0.526,1.0,804.602,0.2,1,2018-07-12 09:39:41.000,80,2018-07-12 09:53:04.447,0.25,-90,0,-150,120,1
3401,60,0,819.834,0,150,1,0.25,2,3,0.0,1.0,12,45.0,30.0,3,0.376,0.0,821.4069999999998,0.2,1,2018-07-12 09:39:41.000,80,2018-07-12 09:53:20.834,0.25,90,-180,30,-60,1
3402,61,0,828.595,0,150,1,0.25,2,9,0.0,1.0,6,45.0,30.0,9,0.451,0.0,831.415,0.0,0,2018-07-12 09:39:41.000,80,2018-07-12 09:53:29.595,0.25,90,0,-150,-60,1
3403,63,0,845.319,0,150,1,0.25,2,9,0.0,1.0,6,45.0,30.0,9,0.601,0.0,846.288,0.0,0,2018-07-12 09:39:41.000,80,2018-07-12 09:53:46.319,0.25,90,0,-150,-60,1
3404,66,0,930.65,0,150,1,0.25,2,3,0.0,1.0,12,45.0,30.0,3,0.601,0.0,932.047,0.2,1,2018-07-12 09:39:41.000,80,2018-07-12 09:55:11.650,0.25,90,-180,30,-60,1
3405,67,0,937.618,0,150,1,0.25,2,9,0.0,1.0,6,45.0,30.0,9,0.376,1.0,938.993,0.2,1,2018-07-12 09:39:41.000,80,2018-07-12 09:55:18.618,0.25,-90,0,-150,120,1
3443,48,0,646.01,0,180,1,0.25,2,9,0.0,1.0,6,45.0,30.0,9,0.601,0.0,647.445,0.0,0,2018-07-12 15:23:18.000,144,2018-07-12 15:34:04.010,0.25,90,0,-180,-90,1
3444,50,0,659.073,0,180,1,0.25,2,9,0.0,1.0,6,45.0,30.0,9,0.376,0.0,660.6210000000002,0.0,0,2018-07-12 15:23:18.000,144,2018-07-12 15:34:17.073,0.25,90,0,-180,-90,1
3445,52,0,673.21,0,180,1,0.25,2,3,0.0,1.0,12,45.0,30.0,3,0.376,0.0,674.3889999999999,0.2,1,2018-07-12 15:23:18.000,144,2018-07-12 15:34:31.210,0.25,90,-180,0,-90,1
3446,53,0,683.596,0,180,1,0.25,2,3,0.0,1.0,12,45.0,30.0,3,0.301,0.0,685.143,0.2,1,2018-07-12 15:23:18.000,144,2018-07-12 15:34:41.596,0.25,90,-180,0,-90,1
3447,54,0,692.778,0,180,1,0.25,2,9,0.0,1.0,6,45.0,30.0,9,0.526,0.0,694.403,0.0,0,2018-07-12 15:23:18.000,144,2018-07-12 15:34:50.778,0.25,90,0,-180,-90,1
3448,56,0,708.382,0,180,1,0.25,2,3,0.0,1.0,12,45.0,30.0,3,0.376,0.0,709.416,0.2,1,2018-07-12 15:23:18.000,144,2018-07-12 15:35:06.382,0.25,90,-180,0,-90,1
3449,57,0,717.9169999999998,0,180,1,0.25,2,3,0.0,1.0,12,45.0,30.0,3,0.526,0.0,718.9760000000001,0.2,1,2018-07-12 15:23:18.000,144,2018-07-12 15:35:15.917,0.25,90,-180,0,-90,1
3450,58,0,727.07,0,180,1,0.25,2,9,0.0,1.0,6,45.0,30.0,9,0.301,0.0,730.1060000000001,0.0,0,2018-07-12 15:23:18.000,144,2018-07-12 15:35:25.070,0.25,90,0,-180,-90,1
3451,60,0,774.694,0,180,1,0.25,2,9,0.0,1.0,6,45.0,30.0,9,0.601,1.0,776.273,0.2,1,2018-07-12 15:23:18.000,144,2018-07-12 15:36:12.694,0.25,-90,0,-180,90,1
3452,61,0,782.439,0,180,1,0.25,2,9,0.0,1.0,6,45.0,30.0,9,0.376,0.0,783.824,0.0,0,2018-07-12 15:23:18.000,144,2018-07-12 15:36:20.439,0.25,90,0,-180,-90,1
3477,32,0,732.199,0,0,1,0.25,2,3,0.0,1.0,12,45.0,30.0,3,0.451,0.0,733.168,0.2,1,2018-07-13 09:11:38.000,130,2018-07-13 09:23:50.199,0.25,90,-180,-180,90,1
3478,33,0,741.698,0,0,1,0.25,2,9,0.0,1.0,6,45.0,30.0,9,0.526,0.0,746.0369999999998,0.0,0,2018-07-13 09:11:38.000,130,2018-07-13 09:23:59.698,0.25,90,0,0,90,1
3479,37,0,831.563,0,0,1,0.25,2,9,0.0,1.0,6,45.0,30.0,9,0.301,0.0,836.2610000000002,0.0,0,2018-07-13 09:11:38.000,130,2018-07-13 09:25:29.563,0.25,90,0,0,90,1
3480,40,0,883.329,0,0,1,0.25,2,3,0.0,1.0,12,45.0,30.0,3,0.451,0.0,884.429,0.2,1,2018-07-13 09:11:38.000,130,2018-07-13 09:26:21.329,0.25,90,-180,-180,90,1
3481,41,0,895.328,0,0,1,0.25,2,9,0.0,1.0,6,45.0,30.0,9,0.451,0.0,897.684,0.0,0,2018-07-13 09:11:38.000,130,2018-07-13 09:26:33.328,0.25,90,0,0,90,1
3482,43,0,950.746,0,0,1,0.25,2,3,0.0,1.0,12,45.0,30.0,3,0.301,0.0,951.989,0.2,1,2018-07-13 09:11:38.000,130,2018-07-13 09:27:28.746,0.25,90,-180,-180,90,1
3483,44,0,960.18,0,0,1,0.25,2,9,0.0,1.0,6,45.0,30.0,9,0.526,1.0,962.138,0.2,1,2018-07-13 09:11:38.000,130,2018-07-13 09:27:38.180,0.25,-90,0,0,-90,1
3484,45,0,976.027,0,0,1,0.25,2,9,0.0,1.0,6,45.0,30.0,9,0.376,0.0,983.982,0.0,0,2018-07-13 09:11:38.000,130,2018-07-13 09:27:54.027,0.25,90,0,0,90,1
3485,47,0,1016.368,0,0,1,0.25,2,9,0.0,1.0,6,45.0,30.0,9,0.526,1.0,1018.877,0.2,1,2018-07-13 09:11:38.000,130,2018-07-13 09:28:34.368,0.25,-90,0,0,-90,1
3486,48,0,1026.298,0,0,1,0.25,2,9,0.0,1.0,6,45.0,30.0,9,0.601,0.0,1028.328,0.0,0,2018-07-13 09:11:38.000,130,2018-07-13 09:28:44.298,0.25,90,0,0,90,1
3528,50,0,806.529,0,-120,1,0.25,2,3,0.0,1.0,12,45.0,30.0,3,0.451,0.0,807.512,0.2,1,2018-07-13 15:43:43.000,30,2018-07-13 15:57:09.529,0.25,90,-180,-60,-150,1
3529,51,0,816.1519999999998,0,-120,1,0.25,2,9,0.0,1.0,6,45.0,30.0,9,0.451,0.0,817.557,0.0,0,2018-07-13 15:43:43.000,30,2018-07-13 15:57:19.152,0.25,90,0,120,-150,1
3530,53,0,849.482,0,-120,1,0.25,2,9,0.0,1.0,6,45.0,30.0,9,0.601,0.0,850.7919999999998,0.0,0,2018-07-13 15:43:43.000,30,2018-07-13 15:57:52.482,0.25,90,0,120,-150,1
3531,55,0,875.296,0,-120,1,0.25,2,9,0.0,1.0,6,45.0,30.0,9,0.526,0.0,877.923,0.0,0,2018-07-13 15:43:43.000,30,2018-07-13 15:58:18.296,0.25,90,0,120,-150,1
3532,57,0,907.149,0,-120,1,0.25,2,9,0.0,1.0,6,45.0,30.0,9,0.601,1.0,908.039,0.2,1,2018-07-13 15:43:43.000,30,2018-07-13 15:58:50.149,0.25,-90,0,120,30,1
3533,58,0,941.016,0,-120,1,0.25,2,9,0.0,1.0,6,45.0,30.0,9,0.376,1.0,942.094,0.2,1,2018-07-13 15:43:43.000,30,2018-07-13 15:59:24.016,0.25,-90,0,120,30,1
3534,59,0,950.978,0,-120,1,0.25,2,9,0.0,1.0,6,45.0,30.0,9,0.451,1.0,952.117,0.2,1,2018-07-13 15:43:43.000,30,2018-07-13 15:59:33.978,0.25,-90,0,120,30,1
3535,60,0,960.996,0,-120,1,0.25,2,9,0.0,1.0,6,45.0,30.0,9,0.526,1.0,961.98,0.2,1,2018-07-13 15:43:43.000,30,2018-07-13 15:59:43.996,0.25,-90,0,120,30,1
3536,61,0,1055.067,0,-120,1,0.25,2,3,0.0,1.0,12,45.0,30.0,3,0.526,0.0,1056.047,0.2,1,2018-07-13 15:43:43.000,30,2018-07-13 16:01:18.067,0.25,90,-180,-60,-150,1
3537,62,0,1068.314,0,-120,1,0.25,2,3,0.0,1.0,12,45.0,30.0,3,0.451,0.0,1069.723,0.2,1,2018-07-13 15:43:43.000,30,2018-07-13 16:01:31.314,0.25,90,-180,-60,-150,1
3577,45,0,740.825,0,0,1,0.25,2,3,0.0,1.0,12,45.0,30.0,3,0.451,0.0,741.591,0.2,1,2018-07-16 09:44:04.000,154,2018-07-16 09:56:24.825,0.25,90,-180,-180,90,1
3578,46,0,749.47,0,0,1,0.25,2,9,0.0,1.0,6,45.0,30.0,9,0.376,0.0,751.768,0.0,0,2018-07-16 09:44:04.000,154,2018-07-16 09:56:33.470,0.25,90,0,0,90,1
3579,48,0,772.7689999999999,0,0,1,0.25,2,3,0.0,1.0,12,45.0,30.0,3,0.451,0.0,773.699,0.2,1,2018-07-16 09:44:04.000,154,2018-07-16 09:56:56.769,0.25,90,-180,-180,90,1
3580,49,0,786.245,0,0,1,0.25,2,9,0.0,1.0,6,45.0,30.0,9,0.301,1.0,795.15,0.2,1,2018-07-16 09:44:04.000,154,2018-07-16 09:57:10.245,0.25,-90,0,0,-90,1
3581,50,0,816.3489999999998,0,0,1,0.25,2,3,0.0,1.0,12,45.0,30.0,3,0.601,0.0,817.086,0.2,1,2018-07-16 09:44:04.000,154,2018-07-16 09:57:40.349,0.25,90,-180,-180,90,1
3582,51,0,827.2080000000002,0,0,1,0.25,2,3,0.0,1.0,12,45.0,30.0,3,0.451,0.0,828.262,0.2,1,2018-07-16 09:44:04.000,154,2018-07-16 09:57:51.208,0.25,90,-180,-180,90,1
3583,52,0,836.512,0,0,1,0.25,2,3,0.0,1.0,12,45.0,30.0,3,0.601,0.0,837.453,0.2,1,2018-07-16 09:44:04.000,154,2018-07-16 09:58:00.512,0.25,90,-180,-180,90,1
3584,53,0,845.957,0,0,1,0.25,2,3,0.0,1.0,12,45.0,30.0,3,0.301,0.0,847.062,0.2,1,2018-07-16 09:44:04.000,154,2018-07-16 09:58:09.957,0.25,90,-180,-180,90,1
3585,54,0,854.173,0,0,1,0.25,2,3,0.0,1.0,12,45.0,30.0,3,0.526,0.0,854.965,0.2,1,2018-07-16 09:44:04.000,154,2018-07-16 09:58:18.173,0.25,90,-180,-180,90,1
3586,55,0,862.127,0,0,1,0.25,2,9,0.0,1.0,6,45.0,30.0,9,0.376,1.0,884.212,0.2,1,2018-07-16 09:44:04.000,154,2018-07-16 09:58:26.127,0.25,-90,0,0,-90,1
3613,32,0,510.189,0,-60,1,0.25,2,3,0.0,1.0,12,45.0,30.0,3,0.526,0.0,511.59,0.2,1,2018-07-16 14:46:51.000,55,2018-07-16 14:55:21.189,0.25,90,-180,-120,150,1
3614,33,0,523.823,0,-60,1,0.25,2,9,0.0,1.0,6,45.0,30.0,9,0.376,1.0,525.944,0.2,1,2018-07-16 14:46:51.000,55,2018-07-16 14:55:34.823,0.25,-90,0,60,-30,1
3615,34,0,542.153,0,-60,1,0.25,2,3,0.0,1.0,12,45.0,30.0,3,0.451,0.0,543.191,0.2,1,2018-07-16 14:46:51.000,55,2018-07-16 14:55:53.153,0.25,90,-180,-120,150,1
3616,35,0,554.383,0,-60,1,0.25,2,3,0.0,1.0,12,45.0,30.0,3,0.601,0.0,555.13,0.2,1,2018-07-16 14:46:51.000,55,2018-07-16 14:56:05.383,0.25,90,-180,-120,150,1
3617,36,0,583.437,0,-60,1,0.25,2,3,0.0,1.0,12,45.0,30.0,3,0.601,0.0,585.201,0.2,1,2018-07-16 14:46:51.000,55,2018-07-16 14:56:34.437,0.25,90,-180,-120,150,1
3618,37,0,591.0219999999998,0,-60,1,0.25,2,3,0.0,1.0,12,45.0,30.0,3,0.301,1.0,603.298,0.0,0,2018-07-16 14:46:51.000,55,2018-07-16 14:56:42.022,0.25,-90,-180,-120,-30,1
3619,39,0,626.864,0,-60,1,0.25,2,9,0.0,1.0,6,45.0,30.0,9,0.526,1.0,631.24,0.2,1,2018-07-16 14:46:51.000,55,2018-07-16 14:57:17.864,0.25,-90,0,60,-30,1
3620,40,0,636.894,0,-60,1,0.25,2,3,0.0,1.0,12,45.0,30.0,3,0.376,0.0,637.908,0.2,1,2018-07-16 14:46:51.000,55,2018-07-16 14:57:27.894,0.25,90,-180,-120,150,1
3621,41,0,645.0740000000002,0,-60,1,0.25,2,9,0.0,1.0,6,45.0,30.0,9,0.526,1.0,647.034,0.2,1,2018-07-16 14:46:51.000,55,2018-07-16 14:57:36.074,0.25,-90,0,60,-30,1
3622,42,0,696.7589999999999,0,-60,1,0.25,2,3,0.0,1.0,12,45.0,30.0,3,0.601,0.0,698.0189999999999,0.2,1,2018-07-16 14:46:51.000,55,2018-07-16 14:58:27.759,0.25,90,-180,-120,150,1
3646,25,0,344.244,0,-30,1,0.25,2,3,0.0,1.0,12,45.0,30.0,3,0.451,0.0,345.042,0.2,1,2018-07-17 09:31:10.000,22,2018-07-17 09:36:54.244,0.25,90,-180,-150,120,1
3647,26,0,356.468,0,-30,1,0.25,2,3,0.0,1.0,12,45.0,30.0,3,0.451,0.0,357.474,0.2,1,2018-07-17 09:31:10.000,22,2018-07-17 09:37:06.468,0.25,90,-180,-150,120,1
3648,27,0,363.389,0,-30,1,0.25,2,9,0.0,1.0,6,45.0,30.0,9,0.601,1.0,364.617,0.2,1,2018-07-17 09:31:10.000,22,2018-07-17 09:37:13.389,0.25,-90,0,30,-60,1
3649,28,0,380.229,0,-30,1,0.25,2,3,0.0,1.0,12,45.0,30.0,3,0.376,0.0,381.043,0.2,1,2018-07-17 09:31:10.000,22,2018-07-17 09:37:30.229,0.25,90,-180,-150,120,1
3650,29,0,388.861,0,-30,1,0.25,2,3,0.0,1.0,12,45.0,30.0,3,0.526,0.0,389.644,0.2,1,2018-07-17 09:31:10.000,22,2018-07-17 09:37:38.861,0.25,90,-180,-150,120,1
3651,30,0,396.711,0,-30,1,0.25,2,9,0.0,1.0,6,45.0,30.0,9,0.301,1.0,402.195,0.2,1,2018-07-17 09:31:10.000,22,2018-07-17 09:37:46.711,0.25,-90,0,30,-60,1
3652,31,0,406.91,0,-30,1,0.25,2,3,0.0,1.0,12,45.0,30.0,3,0.376,0.0,407.7480000000001,0.2,1,2018-07-17 09:31:10.000,22,2018-07-17 09:37:56.910,0.25,90,-180,-150,120,1
3653,32,0,435.901,0,-30,1,0.25,2,9,0.0,1.0,6,45.0,30.0,9,0.301,1.0,437.9980000000001,0.2,1,2018-07-17 09:31:10.000,22,2018-07-17 09:38:25.901,0.25,-90,0,30,-60,1
3654,33,0,457.578,0,-30,1,0.25,2,3,0.0,1.0,12,45.0,30.0,3,0.451,0.0,458.573,0.2,1,2018-07-17 09:31:10.000,22,2018-07-17 09:38:47.578,0.25,90,-180,-150,120,1
3655,34,0,524.964,0,-30,1,0.25,2,9,0.0,1.0,6,45.0,30.0,9,0.601,1.0,548.736,0.2,1,2018-07-17 09:31:10.000,22,2018-07-17 09:39:54.964,0.25,-90,0,30,-60,1
3676,26,0,344.077,0,-60,1,0.25,2,9,0.0,1.0,6,45.0,30.0,9,0.376,1.0,346.147,0.2,1,2018-07-17 15:04:18.000,123,2018-07-17 15:10:02.077,0.25,-90,0,60,-30,1
3677,27,0,356.844,0,-60,1,0.25,2,9,0.0,1.0,6,45.0,30.0,9,0.526,0.0,364.443,0.0,0,2018-07-17 15:04:18.000,123,2018-07-17 15:10:14.844,0.25,90,0,60,150,1
3678,30,0,415.742,0,-60,1,0.25,2,3,0.0,1.0,12,45.0,30.0,3,0.601,0.0,416.646,0.2,1,2018-07-17 15:04:18.000,123,2018-07-17 15:11:13.742,0.25,90,-180,-120,150,1
3679,31,0,428.905,0,-60,1,0.25,2,3,0.0,1.0,12,45.0,30.0,3,0.301,0.0,430.34,0.2,1,2018-07-17 15:04:18.000,123,2018-07-17 15:11:26.905,0.25,90,-180,-120,150,1
3680,32,0,437.68300000000005,0,-60,1,0.25,2,3,0.0,1.0,12,45.0,30.0,3,0.451,0.0,438.519,0.2,1,2018-07-17 15:04:18.000,123,2018-07-17 15:11:35.683,0.25,90,-180,-120,150,1
3681,33,0,448.336,0,-60,1,0.25,2,9,0.0,1.0,6,45.0,30.0,9,0.376,1.0,450.564,0.2,1,2018-07-17 15:04:18.000,123,2018-07-17 15:11:46.336,0.25,-90,0,60,-30,1
3682,34,0,467.481,0,-60,1,0.25,2,9,0.0,1.0,6,45.0,30.0,9,0.526,0.0,471.494,0.0,0,2018-07-17 15:04:18.000,123,2018-07-17 15:12:05.481,0.25,90,0,60,150,1
3683,37,0,683.3510000000001,0,-60,1,0.25,2,9,0.0,1.0,6,45.0,30.0,9,0.526,0.0,684.4780000000002,0.0,0,2018-07-17 15:04:18.000,123,2018-07-17 15:15:41.351,0.25,90,0,60,150,1
3684,39,0,702.841,0,-60,1,0.25,2,9,0.0,1.0,6,45.0,30.0,9,0.376,1.0,704.2560000000002,0.2,1,2018-07-17 15:04:18.000,123,2018-07-17 15:16:00.841,0.25,-90,0,60,-30,1
3685,40,0,718.699,0,-60,1,0.25,2,9,0.0,1.0,6,45.0,30.0,9,0.451,1.0,720.081,0.2,1,2018-07-17 15:04:18.000,123,2018-07-17 15:16:16.699,0.25,-90,0,60,-30,1
3713,35,0,523.2819999999998,0,30,1,0.25,2,3,0.0,1.0,12,45.0,30.0,3,0.526,0.0,524.447,0.2,1,2018-07-18 10:00:21.000,164,2018-07-18 10:09:04.282,0.25,90,-180,150,60,1
3714,36,0,533.735,0,30,1,0.25,2,9,0.0,1.0,6,45.0,30.0,9,0.601,0.0,539.992,0.0,0,2018-07-18 10:00:21.000,164,2018-07-18 10:09:14.735,0.25,90,0,-30,60,1
3715,38,0,562.6659999999998,0,30,1,0.25,2,9,0.0,1.0,6,45.0,30.0,9,0.451,1.0,564.173,0.2,1,2018-07-18 10:00:21.000,164,2018-07-18 10:09:43.666,0.25,-90,0,-30,-120,1
3716,39,0,574.388,0,30,1,0.25,2,3,0.0,1.0,12,45.0,30.0,3,0.301,0.0,575.374,0.2,1,2018-07-18 10:00:21.000,164,2018-07-18 10:09:55.388,0.25,90,-180,150,60,1
3717,40,0,586.625,0,30,1,0.25,2,9,0.0,1.0,6,45.0,30.0,9,0.526,1.0,588.036,0.2,1,2018-07-18 10:00:21.000,164,2018-07-18 10:10:07.625,0.25,-90,0,-30,-120,1
3718,41,0,614.888,0,30,1,0.25,2,9,0.0,1.0,6,45.0,30.0,9,0.451,0.0,621.476,0.0,0,2018-07-18 10:00:21.000,164,2018-07-18 10:10:35.888,0.25,90,0,-30,60,1
3719,43,0,639.802,0,30,1,0.25,2,9,0.0,1.0,6,45.0,30.0,9,0.601,0.0,641.065,0.0,0,2018-07-18 10:00:21.000,164,2018-07-18 10:11:00.802,0.25,90,0,-30,60,1
3720,45,0,664.949,0,30,1,0.25,2,9,0.0,1.0,6,45.0,30.0,9,0.526,0.0,665.933,0.0,0,2018-07-18 10:00:21.000,164,2018-07-18 10:11:25.949,0.25,90,0,-30,60,1
3721,48,0,696.209,0,30,1,0.25,2,9,0.0,1.0,6,45.0,30.0,9,0.376,1.0,698.086,0.2,1,2018-07-18 10:00:21.000,164,2018-07-18 10:11:57.209,0.25,-90,0,-30,-120,1
3722,49,0,712.395,0,30,1,0.25,2,3,0.0,1.0,12,45.0,30.0,3,0.451,0.0,713.743,0.2,1,2018-07-18 10:00:21.000,164,2018-07-18 10:12:13.395,0.25,90,-180,150,60,1
3797,27,0,472.729,0,-30,1,0.25,2,3,0.0,1.0,12,45.0,30.0,3,0.301,0.0,473.575,0.2,1,2018-07-19 09:33:41.000,202,2018-07-19 09:41:33.729,0.25,90,-180,-150,120,1
3798,28,0,481.154,0,-30,1,0.25,2,9,0.0,1.0,6,45.0,30.0,9,0.526,1.0,482.3,0.2,1,2018-07-19 09:33:41.000,202,2018-07-19 09:41:42.154,0.25,-90,0,30,-60,1
3799,29,0,496.277,0,-30,1,0.25,2,9,0.0,1.0,6,45.0,30.0,9,0.376,1.0,500.291,0.2,1,2018-07-19 09:33:41.000,202,2018-07-19 09:41:57.277,0.25,-90,0,30,-60,1
3800,30,0,540.823,0,-30,1,0.25,2,9,0.0,1.0,6,45.0,30.0,9,0.601,0.0,541.634,0.0,0,2018-07-19 09:33:41.000,202,2018-07-19 09:42:41.823,0.25,90,0,30,120,1
3801,34,0,600.056,0,-30,1,0.25,2,9,0.0,1.0,6,45.0,30.0,9,0.376,0.0,601.4540000000002,0.0,0,2018-07-19 09:33:41.000,202,2018-07-19 09:43:41.056,0.25,90,0,30,120,1
3802,36,0,642.757,0,-30,1,0.25,2,3,0.0,1.0,12,45.0,30.0,3,0.376,0.0,643.3480000000002,0.2,1,2018-07-19 09:33:41.000,202,2018-07-19 09:44:23.757,0.25,90,-180,-150,120,1
3803,37,0,651.901,0,-30,1,0.25,2,3,0.0,1.0,12,45.0,30.0,3,0.451,0.0,652.609,0.2,1,2018-07-19 09:33:41.000,202,2018-07-19 09:44:32.901,0.25,90,-180,-150,120,1
3804,38,0,663.3510000000001,0,-30,1,0.25,2,9,0.0,1.0,6,45.0,30.0,9,0.526,0.0,664.15,0.0,0,2018-07-19 09:33:41.000,202,2018-07-19 09:44:44.351,0.25,90,0,30,120,1
3805,40,0,687.665,0,-30,1,0.25,2,9,0.0,1.0,6,45.0,30.0,9,0.601,1.0,689.699,0.2,1,2018-07-19 09:33:41.000,202,2018-07-19 09:45:08.665,0.25,-90,0,30,-60,1
3806,41,0,747.063,0,-30,1,0.25,2,9,0.0,1.0,6,45.0,30.0,9,0.376,1.0,766.778,0.2,1,2018-07-19 09:33:41.000,202,2018-07-19 09:46:08.063,0.25,-90,0,30,-60,1
3856,56,0,937.649,0,60,1,0.25,2,9,0.0,1.0,6,45.0,30.0,9,0.376,1.0,939.643,0.2,1,2018-07-19 15:36:34.000,183,2018-07-19 15:52:11.649,0.25,-90,0,-60,-150,1
3857,57,0,951.607,0,60,1,0.25,2,9,0.0,1.0,6,45.0,30.0,9,0.601,1.0,953.561,0.2,1,2018-07-19 15:36:34.000,183,2018-07-19 15:52:25.607,0.25,-90,0,-60,-150,1
3858,58,0,962.651,0,60,1,0.25,2,9,0.0,1.0,6,45.0,30.0,9,0.301,0.0,964.071,0.0,0,2018-07-19 15:36:34.000,183,2018-07-19 15:52:36.651,0.25,90,0,-60,30,1
3859,62,0,997.663,0,60,1,0.25,2,9,0.0,1.0,6,45.0,30.0,9,0.451,1.0,998.957,0.2,1,2018-07-19 15:36:34.000,183,2018-07-19 15:53:11.663,0.25,-90,0,-60,-150,1
3860,63,0,1007.066,0,60,1,0.25,2,9,0.0,1.0,6,45.0,30.0,9,0.376,1.0,1008.364,0.2,1,2018-07-19 15:36:34.000,183,2018-07-19 15:53:21.066,0.25,-90,0,-60,-150,1
3861,64,0,1019.779,0,60,1,0.25,2,9,0.0,1.0,6,45.0,30.0,9,0.526,0.0,1022.563,0.0,0,2018-07-19 15:36:34.000,183,2018-07-19 15:53:33.779,0.25,90,0,-60,30,1
3862,66,0,1051.58,0,60,1,0.25,2,3,0.0,1.0,12,45.0,30.0,3,0.451,0.0,1052.728,0.2,1,2018-07-19 15:36:34.000,183,2018-07-19 15:54:05.580,0.25,90,-180,120,30,1
3863,67,0,1064.236,0,60,1,0.25,2,3,0.0,1.0,12,45.0,30.0,3,0.301,0.0,1065.342,0.2,1,2018-07-19 15:36:34.000,183,2018-07-19 15:54:18.236,0.25,90,-180,120,30,1
3864,68,0,1073.3239999999996,0,60,1,0.25,2,3,0.0,1.0,12,45.0,30.0,3,0.601,0.0,1074.689,0.2,1,2018-07-19 15:36:34.000,183,2018-07-19 15:54:27.324,0.25,90,-180,120,30,1
3865,69,0,1088.26,0,60,1,0.25,2,9,0.0,1.0,6,45.0,30.0,9,0.526,1.0,1089.758,0.2,1,2018-07-19 15:36:34.000,183,2018-07-19 15:54:42.260,0.25,-90,0,-60,-150,1
3911,59,0,839.0039999999998,0,120,1,0.25,2,9,0.0,1.0,6,45.0,30.0,9,0.526,1.0,840.178,0.2,1,2018-07-20 09:15:10.000,78,2018-07-20 09:29:09.004,0.25,-90,0,-120,150,1
3912,60,0,848.477,0,120,1,0.25,2,3,0.0,1.0,12,45.0,30.0,3,0.451,0.0,849.4580000000002,0.2,1,2018-07-20 09:15:10.000,78,2018-07-20 09:29:18.477,0.25,90,-180,60,-30,1
3913,61,0,858.72,0,120,1,0.25,2,9,0.0,1.0,6,45.0,30.0,9,0.601,0.0,860.465,0.0,0,2018-07-20 09:15:10.000,78,2018-07-20 09:29:28.720,0.25,90,0,-120,-30,1
3914,64,0,888.791,0,120,1,0.25,2,9,0.0,1.0,6,45.0,30.0,9,0.526,1.0,890.0260000000002,0.2,1,2018-07-20 09:15:10.000,78,2018-07-20 09:29:58.791,0.25,-90,0,-120,150,1
3915,65,0,901.564,0,120,1,0.25,2,9,0.0,1.0,6,45.0,30.0,9,0.376,1.0,902.859,0.2,1,2018-07-20 09:15:10.000,78,2018-07-20 09:30:11.564,0.25,-90,0,-120,150,1
3916,66,0,909.9,0,120,1,0.25,2,3,0.0,1.0,12,45.0,30.0,3,0.301,0.0,911.184,0.2,1,2018-07-20 09:15:10.000,78,2018-07-20 09:30:19.900,0.25,90,-180,60,-30,1
3917,67,0,918.975,0,120,1,0.25,2,9,0.0,1.0,6,45.0,30.0,9,0.601,1.0,921.581,0.2,1,2018-07-20 09:15:10.000,78,2018-07-20 09:30:28.975,0.25,-90,0,-120,150,1
3918,68,0,929.918,0,120,1,0.25,2,3,0.0,1.0,12,45.0,30.0,3,0.376,0.0,931.491,0.2,1,2018-07-20 09:15:10.000,78,2018-07-20 09:30:39.918,0.25,90,-180,60,-30,1
3919,69,0,937.927,0,120,1,0.25,2,9,0.0,1.0,6,45.0,30.0,9,0.451,0.0,939.649,0.0,0,2018-07-20 09:15:10.000,78,2018-07-20 09:30:47.927,0.25,90,0,-120,-30,1
3920,71,0,952.465,0,120,1,0.25,2,3,0.0,1.0,12,45.0,30.0,3,0.526,0.0,954.559,0.2,1,2018-07-20 09:15:10.000,78,2018-07-20 09:31:02.465,0.25,90,-180,60,-30,1
3974,65,0,977.263,0,90,1,0.25,2,9,0.0,1.0,6,45.0,30.0,9,0.451,1.0,978.574,0.2,1,2018-07-20 15:44:14.000,43,2018-07-20 16:00:31.263,0.25,-90,0,-90,-180,1
3975,66,0,989.637,0,90,1,0.25,2,3,0.0,1.0,12,45.0,30.0,3,0.601,0.0,990.525,0.2,1,2018-07-20 15:44:14.000,43,2018-07-20 16:00:43.637,0.25,90,-180,90,0,1
3976,67,0,997.741,0,90,1,0.25,2,3,0.0,1.0,12,45.0,30.0,3,0.301,0.0,998.777,0.2,1,2018-07-20 15:44:14.000,43,2018-07-20 16:00:51.741,0.25,90,-180,90,0,1
3977,68,0,1005.22,0,90,1,0.25,2,3,0.0,1.0,12,45.0,30.0,3,0.376,0.0,1006.385,0.2,1,2018-07-20 15:44:14.000,43,2018-07-20 16:00:59.220,0.25,90,-180,90,0,1
3978,69,0,1025.205,0,90,1,0.25,2,9,0.0,1.0,6,45.0,30.0,9,0.526,0.0,1026.297,0.0,0,2018-07-20 15:44:14.000,43,2018-07-20 16:01:19.205,0.25,90,0,-90,0,1
3979,72,0,1048.0510000000004,0,90,1,0.25,2,3,0.0,1.0,12,45.0,30.0,3,0.376,0.0,1049.119,0.2,1,2018-07-20 15:44:14.000,43,2018-07-20 16:01:42.051,0.25,90,-180,90,0,1
3980,73,0,1055.611,0,90,1,0.25,2,9,0.0,1.0,6,45.0,30.0,9,0.301,1.0,1057.665,0.2,1,2018-07-20 15:44:14.000,43,2018-07-20 16:01:49.611,0.25,-90,0,-90,-180,1
3981,74,0,1065.531,0,90,1,0.25,2,9,0.0,1.0,6,45.0,30.0,9,0.601,0.0,1066.636,0.0,0,2018-07-20 15:44:14.000,43,2018-07-20 16:01:59.531,0.25,90,0,-90,0,1
3982,76,0,1107.238,0,90,1,0.25,2,9,0.0,1.0,6,45.0,30.0,9,0.376,1.0,1109.81,0.2,1,2018-07-20 15:44:14.000,43,2018-07-20 16:02:41.238,0.25,-90,0,-90,-180,1
3983,77,0,1119.1660000000004,0,90,1,0.25,2,3,0.0,1.0,12,45.0,30.0,3,0.301,0.0,1120.163,0.2,1,2018-07-20 15:44:14.000,43,2018-07-20 16:02:53.166,0.25,90,-180,90,0,1
4000,23,0,330.93,0,0,1,0.25,2,9,0.0,1.0,6,45.0,30.0,9,0.376,0.0,332.34,0.0,0,2018-07-23 10:00:06.000,115,2018-07-23 10:05:36.930,0.25,90,0,0,90,1
4001,25,0,357.095,0,0,1,0.25,2,9,0.0,1.0,6,45.0,30.0,9,0.601,0.0,360.579,0.0,0,2018-07-23 10:00:06.000,115,2018-07-23 10:06:03.095,0.25,90,0,0,90,1
4002,27,0,391.505,0,0,1,0.25,2,9,0.0,1.0,6,45.0,30.0,9,0.526,0.0,400.23,0.0,0,2018-07-23 10:00:06.000,115,2018-07-23 10:06:37.505,0.25,90,0,0,90,1
4003,30,0,438.739,0,0,1,0.25,2,9,0.0,1.0,6,45.0,30.0,9,0.376,0.0,439.876,0.0,0,2018-07-23 10:00:06.000,115,2018-07-23 10:07:24.739,0.25,90,0,0,90,1
4004,32,0,455.571,0,0,1,0.25,2,9,0.0,1.0,6,45.0,30.0,9,0.601,0.0,457.345,0.0,0,2018-07-23 10:00:06.000,115,2018-07-23 10:07:41.571,0.25,90,0,0,90,1
4005,34,0,480.115,0,0,1,0.25,2,9,0.0,1.0,6,45.0,30.0,9,0.301,0.0,481.261,0.0,0,2018-07-23 10:00:06.000,115,2018-07-23 10:08:06.115,0.25,90,0,0,90,1
4006,36,0,497.966,0,0,1,0.25,2,9,0.0,1.0,6,45.0,30.0,9,0.526,0.0,500.42,0.0,0,2018-07-23 10:00:06.000,115,2018-07-23 10:08:23.966,0.25,90,0,0,90,1
4007,38,0,521.169,0,0,1,0.25,2,9,0.0,1.0,6,45.0,30.0,9,0.601,0.0,524.637,0.0,0,2018-07-23 10:00:06.000,115,2018-07-23 10:08:47.169,0.25,90,0,0,90,1
4008,42,0,556.337,0,0,1,0.25,2,9,0.0,1.0,6,45.0,30.0,9,0.376,0.0,557.627,0.0,0,2018-07-23 10:00:06.000,115,2018-07-23 10:09:22.337,0.25,90,0,0,90,1
4009,44,0,576.543,0,0,1,0.25,2,9,0.0,1.0,6,45.0,30.0,9,0.451,0.0,578.011,0.0,0,2018-07-23 10:00:06.000,115,2018-07-23 10:09:42.543,0.25,90,0,0,90,1
4083,29,0,646.511,0,60,1,0.25,2,9,0.0,1.0,6,45.0,30.0,9,0.526,1.0,648.086,0.2,1,2018-07-24 09:58:58.000,1,2018-07-24 10:09:44.511,0.25,-90,0,-60,-150,1
4084,30,0,662.4580000000002,0,60,1,0.25,2,9,0.0,1.0,6,45.0,30.0,9,0.451,1.0,663.883,0.2,1,2018-07-24 09:58:58.000,1,2018-07-24 10:10:00.458,0.25,-90,0,-60,-150,1
4085,31,0,679.8560000000001,0,60,1,0.25,2,9,0.0,1.0,6,45.0,30.0,9,0.376,1.0,681.502,0.2,1,2018-07-24 09:58:58.000,1,2018-07-24 10:10:17.856,0.25,-90,0,-60,-150,1
4086,32,0,698.6189999999998,0,60,1,0.25,2,9,0.0,1.0,6,45.0,30.0,9,0.526,1.0,699.915,0.2,1,2018-07-24 09:58:58.000,1,2018-07-24 10:10:36.619,0.25,-90,0,-60,-150,1
4087,33,0,723.566,0,60,1,0.25,2,9,0.0,1.0,6,45.0,30.0,9,0.451,0.0,724.995,0.0,0,2018-07-24 09:58:58.000,1,2018-07-24 10:11:01.566,0.25,90,0,-60,30,1
4088,35,0,768.738,0,60,1,0.25,2,3,0.0,1.0,12,45.0,30.0,3,0.301,1.0,771.253,0.0,0,2018-07-24 09:58:58.000,1,2018-07-24 10:11:46.738,0.25,-90,-180,120,-150,1
4089,37,0,879.795,0,60,1,0.25,2,9,0.0,1.0,6,45.0,30.0,9,0.526,1.0,881.197,0.2,1,2018-07-24 09:58:58.000,1,2018-07-24 10:13:37.795,0.25,-90,0,-60,-150,1
4090,38,0,898.475,0,60,1,0.25,2,3,0.0,1.0,12,45.0,30.0,3,0.451,0.0,899.582,0.2,1,2018-07-24 09:58:58.000,1,2018-07-24 10:13:56.475,0.25,90,-180,120,30,1
4091,39,0,910.446,0,60,1,0.25,2,3,0.0,1.0,12,45.0,30.0,3,0.601,0.0,911.455,0.2,1,2018-07-24 09:58:58.000,1,2018-07-24 10:14:08.446,0.25,90,-180,120,30,1
4092,40,0,921.894,0,60,1,0.25,2,9,0.0,1.0,6,45.0,30.0,9,0.376,1.0,924.156,0.2,1,2018-07-24 09:58:58.000,1,2018-07-24 10:14:19.894,0.25,-90,0,-60,-150,1
4113,32,0,892.415,0,-150,1,0.25,2,3,0.0,1.0,12,45.0,30.0,3,0.526,0.0,893.566,0.2,1,2018-07-24 15:14:35.000,206,2018-07-24 15:29:27.415,0.25,90,-180,-30,-120,1
4114,33,0,930.125,0,-150,1,0.25,2,9,0.0,1.0,6,45.0,30.0,9,0.601,1.0,931.635,0.2,1,2018-07-24 15:14:35.000,206,2018-07-24 15:30:05.125,0.25,-90,0,150,60,1
4115,34,0,973.927,0,-150,1,0.25,2,3,0.0,1.0,12,45.0,30.0,3,0.376,0.0,975.382,0.2,1,2018-07-24 15:14:35.000,206,2018-07-24 15:30:48.927,0.25,90,-180,-30,-120,1
4116,35,0,990.758,0,-150,1,0.25,2,3,0.0,1.0,12,45.0,30.0,3,0.451,1.0,994.799,0.0,0,2018-07-24 15:14:35.000,206,2018-07-24 15:31:05.758,0.25,-90,-180,-30,60,1
4117,37,0,1034.395,0,-150,1,0.25,2,9,0.0,1.0,6,45.0,30.0,9,0.451,1.0,1035.638,0.2,1,2018-07-24 15:14:35.000,206,2018-07-24 15:31:49.395,0.25,-90,0,150,60,1
4118,38,0,1047.921,0,-150,1,0.25,2,9,0.0,1.0,6,45.0,30.0,9,0.376,1.0,1049.341,0.2,1,2018-07-24 15:14:35.000,206,2018-07-24 15:32:02.921,0.25,-90,0,150,60,1
4119,39,0,1068.316,0,-150,1,0.25,2,3,0.0,1.0,12,45.0,30.0,3,0.526,0.0,1070.119,0.2,1,2018-07-24 15:14:35.000,206,2018-07-24 15:32:23.316,0.25,90,-180,-30,-120,1
4120,40,0,1085.894,0,-150,1,0.25,2,9,0.0,1.0,6,45.0,30.0,9,0.601,0.0,1087.77,0.0,0,2018-07-24 15:14:35.000,206,2018-07-24 15:32:40.894,0.25,90,0,150,-120,1
4121,42,0,1109.577,0,-150,1,0.25,2,3,0.0,1.0,12,45.0,30.0,3,0.301,0.0,1110.794,0.2,1,2018-07-24 15:14:35.000,206,2018-07-24 15:33:04.577,0.25,90,-180,-30,-120,1
4122,43,0,1124.286,0,-150,1,0.25,2,3,0.0,1.0,12,45.0,30.0,3,0.526,0.0,1125.411,0.2,1,2018-07-24 15:14:35.000,206,2018-07-24 15:33:19.286,0.25,90,-180,-30,-120,1
4193,22,0,1006.177,0,120,1,0.25,2,9,0.0,1.0,6,45.0,30.0,9,0.451,0.0,1007.183,0.0,0,2018-07-25 15:17:19.000,159,2018-07-25 15:34:05.177,0.25,90,0,-120,-30,1
4194,24,0,1033.611,0,120,1,0.25,2,9,0.0,1.0,6,45.0,30.0,9,0.526,1.0,1034.298,0.2,1,2018-07-25 15:17:19.000,159,2018-07-25 15:34:32.611,0.25,-90,0,-120,150,1
4195,25,0,1056.452,0,120,1,0.25,2,9,0.0,1.0,6,45.0,30.0,9,0.376,1.0,1057.371,0.2,1,2018-07-25 15:17:19.000,159,2018-07-25 15:34:55.452,0.25,-90,0,-120,150,1
4196,26,0,1074.819,0,120,1,0.25,2,3,0.0,1.0,12,45.0,30.0,3,0.301,0.0,1076.102,0.2,1,2018-07-25 15:17:19.000,159,2018-07-25 15:35:13.819,0.25,90,-180,60,-30,1
4197,27,0,1115.3239999999996,0,120,1,0.25,2,9,0.0,1.0,6,45.0,30.0,9,0.451,1.0,1117.292,0.2,1,2018-07-25 15:17:19.000,159,2018-07-25 15:35:54.324,0.25,-90,0,-120,150,1
4198,28,0,1143.885,0,120,1,0.25,2,3,0.0,1.0,12,45.0,30.0,3,0.376,0.0,1145.261,0.2,1,2018-07-25 15:17:19.000,159,2018-07-25 15:36:22.885,0.25,90,-180,60,-30,1
4199,29,0,1262.201,0,120,1,0.25,2,3,0.0,1.0,12,45.0,30.0,3,0.526,0.0,1266.121,0.2,1,2018-07-25 15:17:19.000,159,2018-07-25 15:38:21.201,0.25,90,-180,60,-30,1
4200,30,0,1275.925,0,120,1,0.25,2,3,0.0,1.0,12,45.0,30.0,3,0.601,0.0,1276.991,0.2,1,2018-07-25 15:17:19.000,159,2018-07-25 15:38:34.925,0.25,90,-180,60,-30,1
4201,31,0,1287.219,0,120,1,0.25,2,9,0.0,1.0,6,45.0,30.0,9,0.526,1.0,1288.877,0.2,1,2018-07-25 15:17:19.000,159,2018-07-25 15:38:46.219,0.25,-90,0,-120,150,1
4202,32,0,1356.245,0,120,1,0.25,2,9,0.0,1.0,6,45.0,30.0,9,0.376,1.0,1357.797,0.2,1,2018-07-25 15:17:19.000,159,2018-07-25 15:39:55.245,0.25,-90,0,-120,150,1
4249,56,0,718.6080000000002,0,180,1,0.25,2,3,0.0,1.0,12,45.0,30.0,3,0.601,0.0,719.3560000000001,0.2,1,2018-07-26 09:29:26.000,94,2018-07-26 09:41:24.608,0.25,90,-180,0,-90,1
4250,57,0,728.694,0,180,1,0.25,2,3,0.0,1.0,12,45.0,30.0,3,0.376,0.0,729.957,0.2,1,2018-07-26 09:29:26.000,94,2018-07-26 09:41:34.694,0.25,90,-180,0,-90,1
4251,58,0,736.64,0,180,1,0.25,2,9,0.0,1.0,6,45.0,30.0,9,0.451,1.0,737.7639999999999,0.2,1,2018-07-26 09:29:26.000,94,2018-07-26 09:41:42.640,0.25,-90,0,-180,90,1
4252,59,0,746.96,0,180,1,0.25,2,3,0.0,1.0,12,45.0,30.0,3,0.301,0.0,747.9830000000002,0.2,1,2018-07-26 09:29:26.000,94,2018-07-26 09:41:52.960,0.25,90,-180,0,-90,1
4253,60,0,757.14,0,180,1,0.25,2,3,0.0,1.0,12,45.0,30.0,3,0.526,0.0,759.304,0.2,1,2018-07-26 09:29:26.000,94,2018-07-26 09:42:03.140,0.25,90,-180,0,-90,1
4254,61,0,779.247,0,180,1,0.25,2,3,0.0,1.0,12,45.0,30.0,3,0.301,0.0,780.238,0.2,1,2018-07-26 09:29:26.000,94,2018-07-26 09:42:25.247,0.25,90,-180,0,-90,1
4255,62,0,785.9960000000002,0,180,1,0.25,2,3,0.0,1.0,12,45.0,30.0,3,0.451,0.0,787.0419999999998,0.2,1,2018-07-26 09:29:26.000,94,2018-07-26 09:42:31.996,0.25,90,-180,0,-90,1
4256,63,0,794.408,0,180,1,0.25,2,9,0.0,1.0,6,45.0,30.0,9,0.601,1.0,795.3,0.2,1,2018-07-26 09:29:26.000,94,2018-07-26 09:42:40.408,0.25,-90,0,-180,90,1
4257,64,0,804.568,0,180,1,0.25,2,3,0.0,1.0,12,45.0,30.0,3,0.526,0.0,805.704,0.2,1,2018-07-26 09:29:26.000,94,2018-07-26 09:42:50.568,0.25,90,-180,0,-90,1
4258,65,0,811.645,0,180,1,0.25,2,9,0.0,1.0,6,45.0,30.0,9,0.376,0.0,808.007,0.0,0,2018-07-26 09:29:26.000,94,2018-07-26 09:42:57.645,0.25,90,0,-180,-90,1
4305,56,0,1072.381,0,-120,1,0.25,2,3,0.0,1.0,12,45.0,30.0,3,0.601,0.0,1073.235,0.2,1,2018-07-26 15:50:09.000,192,2018-07-26 16:08:01.381,0.25,90,-180,-60,-150,1
4306,57,0,1088.421,0,-120,1,0.25,2,3,0.0,1.0,12,45.0,30.0,3,0.526,0.0,1089.252,0.2,1,2018-07-26 15:50:09.000,192,2018-07-26 16:08:17.421,0.25,90,-180,-60,-150,1
4307,58,0,1105.184,0,-120,1,0.25,2,3,0.0,1.0,12,45.0,30.0,3,0.301,0.0,1106.351,0.2,1,2018-07-26 15:50:09.000,192,2018-07-26 16:08:34.184,0.25,90,-180,-60,-150,1
4308,59,0,1123.24,0,-120,1,0.25,2,3,0.0,1.0,12,45.0,30.0,3,0.376,0.0,1124.814,0.2,1,2018-07-26 15:50:09.000,192,2018-07-26 16:08:52.240,0.25,90,-180,-60,-150,1
4309,60,0,1131.07,0,-120,1,0.25,2,9,0.0,1.0,6,45.0,30.0,9,0.451,1.0,1132.164,0.2,1,2018-07-26 15:50:09.000,192,2018-07-26 16:09:00.070,0.25,-90,0,120,30,1
4310,61,0,1138.6989999999996,0,-120,1,0.25,2,9,0.0,1.0,6,45.0,30.0,9,0.376,1.0,1139.643,0.2,1,2018-07-26 15:50:09.000,192,2018-07-26 16:09:07.699,0.25,-90,0,120,30,1
4311,62,0,1146.476,0,-120,1,0.25,2,9,0.0,1.0,6,45.0,30.0,9,0.451,0.0,1147.839,0.0,0,2018-07-26 15:50:09.000,192,2018-07-26 16:09:15.476,0.25,90,0,120,-150,1
4312,64,0,1191.31,0,-120,1,0.25,2,3,0.0,1.0,12,45.0,30.0,3,0.301,0.0,1192.348,0.2,1,2018-07-26 15:50:09.000,192,2018-07-26 16:10:00.310,0.25,90,-180,-60,-150,1
4313,65,0,1351.929,0,-120,1,0.25,2,3,0.0,1.0,12,45.0,30.0,3,0.601,0.0,1354.876,0.2,1,2018-07-26 15:50:09.000,192,2018-07-26 16:12:40.929,0.25,90,-180,-60,-150,1
4314,66,0,1360.83,0,-120,1,0.25,2,3,0.0,1.0,12,45.0,30.0,3,0.376,1.0,1381.5379999999998,0.0,0,2018-07-26 15:50:09.000,192,2018-07-26 16:12:49.830,0.25,-90,-180,-60,30,1
4368,60,0,1131.904,0,-90,1,0.25,2,3,0.0,1.0,12,45.0,30.0,3,0.451,0.0,1133.15,0.2,1,2018-07-27 10:31:14.000,165,2018-07-27 10:50:05.904,0.25,90,-180,-90,-180,1
4369,61,0,1140.561,0,-90,1,0.25,2,3,0.0,1.0,12,45.0,30.0,3,0.451,0.0,1141.483,0.2,1,2018-07-27 10:31:14.000,165,2018-07-27 10:50:14.561,0.25,90,-180,-90,-180,1
4370,62,0,1148.509,0,-90,1,0.25,2,3,0.0,1.0,12,45.0,30.0,3,0.301,0.0,1149.611,0.2,1,2018-07-27 10:31:14.000,165,2018-07-27 10:50:22.509,0.25,90,-180,-90,-180,1
4371,63,0,1156.71,0,-90,1,0.25,2,9,0.0,1.0,6,45.0,30.0,9,0.376,1.0,1157.732,0.2,1,2018-07-27 10:31:14.000,165,2018-07-27 10:50:30.710,0.25,-90,0,90,0,1
4372,64,0,1163.272,0,-90,1,0.25,2,9,0.0,1.0,6,45.0,30.0,9,0.526,1.0,1165.003,0.2,1,2018-07-27 10:31:14.000,165,2018-07-27 10:50:37.272,0.25,-90,0,90,0,1
4373,65,0,1187.108,0,-90,1,0.25,2,3,0.0,1.0,12,45.0,30.0,3,0.601,0.0,1188.039,0.2,1,2018-07-27 10:31:14.000,165,2018-07-27 10:51:01.108,0.25,90,-180,-90,-180,1
4374,66,0,1197.594,0,-90,1,0.25,2,9,0.0,1.0,6,45.0,30.0,9,0.376,1.0,1199.22,0.2,1,2018-07-27 10:31:14.000,165,2018-07-27 10:51:11.594,0.25,-90,0,90,0,1
4375,67,0,1205.894,0,-90,1,0.25,2,9,0.0,1.0,6,45.0,30.0,9,0.601,1.0,1207.277,0.2,1,2018-07-27 10:31:14.000,165,2018-07-27 10:51:19.894,0.25,-90,0,90,0,1
4376,68,0,1340.8929999999998,0,-90,1,0.25,2,9,0.0,1.0,6,45.0,30.0,9,0.451,0.0,1343.036,0.0,0,2018-07-27 10:31:14.000,165,2018-07-27 10:53:34.893,0.25,90,0,90,-180,1
4377,70,0,1353.0020000000004,0,-90,1,0.25,2,9,0.0,1.0,6,45.0,30.0,9,0.301,0.0,1354.559,0.0,0,2018-07-27 10:31:14.000,165,2018-07-27 10:53:47.002,0.25,90,0,90,-180,1
4434,67,0,1005.085,0,180,1,0.25,2,3,0.0,1.0,12,45.0,30.0,3,0.526,0.0,1006.003,0.2,1,2018-07-27 16:39:09.000,39,2018-07-27 16:55:54.085,0.25,90,-180,0,-90,1
4435,68,0,1020.858,0,180,1,0.25,2,9,0.0,1.0,6,45.0,30.0,9,0.451,1.0,1021.817,0.2,1,2018-07-27 16:39:09.000,39,2018-07-27 16:56:09.858,0.25,-90,0,-180,90,1
4436,69,0,1028.728,0,180,1,0.25,2,9,0.0,1.0,6,45.0,30.0,9,0.301,1.0,1029.963,0.2,1,2018-07-27 16:39:09.000,39,2018-07-27 16:56:17.728,0.25,-90,0,-180,90,1
4437,70,0,1037.996,0,180,1,0.25,2,3,0.0,1.0,12,45.0,30.0,3,0.601,0.0,1038.901,0.2,1,2018-07-27 16:39:09.000,39,2018-07-27 16:56:26.996,0.25,90,-180,0,-90,1
4438,71,0,1047.762,0,180,1,0.25,2,9,0.0,1.0,6,45.0,30.0,9,0.526,1.0,1049.024,0.2,1,2018-07-27 16:39:09.000,39,2018-07-27 16:56:36.762,0.25,-90,0,-180,90,1
4439,72,0,1056.802,0,180,1,0.25,2,9,0.0,1.0,6,45.0,30.0,9,0.601,1.0,1062.103,0.2,1,2018-07-27 16:39:09.000,39,2018-07-27 16:56:45.802,0.25,-90,0,-180,90,1
4440,73,0,1071.077,0,180,1,0.25,2,3,0.0,1.0,12,45.0,30.0,3,0.301,0.0,1072.057,0.2,1,2018-07-27 16:39:09.000,39,2018-07-27 16:57:00.077,0.25,90,-180,0,-90,1
4441,74,0,1079.305,0,180,1,0.25,2,9,0.0,1.0,6,45.0,30.0,9,0.376,0.0,1080.455,0.0,0,2018-07-27 16:39:09.000,39,2018-07-27 16:57:08.305,0.25,90,0,-180,-90,1
4442,76,0,1096.37,0,180,1,0.25,2,9,0.0,1.0,6,45.0,30.0,9,0.526,1.0,1097.56,0.2,1,2018-07-27 16:39:09.000,39,2018-07-27 16:57:25.370,0.25,-90,0,-180,90,1
4443,77,0,1109.505,0,180,1,0.25,2,9,0.0,1.0,6,45.0,30.0,9,0.301,0.0,1112.283,0.0,0,2018-07-27 16:39:09.000,39,2018-07-27 16:57:38.505,0.25,90,0,-180,-90,1
4471,45,0,960.383,0,0,1,0.25,2,9,0.0,1.0,6,45.0,30.0,9,0.601,0.0,963.675,0.0,0,2018-07-30 09:45:28.000,20,2018-07-30 10:01:28.383,0.25,90,0,0,90,1
4472,47,0,994.42,0,0,1,0.25,2,3,0.0,1.0,12,45.0,30.0,3,0.526,0.0,995.498,0.2,1,2018-07-30 09:45:28.000,20,2018-07-30 10:02:02.420,0.25,90,-180,-180,90,1
4473,48,0,1008.281,0,0,1,0.25,2,9,0.0,1.0,6,45.0,30.0,9,0.376,1.0,1011.033,0.2,1,2018-07-30 09:45:28.000,20,2018-07-30 10:02:16.281,0.25,-90,0,0,-90,1
4474,49,0,1038.496,0,0,1,0.25,2,9,0.0,1.0,6,45.0,30.0,9,0.451,1.0,1039.777,0.2,1,2018-07-30 09:45:28.000,20,2018-07-30 10:02:46.496,0.25,-90,0,0,-90,1
4475,50,0,1064.882,0,0,1,0.25,2,3,0.0,1.0,12,45.0,30.0,3,0.301,0.0,1065.739,0.2,1,2018-07-30 09:45:28.000,20,2018-07-30 10:03:12.882,0.25,90,-180,-180,90,1
4476,51,0,1079.881,0,0,1,0.25,2,3,0.0,1.0,12,45.0,30.0,3,0.526,0.0,1080.738,0.2,1,2018-07-30 09:45:28.000,20,2018-07-30 10:03:27.881,0.25,90,-180,-180,90,1
4477,52,0,1092.997,0,0,1,0.25,2,9,0.0,1.0,6,45.0,30.0,9,0.451,0.0,1094.696,0.0,0,2018-07-30 09:45:28.000,20,2018-07-30 10:03:40.997,0.25,90,0,0,90,1
4478,54,0,1133.153,0,0,1,0.25,2,9,0.0,1.0,6,45.0,30.0,9,0.601,0.0,1135.093,0.0,0,2018-07-30 09:45:28.000,20,2018-07-30 10:04:21.153,0.25,90,0,0,90,1
4479,59,0,1199.691,0,0,1,0.25,2,9,0.0,1.0,6,45.0,30.0,9,0.301,1.0,1202.704,0.2,1,2018-07-30 09:45:28.000,20,2018-07-30 10:05:27.691,0.25,-90,0,0,-90,1
4480,60,0,1228.9160000000004,0,0,1,0.25,2,9,0.0,1.0,6,45.0,30.0,9,0.601,0.0,1232.716,0.0,0,2018-07-30 09:45:28.000,20,2018-07-30 10:05:56.916,0.25,90,0,0,90,1
4642,80,0,1483.039,0,150,1,0.25,2,9,0.0,1.0,6,45.0,30.0,9,0.526,1.0,1484.171,0.2,1,2018-08-01 10:07:27.000,107,2018-08-01 10:32:10.039,0.25,-90,0,-150,120,1
4643,81,0,1499.729,0,150,1,0.25,2,9,0.0,1.0,6,45.0,30.0,9,0.526,0.0,1501.455,0.0,0,2018-08-01 10:07:27.000,107,2018-08-01 10:32:26.729,0.25,90,0,-150,-60,1
4644,83,0,1517.693,0,150,1,0.25,2,3,0.0,1.0,12,45.0,30.0,3,0.451,0.0,1518.7720000000004,0.2,1,2018-08-01 10:07:27.000,107,2018-08-01 10:32:44.693,0.25,90,-180,30,-60,1
4645,84,0,1533.975,0,150,1,0.25,2,3,0.0,1.0,12,45.0,30.0,3,0.601,1.0,1536.592,0.0,0,2018-08-01 10:07:27.000,107,2018-08-01 10:33:00.975,0.25,-90,-180,30,120,1
4646,86,0,1554.822,0,150,1,0.25,2,3,0.0,1.0,12,45.0,30.0,3,0.526,0.0,1556.642,0.2,1,2018-08-01 10:07:27.000,107,2018-08-01 10:33:21.822,0.25,90,-180,30,-60,1
4647,87,0,1564.392,0,150,1,0.25,2,9,0.0,1.0,6,45.0,30.0,9,0.301,1.0,1565.956,0.2,1,2018-08-01 10:07:27.000,107,2018-08-01 10:33:31.392,0.25,-90,0,-150,120,1
4648,88,0,1581.5220000000004,0,150,1,0.25,2,3,0.0,1.0,12,45.0,30.0,3,0.451,0.0,1582.813,0.2,1,2018-08-01 10:07:27.000,107,2018-08-01 10:33:48.522,0.25,90,-180,30,-60,1
4649,89,0,1589.7779999999998,0,150,1,0.25,2,3,0.0,1.0,12,45.0,30.0,3,0.376,0.0,1591.0,0.2,1,2018-08-01 10:07:27.000,107,2018-08-01 10:33:56.778,0.25,90,-180,30,-60,1
4650,90,0,1621.775,0,150,1,0.25,2,9,0.0,1.0,6,45.0,30.0,9,0.601,1.0,1623.6329999999996,0.2,1,2018-08-01 10:07:27.000,107,2018-08-01 10:34:28.775,0.25,-90,0,-150,120,1
4651,91,0,1631.716,0,150,1,0.25,2,9,0.0,1.0,6,45.0,30.0,9,0.376,0.0,1634.129,0.0,0,2018-08-01 10:07:27.000,107,2018-08-01 10:34:38.716,0.25,90,0,-150,-60,1
4693,51,0,914.296,0,-60,1,0.25,2,9,0.0,1.0,6,45.0,30.0,9,0.526,1.0,916.056,0.2,1,2018-08-01 15:33:02.000,118,2018-08-01 15:48:16.296,0.25,-90,0,60,-30,1
4694,52,0,935.959,0,-60,1,0.25,2,3,0.0,1.0,12,45.0,30.0,3,0.301,0.0,936.862,0.2,1,2018-08-01 15:33:02.000,118,2018-08-01 15:48:37.959,0.25,90,-180,-120,150,1
4695,53,0,946.492,0,-60,1,0.25,2,9,0.0,1.0,6,45.0,30.0,9,0.601,1.0,947.8,0.2,1,2018-08-01 15:33:02.000,118,2018-08-01 15:48:48.492,0.25,-90,0,60,-30,1
4696,54,0,970.399,0,-60,1,0.25,2,3,0.0,1.0,12,45.0,30.0,3,0.451,0.0,971.935,0.2,1,2018-08-01 15:33:02.000,118,2018-08-01 15:49:12.399,0.25,90,-180,-120,150,1
4697,55,0,981.925,0,-60,1,0.25,2,9,0.0,1.0,6,45.0,30.0,9,0.376,1.0,983.13,0.2,1,2018-08-01 15:33:02.000,118,2018-08-01 15:49:23.925,0.25,-90,0,60,-30,1
4698,56,0,1021.115,0,-60,1,0.25,2,3,0.0,1.0,12,45.0,30.0,3,0.376,1.0,1024.689,0.0,0,2018-08-01 15:33:02.000,118,2018-08-01 15:50:03.115,0.25,-90,-180,-120,-30,1
4699,58,0,1037.962,0,-60,1,0.25,2,9,0.0,1.0,6,45.0,30.0,9,0.451,1.0,1038.849,0.2,1,2018-08-01 15:33:02.000,118,2018-08-01 15:50:19.962,0.25,-90,0,60,-30,1
4700,59,0,1058.544,0,-60,1,0.25,2,9,0.0,1.0,6,45.0,30.0,9,0.301,1.0,1059.9489999999996,0.2,1,2018-08-01 15:33:02.000,118,2018-08-01 15:50:40.544,0.25,-90,0,60,-30,1
4701,60,0,1123.917,0,-60,1,0.25,2,3,0.0,1.0,12,45.0,30.0,3,0.526,0.0,1124.892,0.2,1,2018-08-01 15:33:02.000,118,2018-08-01 15:51:45.917,0.25,90,-180,-120,150,1
4702,61,0,1137.743,0,-60,1,0.25,2,9,0.0,1.0,6,45.0,30.0,9,0.526,0.0,1139.385,0.0,0,2018-08-01 15:33:02.000,118,2018-08-01 15:51:59.743,0.25,90,0,60,150,1
4727,27,0,605.188,0,-120,1,0.25,2,3,0.0,1.0,12,45.0,30.0,3,0.301,0.0,606.5459999999998,0.2,1,2018-08-02 09:05:16.000,142,2018-08-02 09:15:21.188,0.25,90,-180,-60,-150,1
4728,28,0,616.141,0,-120,1,0.25,2,3,0.0,1.0,12,45.0,30.0,3,0.451,0.0,617.328,0.2,1,2018-08-02 09:05:16.000,142,2018-08-02 09:15:32.141,0.25,90,-180,-60,-150,1
4729,29,0,637.495,0,-120,1,0.25,2,9,0.0,1.0,6,45.0,30.0,9,0.526,1.0,638.683,0.2,1,2018-08-02 09:05:16.000,142,2018-08-02 09:15:53.495,0.25,-90,0,120,30,1
4730,30,0,671.2410000000001,0,-120,1,0.25,2,3,0.0,1.0,12,45.0,30.0,3,0.601,0.0,672.3589999999998,0.2,1,2018-08-02 09:05:16.000,142,2018-08-02 09:16:27.241,0.25,90,-180,-60,-150,1
4731,31,0,695.2610000000002,0,-120,1,0.25,2,3,0.0,1.0,12,45.0,30.0,3,0.601,0.0,696.455,0.2,1,2018-08-02 09:05:16.000,142,2018-08-02 09:16:51.261,0.25,90,-180,-60,-150,1
4732,32,0,707.4889999999998,0,-120,1,0.25,2,9,0.0,1.0,6,45.0,30.0,9,0.451,1.0,708.7410000000001,0.2,1,2018-08-02 09:05:16.000,142,2018-08-02 09:17:03.489,0.25,-90,0,120,30,1
4733,33,0,733.6519999999998,0,-120,1,0.25,2,9,0.0,1.0,6,45.0,30.0,9,0.526,1.0,735.2919999999998,0.2,1,2018-08-02 09:05:16.000,142,2018-08-02 09:17:29.652,0.25,-90,0,120,30,1
4734,34,0,754.7330000000002,0,-120,1,0.25,2,9,0.0,1.0,6,45.0,30.0,9,0.376,1.0,756.0239999999999,0.2,1,2018-08-02 09:05:16.000,142,2018-08-02 09:17:50.733,0.25,-90,0,120,30,1
4735,35,0,827.722,0,-120,1,0.25,2,3,0.0,1.0,12,45.0,30.0,3,0.301,0.0,828.702,0.2,1,2018-08-02 09:05:16.000,142,2018-08-02 09:19:03.722,0.25,90,-180,-60,-150,1
4736,36,0,839.563,0,-120,1,0.25,2,9,0.0,1.0,6,45.0,30.0,9,0.301,1.0,840.96,0.2,1,2018-08-02 09:05:16.000,142,2018-08-02 09:19:15.563,0.25,-90,0,120,30,1
4779,57,0,923.331,0,90,1,0.25,2,9,0.0,1.0,6,45.0,30.0,9,0.526,1.0,924.563,0.2,1,2018-08-02 14:34:08.000,207,2018-08-02 14:49:31.331,0.25,-90,0,-90,-180,1
4780,58,0,936.651,0,90,1,0.25,2,3,0.0,1.0,12,45.0,30.0,3,0.376,0.0,937.692,0.2,1,2018-08-02 14:34:08.000,207,2018-08-02 14:49:44.651,0.25,90,-180,90,0,1
4781,59,0,962.573,0,90,1,0.25,2,3,0.0,1.0,12,45.0,30.0,3,0.301,0.0,963.94,0.2,1,2018-08-02 14:34:08.000,207,2018-08-02 14:50:10.573,0.25,90,-180,90,0,1
