,Trial,CorrectionTrial,StartTime,CenterReward,CenterSpoutRotation,nStimReps,Duration,Modality,LED Location,LED_trial_V,LED_bgnd_V,Speaker Location,Speaker_trial_V,Speaker_bgnd_V,TargetSpout,HoldTime,Response,RespTime,ValveTime,Correct,SessionDate,SessionID,StartDateTime,StimulusTotalDuration,response_angle_world,speaker_angle_world,speaker_angle_platform,response_angle_platform,not_probe
290,139,0,1448.651,0,180,1,0.25,2,3,0.0,1.0,12,45.0,20.0,3,0.551,0.0,0.0,0.15,1,2019-11-26 15:04:52.000,84,2019-11-26 15:29:00.651,0.25,90,-180,0,-90,1
291,140,0,1455.141,0,180,1,0.25,2,9,0.0,1.0,6,45.0,20.0,9,0.601,0.0,0.0,0.0,0,2019-11-26 15:04:52.000,84,2019-11-26 15:29:07.141,0.25,90,0,-180,-90,1
292,142,0,1480.348,0,180,1,0.25,2,9,0.0,1.0,6,45.0,20.0,9,0.701,1.0,1481.594,0.15,1,2019-11-26 15:04:52.000,84,2019-11-26 15:29:32.348,0.25,-90,0,-180,90,1
293,143,0,1487.204,0,180,1,0.25,2,3,0.0,1.0,12,45.0,20.0,3,0.501,1.0,1488.997,0.0,0,2019-11-26 15:04:52.000,84,2019-11-26 15:29:39.204,0.25,-90,-180,0,90,1
294,145,0,1527.024,0,180,1,0.25,2,9,0.0,1.0,6,45.0,20.0,9,0.6509999999999999,1.0,1528.192,0.15,1,2019-11-26 15:04:52.000,84,2019-11-26 15:30:19.024,0.25,-90,0,-180,90,1
295,146,0,1534.41,0,180,1,0.25,2,3,0.0,1.0,12,45.0,20.0,3,0.701,1.0,1535.725,0.0,0,2019-11-26 15:04:52.000,84,2019-11-26 15:30:26.410,0.25,-90,-180,0,90,1
296,148,0,1556.899,0,180,1,0.25,2,9,0.0,1.0,6,45.0,20.0,9,0.601,1.0,1557.985,0.15,1,2019-11-26 15:04:52.000,84,2019-11-26 15:30:48.899,0.25,-90,0,-180,90,1
297,149,0,1563.892,0,180,1,0.25,2,3,0.0,1.0,12,45.0,20.0,3,0.6509999999999999,1.0,1565.4260000000004,0.0,0,2019-11-26 15:04:52.000,84,2019-11-26 15:30:55.892,0.25,-90,-180,0,90,1
298,151,0,1590.9,0,180,1,0.25,2,3,0.0,1.0,12,45.0,20.0,3,0.501,1.0,1592.864,0.0,0,2019-11-26 15:04:52.000,84,2019-11-26 15:31:22.900,0.25,-90,-180,0,90,1
299,153,0,1619.053,0,180,1,0.25,2,3,0.0,1.0,12,45.0,20.0,3,0.551,1.0,1620.61,0.0,0,2019-11-26 15:04:52.000,84,2019-11-26 15:31:51.053,0.25,-90,-180,0,90,1
365,92,0,1105.899,0,0,1,0.25,2,9,0.0,1.0,6,45.0,20.0,9,0.501,1.0,1107.453,0.15,1,2019-11-27 09:48:30.000,25,2019-11-27 10:06:55.899,0.25,-90,0,0,-90,1
366,93,0,1113.521,0,0,1,0.25,2,9,0.0,1.0,6,45.0,20.0,9,0.551,1.0,1115.443,0.15,1,2019-11-27 09:48:30.000,25,2019-11-27 10:07:03.521,0.25,-90,0,0,-90,1
367,94,0,1121.851,0,0,1,0.25,2,9,0.0,1.0,6,45.0,20.0,9,0.6509999999999999,1.0,1123.483,0.15,1,2019-11-27 09:48:30.000,25,2019-11-27 10:07:11.851,0.25,-90,0,0,-90,1
368,95,0,1156.552,0,0,1,0.25,2,3,0.0,1.0,12,45.0,20.0,3,0.701,0.0,0.0,0.15,1,2019-11-27 09:48:30.000,25,2019-11-27 10:07:46.552,0.25,90,-180,-180,90,1
369,96,0,1164.548,0,0,1,0.25,2,3,0.0,1.0,12,45.0,20.0,3,0.601,0.0,0.0,0.15,1,2019-11-27 09:48:30.000,25,2019-11-27 10:07:54.548,0.25,90,-180,-180,90,1
370,97,0,1169.993,0,0,1,0.25,2,3,0.0,1.0,12,45.0,20.0,3,0.551,1.0,1171.687,0.0,0,2019-11-27 09:48:30.000,25,2019-11-27 10:07:59.993,0.25,-90,-180,-180,-90,1
371,99,0,1222.439,0,0,1,0.25,2,9,0.0,1.0,6,45.0,20.0,9,0.6509999999999999,0.0,0.0,0.0,0,2019-11-27 09:48:30.000,25,2019-11-27 10:08:52.439,0.25,90,0,0,90,1
372,101,0,1246.7,0,0,1,0.25,2,3,0.0,1.0,12,45.0,20.0,3,0.601,0.0,0.0,0.15,1,2019-11-27 09:48:30.000,25,2019-11-27 10:09:16.700,0.25,90,-180,-180,90,1
373,102,0,1252.539,0,0,1,0.25,2,9,0.0,1.0,6,45.0,20.0,9,0.701,1.0,1254.27,0.15,1,2019-11-27 09:48:30.000,25,2019-11-27 10:09:22.539,0.25,-90,0,0,-90,1
374,103,0,1259.106,0,0,1,0.25,2,3,0.0,1.0,12,45.0,20.0,3,0.501,1.0,1261.066,0.0,0,2019-11-27 09:48:30.000,25,2019-11-27 10:09:29.106,0.25,-90,-180,-180,-90,1
425,62,0,1108.723,0,60,1,0.25,2,3,0.0,1.0,12,45.0,20.0,3,0.701,0.0,0.0,0.15,1,2019-11-27 15:26:14.000,13,2019-11-27 15:44:42.723,0.25,90,-180,120,30,1
426,63,0,1116.849,0,60,1,0.25,2,9,0.0,1.0,6,45.0,20.0,9,0.551,1.0,1118.865,0.15,1,2019-11-27 15:26:14.000,13,2019-11-27 15:44:50.849,0.25,-90,0,-60,-150,1
427,64,0,1124.799,0,60,1,0.25,2,9,0.0,1.0,6,45.0,20.0,9,0.501,1.0,1127.249,0.15,1,2019-11-27 15:26:14.000,13,2019-11-27 15:44:58.799,0.25,-90,0,-60,-150,1
428,65,0,1140.202,0,60,1,0.25,2,9,0.0,1.0,6,45.0,20.0,9,0.6509999999999999,1.0,1142.104,0.15,1,2019-11-27 15:26:14.000,13,2019-11-27 15:45:14.202,0.25,-90,0,-60,-150,1
429,66,0,1147.72,0,60,1,0.25,2,9,0.0,1.0,6,45.0,20.0,9,0.601,1.0,1149.977,0.15,1,2019-11-27 15:26:14.000,13,2019-11-27 15:45:21.720,0.25,-90,0,-60,-150,1
430,67,0,1159.559,0,60,1,0.25,2,9,0.0,1.0,6,45.0,20.0,9,0.551,0.0,0.0,0.0,0,2019-11-27 15:26:14.000,13,2019-11-27 15:45:33.559,0.25,90,0,-60,30,1
431,69,0,1183.999,0,60,1,0.25,2,9,0.0,1.0,6,45.0,20.0,9,0.701,0.0,0.0,0.0,0,2019-11-27 15:26:14.000,13,2019-11-27 15:45:57.999,0.25,90,0,-60,30,1
432,72,0,1394.341,0,60,1,0.25,2,9,0.0,1.0,6,45.0,20.0,9,0.6509999999999999,0.0,0.0,0.0,0,2019-11-27 15:26:14.000,13,2019-11-27 15:49:28.341,0.25,90,0,-60,30,1
433,74,0,1482.193,0,60,1,0.25,2,3,0.0,1.0,12,45.0,20.0,3,0.501,0.0,0.0,0.15,1,2019-11-27 15:26:14.000,13,2019-11-27 15:50:56.193,0.25,90,-180,120,30,1
434,75,0,1495.93,0,60,1,0.25,2,3,0.0,1.0,12,45.0,20.0,3,0.601,1.0,1497.7,0.0,0,2019-11-27 15:26:14.000,13,2019-11-27 15:51:09.930,0.25,-90,-180,120,-150,1
482,72,0,938.793,0,0,1,0.25,2,9,0.0,1.0,6,45.0,20.0,9,0.501,1.0,940.69,0.15,1,2019-11-28 09:23:03.000,21,2019-11-28 09:38:41.793,0.25,-90,0,0,-90,1
483,73,0,950.59,1,0,1,0.25,2,9,0.0,1.0,6,45.0,20.0,9,0.551,1.0,952.093,0.15,1,2019-11-28 09:23:03.000,21,2019-11-28 09:38:53.590,0.25,-90,0,0,-90,1
484,74,0,966.001,0,0,1,0.25,2,3,0.0,1.0,12,45.0,20.0,3,0.6509999999999999,1.0,968.676,0.0,0,2019-11-28 09:23:03.000,21,2019-11-28 09:39:09.001,0.25,-90,-180,-180,-90,1
485,77,0,1025.144,1,0,1,0.25,2,3,0.0,1.0,12,45.0,20.0,3,0.701,1.0,1026.805,0.0,0,2019-11-28 09:23:03.000,21,2019-11-28 09:40:08.144,0.25,-90,-180,-180,-90,1
486,80,0,1066.9489999999996,0,0,1,0.25,2,9,0.0,1.0,6,45.0,20.0,9,0.501,1.0,1069.06,0.15,1,2019-11-28 09:23:03.000,21,2019-11-28 09:40:49.949,0.25,-90,0,0,-90,1
487,81,0,1074.678,0,0,1,0.25,2,3,0.0,1.0,12,45.0,20.0,3,0.601,1.0,1076.525,0.0,0,2019-11-28 09:23:03.000,21,2019-11-28 09:40:57.678,0.25,-90,-180,-180,-90,1
488,83,0,1106.519,0,0,1,0.25,2,9,0.0,1.0,6,45.0,20.0,9,0.551,1.0,1108.212,0.15,1,2019-11-28 09:23:03.000,21,2019-11-28 09:41:29.519,0.25,-90,0,0,-90,1
489,84,0,1137.861,0,0,1,0.25,2,3,0.0,1.0,12,45.0,20.0,3,0.6509999999999999,0.0,0.0,0.15,1,2019-11-28 09:23:03.000,21,2019-11-28 09:42:00.861,0.25,90,-180,-180,90,1
490,85,0,1158.224,0,0,1,0.25,2,3,0.0,1.0,12,45.0,20.0,3,0.6509999999999999,0.0,0.0,0.15,1,2019-11-28 09:23:03.000,21,2019-11-28 09:42:21.224,0.25,90,-180,-180,90,1
491,86,0,1164.77,0,0,1,0.25,2,3,0.0,1.0,12,45.0,20.0,3,0.601,1.0,1166.215,0.0,0,2019-11-28 09:23:03.000,21,2019-11-28 09:42:27.770,0.25,-90,-180,-180,-90,1
661,71,0,1223.022,0,-60,1,0.25,2,3,0.0,1.0,12,45.0,20.0,3,0.6509999999999999,1.0,1225.144,0.0,0,2019-11-29 14:54:08.000,53,2019-11-29 15:14:31.022,0.25,-90,-180,-120,-30,1
662,73,0,1243.399,0,-60,1,0.25,2,3,0.0,1.0,12,45.0,20.0,3,0.501,1.0,1245.931,0.0,0,2019-11-29 14:54:08.000,53,2019-11-29 15:14:51.399,0.25,-90,-180,-120,-30,1
663,76,0,1291.95,0,-60,1,0.25,2,3,0.0,1.0,12,45.0,20.0,3,0.601,0.0,0.0,0.15,1,2019-11-29 14:54:08.000,53,2019-11-29 15:15:39.950,0.25,90,-180,-120,150,1
664,77,0,1358.128,0,-60,1,0.25,2,9,0.0,1.0,6,45.0,20.0,9,0.551,1.0,1360.036,0.15,1,2019-11-29 14:54:08.000,53,2019-11-29 15:16:46.128,0.25,-90,0,60,-30,1
665,78,0,1372.3870000000004,0,-60,1,0.25,2,3,0.0,1.0,12,45.0,20.0,3,0.551,1.0,1376.346,0.0,0,2019-11-29 14:54:08.000,53,2019-11-29 15:17:00.387,0.25,-90,-180,-120,-30,1
666,80,0,1399.0929999999996,1,-60,1,0.25,2,9,0.0,1.0,6,45.0,20.0,9,0.6509999999999999,0.0,0.0,0.0,0,2019-11-29 14:54:08.000,53,2019-11-29 15:17:27.093,0.25,90,0,60,150,1
667,84,0,1466.919,0,-60,1,0.25,2,9,0.0,1.0,6,45.0,20.0,9,0.601,1.0,1468.46,0.15,1,2019-11-29 14:54:08.000,53,2019-11-29 15:18:34.919,0.25,-90,0,60,-30,1
668,85,0,1473.822,0,-60,1,0.25,2,3,0.0,1.0,12,45.0,20.0,3,0.501,1.0,1475.731,0.0,0,2019-11-29 14:54:08.000,53,2019-11-29 15:18:41.822,0.25,-90,-180,-120,-30,1
669,88,0,1509.178,0,-60,1,0.25,2,9,0.0,1.0,6,45.0,20.0,9,0.701,0.0,0.0,0.0,0,2019-11-29 14:54:08.000,53,2019-11-29 15:19:17.178,0.25,90,0,60,150,1
670,90,0,1545.4129999999998,0,-60,1,0.25,2,9,0.0,1.0,6,45.0,20.0,9,0.6509999999999999,0.0,0.0,0.0,0,2019-11-29 14:54:08.000,53,2019-11-29 15:19:53.413,0.25,90,0,60,150,1
684,16,0,230.006,0,0,1,0.25,2,9,0.0,1.0,6,45.0,20.0,9,0.701,1.0,231.849,0.15,1,2019-12-09 09:14:39.000,39,2019-12-09 09:18:29.006,0.25,-90,0,0,-90,1
685,17,0,237.344,0,0,1,0.25,2,9,0.0,1.0,6,45.0,20.0,9,0.501,1.0,239.133,0.15,1,2019-12-09 09:14:39.000,39,2019-12-09 09:18:36.344,0.25,-90,0,0,-90,1
686,18,0,246.513,0,0,1,0.25,2,9,0.0,1.0,6,45.0,20.0,9,0.551,1.0,248.834,0.15,1,2019-12-09 09:14:39.000,39,2019-12-09 09:18:45.513,0.25,-90,0,0,-90,1
687,19,0,254.54,0,0,1,0.25,2,9,0.0,1.0,6,45.0,20.0,9,0.6509999999999999,1.0,256.603,0.15,1,2019-12-09 09:14:39.000,39,2019-12-09 09:18:53.540,0.25,-90,0,0,-90,1
688,20,0,283.9190000000001,0,0,1,0.25,2,9,0.0,1.0,6,45.0,20.0,9,0.701,1.0,286.099,0.15,1,2019-12-09 09:14:39.000,39,2019-12-09 09:19:22.919,0.25,-90,0,0,-90,1
689,21,0,290.911,0,0,1,0.25,2,9,0.0,1.0,6,45.0,20.0,9,0.601,1.0,292.972,0.15,1,2019-12-09 09:14:39.000,39,2019-12-09 09:19:29.911,0.25,-90,0,0,-90,1
690,22,0,297.228,0,0,1,0.25,2,3,0.0,1.0,12,45.0,20.0,3,0.501,0.0,0.0,0.15,1,2019-12-09 09:14:39.000,39,2019-12-09 09:19:36.228,0.25,90,-180,-180,90,1
691,23,0,303.5540000000001,0,0,1,0.25,2,9,0.0,1.0,6,45.0,20.0,9,0.6509999999999999,1.0,305.486,0.15,1,2019-12-09 09:14:39.000,39,2019-12-09 09:19:42.554,0.25,-90,0,0,-90,1
692,24,0,310.696,0,0,1,0.25,2,3,0.0,1.0,12,45.0,20.0,3,0.551,0.0,0.0,0.15,1,2019-12-09 09:14:39.000,39,2019-12-09 09:19:49.696,0.25,90,-180,-180,90,1
693,25,0,317.033,0,0,1,0.25,2,3,0.0,1.0,12,45.0,20.0,3,0.701,0.0,0.0,0.15,1,2019-12-09 09:14:39.000,39,2019-12-09 09:19:56.033,0.25,90,-180,-180,90,1
1215,107,0,1257.66,0,-30,1,0.25,2,3,0.0,1.0,12,45.0,20.0,3,0.701,1.0,1260.101,0.0,0,2019-12-12 15:26:54.000,63,2019-12-12 15:47:51.660,0.25,-90,-180,-150,-60,1
1216,109,0,1292.696,0,-30,1,0.25,2,9,0.0,1.0,6,45.0,20.0,9,0.701,1.0,1294.613,0.15,1,2019-12-12 15:26:54.000,63,2019-12-12 15:48:26.696,0.25,-90,0,30,-60,1
1217,110,0,1309.239,0,-30,1,0.25,2,9,0.0,1.0,6,45.0,20.0,9,0.601,1.0,1312.59,0.15,1,2019-12-12 15:26:54.000,63,2019-12-12 15:48:43.239,0.25,-90,0,30,-60,1
1218,111,0,1317.186,0,-30,1,0.25,2,3,0.0,1.0,12,45.0,20.0,3,0.501,0.0,0.0,0.15,1,2019-12-12 15:26:54.000,63,2019-12-12 15:48:51.186,0.25,90,-180,-150,120,1
1219,112,0,1323.642,0,-30,1,0.25,2,3,0.0,1.0,12,45.0,20.0,3,0.551,1.0,1325.72,0.0,0,2019-12-12 15:26:54.000,63,2019-12-12 15:48:57.642,0.25,-90,-180,-150,-60,1
1220,114,0,1374.754,0,-30,1,0.25,2,9,0.0,1.0,6,45.0,20.0,9,0.6509999999999999,1.0,1376.445,0.15,1,2019-12-12 15:26:54.000,63,2019-12-12 15:49:48.754,0.25,-90,0,30,-60,1
1221,115,0,1382.2720000000004,0,-30,1,0.25,2,9,0.0,1.0,6,45.0,20.0,9,0.551,1.0,1383.829,0.15,1,2019-12-12 15:26:54.000,63,2019-12-12 15:49:56.272,0.25,-90,0,30,-60,1
1222,116,0,1395.89,0,-30,1,0.25,2,3,0.0,1.0,12,45.0,20.0,3,0.701,1.0,1397.833,0.0,0,2019-12-12 15:26:54.000,63,2019-12-12 15:50:09.890,0.25,-90,-180,-150,-60,1
1223,118,0,1425.7220000000002,0,-30,1,0.25,2,3,0.0,1.0,12,45.0,20.0,3,0.601,0.0,0.0,0.15,1,2019-12-12 15:26:54.000,63,2019-12-12 15:50:39.722,0.25,90,-180,-150,120,1
1224,119,0,1432.9679999999996,0,-30,1,0.25,2,9,0.0,1.0,6,45.0,20.0,9,0.501,1.0,1434.705,0.15,1,2019-12-12 15:26:54.000,63,2019-12-12 15:50:46.968,0.25,-90,0,30,-60,1
1264,54,0,728.699,0,30,1,0.25,2,3,0.0,1.0,12,45.0,20.0,3,0.551,1.0,730.9780000000002,0.0,0,2019-12-13 09:42:21.000,70,2019-12-13 09:54:29.699,0.25,-90,-180,150,-120,1
1265,56,0,756.677,0,30,1,0.25,2,3,0.0,1.0,12,45.0,20.0,3,0.551,0.0,0.0,0.1,1,2019-12-13 09:42:21.000,70,2019-12-13 09:54:57.677,0.25,90,-180,150,60,1
1266,57,0,762.975,1,30,1,0.25,2,3,0.0,1.0,12,45.0,20.0,3,0.6509999999999999,0.0,0.0,0.1,1,2019-12-13 09:42:21.000,70,2019-12-13 09:55:03.975,0.25,90,-180,150,60,1
1267,58,0,775.566,0,30,1,0.25,2,9,0.0,1.0,6,45.0,20.0,9,0.601,1.0,777.377,0.15,1,2019-12-13 09:42:21.000,70,2019-12-13 09:55:16.566,0.25,-90,0,-30,-120,1
1268,59,0,783.105,0,30,1,0.25,2,3,0.0,1.0,12,45.0,20.0,3,0.501,0.0,0.0,0.1,1,2019-12-13 09:42:21.000,70,2019-12-13 09:55:24.105,0.25,90,-180,150,60,1
1269,60,0,795.883,1,30,1,0.25,2,9,0.0,1.0,6,45.0,20.0,9,0.701,0.0,0.0,0.0,0,2019-12-13 09:42:21.000,70,2019-12-13 09:55:36.883,0.25,90,0,-30,60,1
1270,62,0,824.5369999999998,0,30,1,0.25,2,9,0.0,1.0,6,45.0,20.0,9,0.501,1.0,826.683,0.15,1,2019-12-13 09:42:21.000,70,2019-12-13 09:56:05.537,0.25,-90,0,-30,-120,1
1271,63,0,832.465,0,30,1,0.25,2,3,0.0,1.0,12,45.0,20.0,3,0.701,1.0,834.985,0.0,0,2019-12-13 09:42:21.000,70,2019-12-13 09:56:13.465,0.25,-90,-180,150,-120,1
1272,65,0,910.665,0,30,1,0.25,2,9,0.0,1.0,6,45.0,20.0,9,0.551,1.0,912.513,0.15,1,2019-12-13 09:42:21.000,70,2019-12-13 09:57:31.665,0.25,-90,0,-30,-120,1
1273,66,0,927.743,0,30,1,0.25,2,3,0.0,1.0,12,45.0,20.0,3,0.6509999999999999,1.0,936.559,0.0,0,2019-12-13 09:42:21.000,70,2019-12-13 09:57:48.743,0.25,-90,-180,150,-120,1
1325,58,0,792.36,0,0,1,0.25,2,9,0.0,1.0,6,45.0,20.0,9,0.601,1.0,794.836,0.15,1,2019-12-13 14:43:01.000,74,2019-12-13 14:56:13.360,0.25,-90,0,0,-90,1
1326,59,0,854.71,0,0,1,0.25,2,3,0.0,1.0,12,45.0,20.0,3,0.6509999999999999,0.0,0.0,0.15,1,2019-12-13 14:43:01.000,74,2019-12-13 14:57:15.710,0.25,90,-180,-180,90,1
1327,60,0,861.7139999999998,0,0,1,0.25,2,3,0.0,1.0,12,45.0,20.0,3,0.501,0.0,0.0,0.15,1,2019-12-13 14:43:01.000,74,2019-12-13 14:57:22.714,0.25,90,-180,-180,90,1
1328,61,0,894.816,0,0,1,0.25,2,3,0.0,1.0,12,45.0,20.0,3,0.701,1.0,897.132,0.0,0,2019-12-13 14:43:01.000,74,2019-12-13 14:57:55.816,0.25,-90,-180,-180,-90,1
1329,63,0,923.381,0,0,1,0.25,2,9,0.0,1.0,6,45.0,20.0,9,0.6509999999999999,1.0,925.341,0.15,1,2019-12-13 14:43:01.000,74,2019-12-13 14:58:24.381,0.25,-90,0,0,-90,1
1330,64,0,957.015,0,0,1,0.25,2,9,0.0,1.0,6,45.0,20.0,9,0.551,1.0,958.837,0.15,1,2019-12-13 14:43:01.000,74,2019-12-13 14:58:58.015,0.25,-90,0,0,-90,1
1331,65,0,964.871,0,0,1,0.25,2,9,0.0,1.0,6,45.0,20.0,9,0.501,1.0,966.851,0.15,1,2019-12-13 14:43:01.000,74,2019-12-13 14:59:05.871,0.25,-90,0,0,-90,1
1332,66,0,990.772,0,0,1,0.25,2,3,0.0,1.0,12,45.0,20.0,3,0.701,0.0,0.0,0.15,1,2019-12-13 14:43:01.000,74,2019-12-13 14:59:31.772,0.25,90,-180,-180,90,1
1333,67,0,998.964,0,0,1,0.25,2,3,0.0,1.0,12,45.0,20.0,3,0.601,0.0,0.0,0.15,1,2019-12-13 14:43:01.000,74,2019-12-13 14:59:39.964,0.25,90,-180,-180,90,1
1334,68,0,1049.742,0,0,1,0.25,2,9,0.0,1.0,6,45.0,20.0,9,0.601,0.0,0.0,0.0,0,2019-12-13 14:43:01.000,74,2019-12-13 15:00:30.742,0.25,90,0,0,90,1
1713,71,0,913.765,0,-150,1,0.25,2,9,0.0,1.0,6,45.0,20.0,9,0.6509999999999999,1.0,915.777,0.15,1,2019-12-18 14:50:40.000,83,2019-12-18 15:05:53.765,0.25,-90,0,150,60,1
1714,72,0,921.679,0,-150,1,0.25,2,3,0.0,1.0,12,45.0,20.0,3,0.601,0.0,0.0,0.15,1,2019-12-18 14:50:40.000,83,2019-12-18 15:06:01.679,0.25,90,-180,-30,-120,1
1715,73,0,931.995,0,-150,1,0.25,2,3,0.0,1.0,12,45.0,20.0,3,0.601,0.0,0.0,0.15,1,2019-12-18 14:50:40.000,83,2019-12-18 15:06:11.995,0.25,90,-180,-30,-120,1
1716,74,0,939.491,0,-150,1,0.25,2,9,0.0,1.0,6,45.0,20.0,9,0.501,1.0,941.188,0.15,1,2019-12-18 14:50:40.000,83,2019-12-18 15:06:19.491,0.25,-90,0,150,60,1
1717,75,0,946.046,0,-150,1,0.25,2,9,0.0,1.0,6,45.0,20.0,9,0.551,1.0,947.502,0.15,1,2019-12-18 14:50:40.000,83,2019-12-18 15:06:26.046,0.25,-90,0,150,60,1
1718,76,0,952.609,0,-150,1,0.25,2,3,0.0,1.0,12,45.0,20.0,3,0.701,0.0,0.0,0.15,1,2019-12-18 14:50:40.000,83,2019-12-18 15:06:32.609,0.25,90,-180,-30,-120,1
1719,77,0,972.922,0,-150,1,0.25,2,9,0.0,1.0,6,45.0,20.0,9,0.6509999999999999,1.0,975.327,0.15,1,2019-12-18 14:50:40.000,83,2019-12-18 15:06:52.922,0.25,-90,0,150,60,1
1720,78,0,981.647,0,-150,1,0.25,2,3,0.0,1.0,12,45.0,20.0,3,0.6509999999999999,0.0,0.0,0.15,1,2019-12-18 14:50:40.000,83,2019-12-18 15:07:01.647,0.25,90,-180,-30,-120,1
1721,79,0,1021.102,0,-150,1,0.25,2,3,0.0,1.0,12,45.0,20.0,3,0.601,0.0,0.0,0.15,1,2019-12-18 14:50:40.000,83,2019-12-18 15:07:41.102,0.25,90,-180,-30,-120,1
1722,80,0,1048.748,0,-150,1,0.25,2,3,0.0,1.0,12,45.0,20.0,3,0.701,1.0,1053.17,0.0,0,2019-12-18 14:50:40.000,83,2019-12-18 15:08:08.748,0.25,-90,-180,-30,60,1
1760,49,0,589.3969999999998,0,0,1,0.25,2,3,0.0,1.0,12,45.0,20.0,3,0.6509999999999999,0.0,0.0,0.15,1,2019-12-19 09:29:53.000,67,2019-12-19 09:39:42.397,0.25,90,-180,-180,90,1
1761,50,0,597.261,0,0,1,0.25,2,3,0.0,1.0,12,45.0,20.0,3,0.601,0.0,0.0,0.15,1,2019-12-19 09:29:53.000,67,2019-12-19 09:39:50.261,0.25,90,-180,-180,90,1
1762,51,0,604.2130000000002,0,0,1,0.25,2,3,0.0,1.0,12,45.0,20.0,3,0.501,1.0,605.9680000000002,0.0,0,2019-12-19 09:29:53.000,67,2019-12-19 09:39:57.213,0.25,-90,-180,-180,-90,1
1763,53,0,619.327,0,0,1,0.25,2,9,0.0,1.0,6,45.0,20.0,9,0.701,1.0,620.808,0.15,1,2019-12-19 09:29:53.000,67,2019-12-19 09:40:12.327,0.25,-90,0,0,-90,1
1764,54,0,662.966,0,0,1,0.25,2,9,0.0,1.0,6,45.0,20.0,9,0.551,1.0,665.029,0.15,1,2019-12-19 09:29:53.000,67,2019-12-19 09:40:55.966,0.25,-90,0,0,-90,1
1765,55,0,670.057,0,0,1,0.25,2,3,0.0,1.0,12,45.0,20.0,3,0.601,0.0,0.0,0.15,1,2019-12-19 09:29:53.000,67,2019-12-19 09:41:03.057,0.25,90,-180,-180,90,1
1766,56,0,722.059,0,0,1,0.25,2,9,0.0,1.0,6,45.0,20.0,9,0.501,1.0,723.941,0.15,1,2019-12-19 09:29:53.000,67,2019-12-19 09:41:55.059,0.25,-90,0,0,-90,1
1767,57,0,728.2869999999998,0,0,1,0.25,2,3,0.0,1.0,12,45.0,20.0,3,0.6509999999999999,0.0,0.0,0.15,1,2019-12-19 09:29:53.000,67,2019-12-19 09:42:01.287,0.25,90,-180,-180,90,1
1768,58,0,762.557,0,0,1,0.25,2,9,0.0,1.0,6,45.0,20.0,9,0.701,1.0,764.3539999999998,0.15,1,2019-12-19 09:29:53.000,67,2019-12-19 09:42:35.557,0.25,-90,0,0,-90,1
1769,59,0,776.132,0,0,1,0.25,2,3,0.0,1.0,12,45.0,20.0,3,0.551,0.0,0.0,0.15,1,2019-12-19 09:29:53.000,67,2019-12-19 09:42:49.132,0.25,90,-180,-180,90,1
1797,35,0,631.5459999999998,0,150,1,0.25,2,9,0.0,1.0,6,45.0,20.0,9,0.501,0.0,0.0,0.0,0,2019-12-19 15:01:44.000,78,2019-12-19 15:12:15.546,0.25,90,0,-150,-60,1
1798,37,0,664.997,0,150,1,0.25,2,3,0.0,1.0,12,45.0,20.0,3,0.601,1.0,666.9169999999998,0.0,0,2019-12-19 15:01:44.000,78,2019-12-19 15:12:48.997,0.25,-90,-180,30,120,1
1799,39,0,691.334,0,150,1,0.25,2,9,0.0,1.0,6,45.0,20.0,9,0.6509999999999999,1.0,702.0880000000002,0.15,1,2019-12-19 15:01:44.000,78,2019-12-19 15:13:15.334,0.25,-90,0,-150,120,1
1800,40,0,711.612,0,150,1,0.25,2,3,0.0,1.0,12,45.0,20.0,3,0.551,0.0,0.0,0.15,1,2019-12-19 15:01:44.000,78,2019-12-19 15:13:35.612,0.25,90,-180,30,-60,1
1801,41,0,737.7280000000002,1,150,1,0.25,2,3,0.0,1.0,12,45.0,20.0,3,0.701,0.0,0.0,0.15,1,2019-12-19 15:01:44.000,78,2019-12-19 15:14:01.728,0.25,90,-180,30,-60,1
1802,42,0,747.721,0,150,1,0.25,2,3,0.0,1.0,12,45.0,20.0,3,0.6509999999999999,0.0,0.0,0.15,1,2019-12-19 15:01:44.000,78,2019-12-19 15:14:11.721,0.25,90,-180,30,-60,1
1803,43,0,771.0360000000002,1,150,1,0.25,2,9,0.0,1.0,6,45.0,20.0,9,0.501,1.0,757.9739999999998,0.15,1,2019-12-19 15:01:44.000,78,2019-12-19 15:14:35.036,0.25,-90,0,-150,120,1
1804,44,0,772.829,0,150,1,0.25,2,3,0.0,1.0,12,45.0,20.0,3,0.601,1.0,757.9739999999998,0.0,0,2019-12-19 15:01:44.000,78,2019-12-19 15:14:36.829,0.25,-90,-180,30,120,1
1805,54,0,910.269,0,150,1,0.25,2,3,0.0,1.0,12,45.0,20.0,3,0.551,0.0,0.0,0.15,1,2019-12-19 15:01:44.000,78,2019-12-19 15:16:54.269,0.25,90,-180,30,-60,1
1806,55,0,930.49,0,150,1,0.25,2,9,0.0,1.0,6,45.0,20.0,9,0.601,1.0,951.879,0.15,1,2019-12-19 15:01:44.000,78,2019-12-19 15:17:14.490,0.25,-90,0,-150,120,1
1843,50,0,853.561,0,0,1,0.25,2,9,0.0,1.0,6,45.0,20.0,9,0.701,1.0,855.306,0.15,1,2019-12-20 08:57:03.000,22,2019-12-20 09:11:16.561,0.25,-90,0,0,-90,1
1844,51,0,860.645,0,0,1,0.25,2,3,0.0,1.0,12,45.0,20.0,3,0.6509999999999999,0.0,0.0,0.15,1,2019-12-20 08:57:03.000,22,2019-12-20 09:11:23.645,0.25,90,-180,-180,90,1
1845,52,0,887.7639999999999,0,0,1,0.25,2,9,0.0,1.0,6,45.0,20.0,9,0.601,1.0,889.482,0.15,1,2019-12-20 08:57:03.000,22,2019-12-20 09:11:50.764,0.25,-90,0,0,-90,1
1846,53,0,894.1110000000001,0,0,1,0.25,2,3,0.0,1.0,12,45.0,20.0,3,0.501,0.0,0.0,0.15,1,2019-12-20 08:57:03.000,22,2019-12-20 09:11:57.111,0.25,90,-180,-180,90,1
1847,54,0,902.238,0,0,1,0.25,2,3,0.0,1.0,12,45.0,20.0,3,0.6509999999999999,1.0,904.416,0.0,0,2019-12-20 08:57:03.000,22,2019-12-20 09:12:05.238,0.25,-90,-180,-180,-90,1
1848,56,0,949.428,0,0,1,0.25,2,3,0.0,1.0,12,45.0,20.0,3,0.551,0.0,0.0,0.15,1,2019-12-20 08:57:03.000,22,2019-12-20 09:12:52.428,0.25,90,-180,-180,90,1
1849,57,0,957.148,0,0,1,0.25,2,3,0.0,1.0,12,45.0,20.0,3,0.601,1.0,958.539,0.0,0,2019-12-20 08:57:03.000,22,2019-12-20 09:13:00.148,0.25,-90,-180,-180,-90,1
1850,59,0,1010.556,0,0,1,0.25,2,9,0.0,1.0,6,45.0,20.0,9,0.501,1.0,1012.489,0.15,1,2019-12-20 08:57:03.000,22,2019-12-20 09:13:53.556,0.25,-90,0,0,-90,1
1851,60,0,1036.186,0,0,1,0.25,2,9,0.0,1.0,6,45.0,20.0,9,0.701,1.0,1037.846,0.15,1,2019-12-20 08:57:03.000,22,2019-12-20 09:14:19.186,0.25,-90,0,0,-90,1
1852,61,0,1066.17,0,0,1,0.25,2,9,0.0,1.0,6,45.0,20.0,9,0.551,1.0,1068.105,0.15,1,2019-12-20 08:57:03.000,22,2019-12-20 09:14:49.170,0.25,-90,0,0,-90,1
3948,79,0,1114.141,0,-30,1,0.25,2,3,0.0,1.0,12,45.0,20.0,3,0.614,0.0,0.0,0.155,1,2020-02-21 15:15:43.000,15,2020-02-21 15:34:17.141,0.25,90,-180,-150,120,1
3949,80,0,1130.139,0,-30,1,0.25,2,3,0.0,1.0,12,45.0,20.0,3,0.5379999999999999,0.0,0.0,0.155,1,2020-02-21 15:15:43.000,15,2020-02-21 15:34:33.139,0.25,90,-180,-150,120,1
3950,81,0,1144.34,0,-30,1,0.25,2,3,0.0,1.0,12,45.0,20.0,3,0.614,0.0,0.0,0.155,1,2020-02-21 15:15:43.000,15,2020-02-21 15:34:47.340,0.25,90,-180,-150,120,1
3951,82,0,1179.362,0,-30,1,0.25,2,9,0.0,1.0,6,45.0,20.0,9,0.6509999999999999,1.0,1182.371,0.145,1,2020-02-21 15:15:43.000,15,2020-02-21 15:35:22.362,0.25,-90,0,30,-60,1
3952,83,0,1187.562,0,-30,1,0.25,2,3,0.0,1.0,12,45.0,20.0,3,0.5760000000000001,0.0,0.0,0.155,1,2020-02-21 15:15:43.000,15,2020-02-21 15:35:30.562,0.25,90,-180,-150,120,1
3953,84,0,1206.353,0,-30,1,0.25,2,3,0.0,1.0,12,45.0,20.0,3,0.501,0.0,0.0,0.155,1,2020-02-21 15:15:43.000,15,2020-02-21 15:35:49.353,0.25,90,-180,-150,120,1
3954,85,0,1236.744,0,-30,1,0.25,2,9,0.0,1.0,6,45.0,20.0,9,0.5760000000000001,1.0,1238.831,0.145,1,2020-02-21 15:15:43.000,15,2020-02-21 15:36:19.744,0.25,-90,0,30,-60,1
3955,86,0,1268.744,0,-30,1,0.25,2,3,0.0,1.0,12,45.0,20.0,3,0.5379999999999999,0.0,0.0,0.155,1,2020-02-21 15:15:43.000,15,2020-02-21 15:36:51.744,0.25,90,-180,-150,120,1
3956,87,0,1294.844,0,-30,1,0.25,2,9,0.0,1.0,6,45.0,20.0,9,0.614,1.0,1296.966,0.145,1,2020-02-21 15:15:43.000,15,2020-02-21 15:37:17.844,0.25,-90,0,30,-60,1
3957,88,0,1302.881,0,-30,1,0.25,2,3,0.0,1.0,12,45.0,20.0,3,0.6509999999999999,1.0,1304.4160000000004,0.0,0,2020-02-21 15:15:43.000,15,2020-02-21 15:37:25.881,0.25,-90,-180,-150,-60,1
4014,72,0,1036.759,1,0,1,0.25,2,9,0.0,1.0,6,45.0,20.0,9,0.5379999999999999,1.0,1041.283,0.14,1,2020-03-02 10:01:42.000,79,2020-03-02 10:18:58.759,0.25,-90,0,0,-90,1
4015,73,0,1046.282,0,0,1,0.25,2,3,0.0,1.0,12,45.0,20.0,3,0.6509999999999999,1.0,1047.704,0.0,0,2020-03-02 10:01:42.000,79,2020-03-02 10:19:08.282,0.25,-90,-180,-180,-90,1
4016,75,0,1073.896,0,0,1,0.25,2,9,0.0,1.0,6,45.0,20.0,9,0.614,1.0,1077.096,0.14,1,2020-03-02 10:01:42.000,79,2020-03-02 10:19:35.896,0.25,-90,0,0,-90,1
4017,76,0,1081.665,0,0,1,0.25,2,9,0.0,1.0,6,45.0,20.0,9,0.5760000000000001,1.0,1083.308,0.14,1,2020-03-02 10:01:42.000,79,2020-03-02 10:19:43.665,0.25,-90,0,0,-90,1
4018,77,0,1091.202,0,0,1,0.25,2,3,0.0,1.0,12,45.0,20.0,3,0.6509999999999999,0.0,0.0,0.16,1,2020-03-02 10:01:42.000,79,2020-03-02 10:19:53.202,0.25,90,-180,-180,90,1
4019,78,0,1103.887,0,0,1,0.25,2,9,0.0,1.0,6,45.0,20.0,9,0.5379999999999999,1.0,1106.448,0.14,1,2020-03-02 10:01:42.000,79,2020-03-02 10:20:05.887,0.25,-90,0,0,-90,1
4020,79,0,1111.248,0,0,1,0.25,2,9,0.0,1.0,6,45.0,20.0,9,0.5760000000000001,1.0,1112.876,0.14,1,2020-03-02 10:01:42.000,79,2020-03-02 10:20:13.248,0.25,-90,0,0,-90,1
4021,80,0,1119.66,0,0,1,0.25,2,9,0.0,1.0,6,45.0,20.0,9,0.501,1.0,1121.418,0.14,1,2020-03-02 10:01:42.000,79,2020-03-02 10:20:21.660,0.25,-90,0,0,-90,1
4022,81,0,1130.335,1,0,1,0.25,2,3,0.0,1.0,12,45.0,20.0,3,0.614,0.0,0.0,0.16,1,2020-03-02 10:01:42.000,79,2020-03-02 10:20:32.335,0.25,90,-180,-180,90,1
4023,82,0,1140.935,1,0,1,0.25,2,9,0.0,1.0,6,45.0,20.0,9,0.5760000000000001,0.0,0.0,0.0,0,2020-03-02 10:01:42.000,79,2020-03-02 10:20:42.935,0.25,90,0,0,90,1
4332,60,0,1180.599,1,-120,1,0.25,2,9,0.0,1.0,6,45.0,20.0,9,0.501,1.0,1185.642,0.15,1,2020-03-05 17:13:48.000,88,2020-03-05 17:33:28.599,0.25,-90,0,120,30,1
4333,61,0,1191.545,0,-120,1,0.25,2,3,0.0,1.0,12,45.0,20.0,3,0.6509999999999999,0.0,0.0,0.15,1,2020-03-05 17:13:48.000,88,2020-03-05 17:33:39.545,0.25,90,-180,-60,-150,1
4334,62,0,1210.7,0,-120,1,0.25,2,9,0.0,1.0,6,45.0,20.0,9,0.5760000000000001,1.0,1212.859,0.15,1,2020-03-05 17:13:48.000,88,2020-03-05 17:33:58.700,0.25,-90,0,120,30,1
4335,63,0,1218.512,0,-120,1,0.25,2,9,0.0,1.0,6,45.0,20.0,9,0.614,1.0,1220.365,0.15,1,2020-03-05 17:13:48.000,88,2020-03-05 17:34:06.512,0.25,-90,0,120,30,1
4336,64,0,1226.362,0,-120,1,0.25,2,3,0.0,1.0,12,45.0,20.0,3,0.5379999999999999,0.0,0.0,0.15,1,2020-03-05 17:13:48.000,88,2020-03-05 17:34:14.362,0.25,90,-180,-60,-150,1
4337,65,0,1248.975,0,-120,1,0.25,2,3,0.0,1.0,12,45.0,20.0,3,0.6509999999999999,0.0,0.0,0.15,1,2020-03-05 17:13:48.000,88,2020-03-05 17:34:36.975,0.25,90,-180,-60,-150,1
4338,66,0,1266.642,0,-120,1,0.25,2,9,0.0,1.0,6,45.0,20.0,9,0.614,1.0,1268.989,0.15,1,2020-03-05 17:13:48.000,88,2020-03-05 17:34:54.642,0.25,-90,0,120,30,1
4339,67,0,1274.189,0,-120,1,0.25,2,3,0.0,1.0,12,45.0,20.0,3,0.5760000000000001,0.0,0.0,0.15,1,2020-03-05 17:13:48.000,88,2020-03-05 17:35:02.189,0.25,90,-180,-60,-150,1
4340,68,0,1287.89,0,-120,1,0.25,2,9,0.0,1.0,6,45.0,20.0,9,0.501,1.0,1290.05,0.15,1,2020-03-05 17:13:48.000,88,2020-03-05 17:35:15.890,0.25,-90,0,120,30,1
4341,69,0,1295.427,0,-120,1,0.25,2,3,0.0,1.0,12,45.0,20.0,3,0.5379999999999999,1.0,1297.272,0.0,0,2020-03-05 17:13:48.000,88,2020-03-05 17:35:23.427,0.25,-90,-180,-60,30,1
4386,49,0,777.547,0,0,1,0.25,2,3,0.0,1.0,12,45.0,20.0,3,0.501,0.0,0.0,0.15,1,2020-03-06 11:06:00.000,52,2020-03-06 11:18:57.547,0.25,90,-180,-180,90,1
4387,50,0,806.2810000000002,0,0,1,0.25,2,3,0.0,1.0,12,45.0,20.0,3,0.6509999999999999,0.0,0.0,0.15,1,2020-03-06 11:06:00.000,52,2020-03-06 11:19:26.281,0.25,90,-180,-180,90,1
4388,51,0,814.674,0,0,1,0.25,2,3,0.0,1.0,12,45.0,20.0,3,0.614,0.0,0.0,0.15,1,2020-03-06 11:06:00.000,52,2020-03-06 11:19:34.674,0.25,90,-180,-180,90,1
4389,52,0,821.612,0,0,1,0.25,2,9,0.0,1.0,6,45.0,20.0,9,0.5379999999999999,1.0,828.2280000000002,0.15,1,2020-03-06 11:06:00.000,52,2020-03-06 11:19:41.612,0.25,-90,0,0,-90,1
4390,53,0,833.9839999999998,0,0,1,0.25,2,9,0.0,1.0,6,45.0,20.0,9,0.501,1.0,835.76,0.15,1,2020-03-06 11:06:00.000,52,2020-03-06 11:19:53.984,0.25,-90,0,0,-90,1
4391,54,0,842.837,0,0,1,0.25,2,3,0.0,1.0,12,45.0,20.0,3,0.5760000000000001,1.0,844.283,0.0,0,2020-03-06 11:06:00.000,52,2020-03-06 11:20:02.837,0.25,-90,-180,-180,-90,1
4392,56,0,902.967,0,0,1,0.25,2,9,0.0,1.0,6,45.0,20.0,9,0.614,1.0,904.762,0.15,1,2020-03-06 11:06:00.000,52,2020-03-06 11:21:02.967,0.25,-90,0,0,-90,1
4393,57,0,910.372,0,0,1,0.25,2,3,0.0,1.0,12,45.0,20.0,3,0.6509999999999999,0.0,0.0,0.15,1,2020-03-06 11:06:00.000,52,2020-03-06 11:21:10.372,0.25,90,-180,-180,90,1
4394,58,0,929.245,0,0,1,0.25,2,9,0.0,1.0,6,45.0,20.0,9,0.501,1.0,931.055,0.15,1,2020-03-06 11:06:00.000,52,2020-03-06 11:21:29.245,0.25,-90,0,0,-90,1
4395,59,0,938.036,0,0,1,0.25,2,3,0.0,1.0,12,45.0,20.0,3,0.5760000000000001,1.0,940.753,0.0,0,2020-03-06 11:06:00.000,52,2020-03-06 11:21:38.036,0.25,-90,-180,-180,-90,1
4403,9,0,215.505,0,-60,1,0.25,2,3,0.0,1.0,12,45.0,20.0,3,0.614,0.0,0.0,0.15,1,2020-03-06 16:48:07.000,95,2020-03-06 16:51:42.505,0.25,90,-180,-120,150,1
4404,10,0,248.828,0,-60,1,0.25,2,3,0.0,1.0,12,45.0,20.0,3,0.5760000000000001,0.0,0.0,0.15,1,2020-03-06 16:48:07.000,95,2020-03-06 16:52:15.828,0.25,90,-180,-120,150,1
4405,11,0,257.449,0,-60,1,0.25,2,3,0.0,1.0,12,45.0,20.0,3,0.6509999999999999,0.0,0.0,0.15,1,2020-03-06 16:48:07.000,95,2020-03-06 16:52:24.449,0.25,90,-180,-120,150,1
4406,12,0,271.387,0,-60,1,0.25,2,9,0.0,1.0,6,45.0,20.0,9,0.5760000000000001,1.0,273.161,0.15,1,2020-03-06 16:48:07.000,95,2020-03-06 16:52:38.387,0.25,-90,0,60,-30,1
4407,13,0,279.878,0,-60,1,0.25,2,9,0.0,1.0,6,45.0,20.0,9,0.501,1.0,281.664,0.15,1,2020-03-06 16:48:07.000,95,2020-03-06 16:52:46.878,0.25,-90,0,60,-30,1
4408,14,0,298.306,0,-60,1,0.25,2,3,0.0,1.0,12,45.0,20.0,3,0.5379999999999999,0.0,0.0,0.15,1,2020-03-06 16:48:07.000,95,2020-03-06 16:53:05.306,0.25,90,-180,-120,150,1
4409,15,0,327.781,0,-60,1,0.25,2,3,0.0,1.0,12,45.0,20.0,3,0.6509999999999999,1.0,329.88199999999995,0.0,0,2020-03-06 16:48:07.000,95,2020-03-06 16:53:34.781,0.25,-90,-180,-120,-30,1
4410,17,0,369.086,0,-60,1,0.25,2,3,0.0,1.0,12,45.0,20.0,3,0.614,0.0,0.0,0.15,1,2020-03-06 16:48:07.000,95,2020-03-06 16:54:16.086,0.25,90,-180,-120,150,1
4411,18,0,387.63,0,-60,1,0.25,2,3,0.0,1.0,12,45.0,20.0,3,0.501,0.0,0.0,0.15,1,2020-03-06 16:48:07.000,95,2020-03-06 16:54:34.630,0.25,90,-180,-120,150,1
4412,19,0,409.094,0,-60,1,0.25,2,9,0.0,1.0,6,45.0,20.0,9,0.5760000000000001,1.0,411.025,0.15,1,2020-03-06 16:48:07.000,95,2020-03-06 16:54:56.094,0.25,-90,0,60,-30,1
4439,30,0,557.658,0,0,1,0.25,2,3,0.0,1.0,12,45.0,20.0,3,0.6509999999999999,0.0,0.0,0.15,1,2020-03-16 10:23:48.000,27,2020-03-16 10:33:05.658,0.25,90,-180,-180,90,1
4440,31,0,572.837,0,0,1,0.25,2,9,0.0,1.0,6,45.0,20.0,9,0.5760000000000001,1.0,575.2180000000002,0.15,1,2020-03-16 10:23:48.000,27,2020-03-16 10:33:20.837,0.25,-90,0,0,-90,1
4441,32,0,577.755,0,0,1,0.25,2,9,0.0,1.0,6,45.0,20.0,9,0.5379999999999999,1.0,579.3969999999998,0.15,1,2020-03-16 10:23:48.000,27,2020-03-16 10:33:25.755,0.25,-90,0,0,-90,1
4442,33,0,600.398,0,0,1,0.25,2,9,0.0,1.0,6,45.0,20.0,9,0.501,0.0,0.0,0.0,0,2020-03-16 10:23:48.000,27,2020-03-16 10:33:48.398,0.25,90,0,0,90,1
4443,35,0,651.135,0,0,1,0.25,2,9,0.0,1.0,6,45.0,20.0,9,0.5760000000000001,0.0,0.0,0.0,0,2020-03-16 10:23:48.000,27,2020-03-16 10:34:39.135,0.25,90,0,0,90,1
4444,37,0,694.5989999999998,0,0,1,0.25,2,3,0.0,1.0,12,45.0,20.0,3,0.614,0.0,0.0,0.15,1,2020-03-16 10:23:48.000,27,2020-03-16 10:35:22.599,0.25,90,-180,-180,90,1
4445,38,0,737.779,0,0,1,0.25,2,9,0.0,1.0,6,45.0,20.0,9,0.6509999999999999,0.0,0.0,0.0,0,2020-03-16 10:23:48.000,27,2020-03-16 10:36:05.779,0.25,90,0,0,90,1
4446,40,0,826.712,0,0,1,0.25,2,3,0.0,1.0,12,45.0,20.0,3,0.501,0.0,0.0,0.15,1,2020-03-16 10:23:48.000,27,2020-03-16 10:37:34.712,0.25,90,-180,-180,90,1
4447,41,0,845.791,0,0,1,0.25,2,3,0.0,1.0,12,45.0,20.0,3,0.5379999999999999,0.0,0.0,0.15,1,2020-03-16 10:23:48.000,27,2020-03-16 10:37:53.791,0.25,90,-180,-180,90,1
4448,42,0,852.388,0,0,1,0.25,2,9,0.0,1.0,6,45.0,20.0,9,0.5379999999999999,0.0,0.0,0.0,0,2020-03-16 10:23:48.000,27,2020-03-16 10:38:00.388,0.25,90,0,0,90,1
4510,70,0,1202.095,0,0,1,0.25,2,9,0.0,1.0,6,45.0,20.0,9,0.6509999999999999,1.0,1204.183,0.15,1,2020-03-17 10:40:55.000,65,2020-03-17 11:00:57.095,0.25,-90,0,0,-90,1
4511,71,0,1221.725,0,0,1,0.25,2,9,0.0,1.0,6,45.0,20.0,9,0.5760000000000001,1.0,1223.587,0.15,1,2020-03-17 10:40:55.000,65,2020-03-17 11:01:16.725,0.25,-90,0,0,-90,1
4512,72,0,1254.964,0,0,1,0.25,2,3,0.0,1.0,12,45.0,20.0,3,0.501,0.0,0.0,0.15,1,2020-03-17 10:40:55.000,65,2020-03-17 11:01:49.964,0.25,90,-180,-180,90,1
4513,73,0,1262.129,0,0,1,0.25,2,3,0.0,1.0,12,45.0,20.0,3,0.614,0.0,0.0,0.15,1,2020-03-17 10:40:55.000,65,2020-03-17 11:01:57.129,0.25,90,-180,-180,90,1
4514,74,0,1309.212,0,0,1,0.25,2,9,0.0,1.0,6,45.0,20.0,9,0.5379999999999999,1.0,1310.726,0.15,1,2020-03-17 10:40:55.000,65,2020-03-17 11:02:44.212,0.25,-90,0,0,-90,1
4515,75,0,1335.7279999999996,0,0,1,0.25,2,3,0.0,1.0,12,45.0,20.0,3,0.5760000000000001,0.0,0.0,0.15,1,2020-03-17 10:40:55.000,65,2020-03-17 11:03:10.728,0.25,90,-180,-180,90,1
4516,76,0,1342.5179999999998,0,0,1,0.25,2,9,0.0,1.0,6,45.0,20.0,9,0.501,0.0,0.0,0.0,0,2020-03-17 10:40:55.000,65,2020-03-17 11:03:17.518,0.25,90,0,0,90,1
4517,78,0,1366.328,0,0,1,0.25,2,9,0.0,1.0,6,45.0,20.0,9,0.6509999999999999,1.0,1367.936,0.15,1,2020-03-17 10:40:55.000,65,2020-03-17 11:03:41.328,0.25,-90,0,0,-90,1
4518,79,0,1385.875,0,0,1,0.25,2,3,0.0,1.0,12,45.0,20.0,3,0.6509999999999999,0.0,0.0,0.15,1,2020-03-17 10:40:55.000,65,2020-03-17 11:04:00.875,0.25,90,-180,-180,90,1
4519,80,0,1401.195,0,0,1,0.25,2,9,0.0,1.0,6,45.0,20.0,9,0.501,0.0,0.0,0.0,0,2020-03-17 10:40:55.000,65,2020-03-17 11:04:16.195,0.25,90,0,0,90,1
4569,77,0,1442.89,0,120,1,0.25,2,9,0.0,1.0,6,45.0,20.0,9,0.614,1.0,1444.128,0.15,1,2020-03-17 15:35:05.000,34,2020-03-17 15:59:07.890,0.25,-90,0,-120,150,1
4570,78,0,1471.385,0,120,1,0.25,2,3,0.0,1.0,12,45.0,20.0,3,0.5760000000000001,0.0,0.0,0.15,1,2020-03-17 15:35:05.000,34,2020-03-17 15:59:36.385,0.25,90,-180,60,-30,1
4571,79,0,1489.794,0,120,1,0.25,2,9,0.0,1.0,6,45.0,20.0,9,0.501,1.0,1491.058,0.15,1,2020-03-17 15:35:05.000,34,2020-03-17 15:59:54.794,0.25,-90,0,-120,150,1
4572,80,0,1506.81,0,120,1,0.25,2,9,0.0,1.0,6,45.0,20.0,9,0.614,1.0,1508.679,0.15,1,2020-03-17 15:35:05.000,34,2020-03-17 16:00:11.810,0.25,-90,0,-120,150,1
4573,81,0,1514.9779999999996,0,120,1,0.25,2,3,0.0,1.0,12,45.0,20.0,3,0.5379999999999999,0.0,0.0,0.15,1,2020-03-17 15:35:05.000,34,2020-03-17 16:00:19.978,0.25,90,-180,60,-30,1
4574,82,0,1521.915,0,120,1,0.25,2,9,0.0,1.0,6,45.0,20.0,9,0.6509999999999999,1.0,1523.6729999999998,0.15,1,2020-03-17 15:35:05.000,34,2020-03-17 16:00:26.915,0.25,-90,0,-120,150,1
4575,83,0,1530.9879999999996,0,120,1,0.25,2,3,0.0,1.0,12,45.0,20.0,3,0.501,1.0,1532.493,0.0,0,2020-03-17 15:35:05.000,34,2020-03-17 16:00:35.988,0.25,-90,-180,60,150,1
4576,85,0,1548.706,0,120,1,0.25,2,9,0.0,1.0,6,45.0,20.0,9,0.614,0.0,0.0,0.0,0,2020-03-17 15:35:05.000,34,2020-03-17 16:00:53.706,0.25,90,0,-120,-30,1
4577,87,0,1605.184,0,120,1,0.25,2,9,0.0,1.0,6,45.0,20.0,9,0.6509999999999999,0.0,0.0,0.0,0,2020-03-17 15:35:05.000,34,2020-03-17 16:01:50.184,0.25,90,0,-120,-30,1
4578,90,0,1648.275,0,120,1,0.25,2,3,0.0,1.0,12,45.0,20.0,3,0.5379999999999999,1.0,1649.486,0.0,0,2020-03-17 15:35:05.000,34,2020-03-17 16:02:33.275,0.25,-90,-180,60,150,1
4620,51,0,1074.483,0,0,1,0.25,2,3,0.0,1.0,12,45.0,20.0,3,0.5379999999999999,0.0,0.0,0.145,1,2020-03-18 10:01:31.000,100,2020-03-18 10:19:25.483,0.25,90,-180,-180,90,1
4621,52,0,1083.773,0,0,1,0.25,2,9,0.0,1.0,6,45.0,20.0,9,0.6509999999999999,1.0,1085.662,0.16,1,2020-03-18 10:01:31.000,100,2020-03-18 10:19:34.773,0.25,-90,0,0,-90,1
4622,53,0,1097.786,0,0,1,0.25,2,3,0.0,1.0,12,45.0,20.0,3,0.5760000000000001,0.0,0.0,0.145,1,2020-03-18 10:01:31.000,100,2020-03-18 10:19:48.786,0.25,90,-180,-180,90,1
4623,54,0,1104.139,0,0,1,0.25,2,3,0.0,1.0,12,45.0,20.0,3,0.501,0.0,0.0,0.145,1,2020-03-18 10:01:31.000,100,2020-03-18 10:19:55.139,0.25,90,-180,-180,90,1
4624,55,0,1110.917,0,0,1,0.25,2,9,0.0,1.0,6,45.0,20.0,9,0.501,0.0,0.0,0.0,0,2020-03-18 10:01:31.000,100,2020-03-18 10:20:01.917,0.25,90,0,0,90,1
4625,57,0,1135.458,0,0,1,0.25,2,9,0.0,1.0,6,45.0,20.0,9,0.5379999999999999,0.0,0.0,0.0,0,2020-03-18 10:01:31.000,100,2020-03-18 10:20:26.458,0.25,90,0,0,90,1
4626,59,0,1173.662,0,0,1,0.25,2,3,0.0,1.0,12,45.0,20.0,3,0.614,0.0,0.0,0.145,1,2020-03-18 10:01:31.000,100,2020-03-18 10:21:04.662,0.25,90,-180,-180,90,1
4627,60,0,1180.179,0,0,1,0.25,2,3,0.0,1.0,12,45.0,20.0,3,0.6509999999999999,0.0,0.0,0.145,1,2020-03-18 10:01:31.000,100,2020-03-18 10:21:11.179,0.25,90,-180,-180,90,1
4628,61,0,1195.16,0,0,1,0.25,2,3,0.0,1.0,12,45.0,20.0,3,0.5760000000000001,0.0,0.0,0.145,1,2020-03-18 10:01:31.000,100,2020-03-18 10:21:26.160,0.25,90,-180,-180,90,1
4629,62,0,1229.55,0,0,1,0.25,2,9,0.0,1.0,6,45.0,20.0,9,0.5379999999999999,0.0,0.0,0.0,0,2020-03-18 10:01:31.000,100,2020-03-18 10:22:00.550,0.25,90,0,0,90,1
4691,71,0,1037.143,0,-60,1,0.25,2,9,0.0,1.0,6,45.0,20.0,9,0.5379999999999999,1.0,1038.6989999999996,0.15,1,2020-03-18 16:20:16.000,23,2020-03-18 16:37:33.143,0.25,-90,0,60,-30,1
4692,72,0,1046.008,1,-60,1,0.25,2,3,0.0,1.0,12,45.0,20.0,3,0.501,1.0,1051.749,0.0,0,2020-03-18 16:20:16.000,23,2020-03-18 16:37:42.008,0.25,-90,-180,-120,-30,1
4693,74,0,1079.295,0,-60,1,0.25,2,3,0.0,1.0,12,45.0,20.0,3,0.6509999999999999,0.0,0.0,0.15,1,2020-03-18 16:20:16.000,23,2020-03-18 16:38:15.295,0.25,90,-180,-120,150,1
4694,75,0,1095.671,0,-60,1,0.25,2,9,0.0,1.0,6,45.0,20.0,9,0.614,1.0,1097.631,0.15,1,2020-03-18 16:20:16.000,23,2020-03-18 16:38:31.671,0.25,-90,0,60,-30,1
4695,76,0,1103.598,0,-60,1,0.25,2,9,0.0,1.0,6,45.0,20.0,9,0.5760000000000001,1.0,1105.679,0.15,1,2020-03-18 16:20:16.000,23,2020-03-18 16:38:39.598,0.25,-90,0,60,-30,1
4696,77,0,1112.378,0,-60,1,0.25,2,3,0.0,1.0,12,45.0,20.0,3,0.501,0.0,0.0,0.15,1,2020-03-18 16:20:16.000,23,2020-03-18 16:38:48.378,0.25,90,-180,-120,150,1
4697,78,0,1119.237,0,-60,1,0.25,2,9,0.0,1.0,6,45.0,20.0,9,0.614,1.0,1121.15,0.15,1,2020-03-18 16:20:16.000,23,2020-03-18 16:38:55.237,0.25,-90,0,60,-30,1
4698,79,0,1129.86,0,-60,1,0.25,2,3,0.0,1.0,12,45.0,20.0,3,0.5379999999999999,0.0,0.0,0.15,1,2020-03-18 16:20:16.000,23,2020-03-18 16:39:05.860,0.25,90,-180,-120,150,1
4699,80,0,1154.979,0,-60,1,0.25,2,3,0.0,1.0,12,45.0,20.0,3,0.6509999999999999,0.0,0.0,0.15,1,2020-03-18 16:20:16.000,23,2020-03-18 16:39:30.979,0.25,90,-180,-120,150,1
4700,81,0,1172.372,0,-60,1,0.25,2,9,0.0,1.0,6,45.0,20.0,9,0.501,1.0,1174.093,0.15,1,2020-03-18 16:20:16.000,23,2020-03-18 16:39:48.372,0.25,-90,0,60,-30,1
4746,51,0,1018.686,0,-90,1,0.25,2,9,0.0,1.0,6,45.0,20.0,9,0.614,1.0,1020.848,0.15,1,2020-03-19 10:14:00.000,26,2020-03-19 10:30:58.686,0.25,-90,0,90,0,1
4747,52,0,1046.937,0,-90,1,0.25,2,3,0.0,1.0,12,45.0,20.0,3,0.6509999999999999,0.0,0.0,0.15,1,2020-03-19 10:14:00.000,26,2020-03-19 10:31:26.937,0.25,90,-180,-90,-180,1
4748,53,0,1056.757,0,-90,1,0.25,2,9,0.0,1.0,6,45.0,20.0,9,0.5760000000000001,1.0,1059.691,0.15,1,2020-03-19 10:14:00.000,26,2020-03-19 10:31:36.757,0.25,-90,0,90,0,1
4749,54,0,1085.321,0,-90,1,0.25,2,3,0.0,1.0,12,45.0,20.0,3,0.5379999999999999,0.0,0.0,0.15,1,2020-03-19 10:14:00.000,26,2020-03-19 10:32:05.321,0.25,90,-180,-90,-180,1
4750,55,0,1105.054,0,-90,1,0.25,2,3,0.0,1.0,12,45.0,20.0,3,0.501,0.0,0.0,0.15,1,2020-03-19 10:14:00.000,26,2020-03-19 10:32:25.054,0.25,90,-180,-90,-180,1
4751,56,0,1123.646,0,-90,1,0.25,2,9,0.0,1.0,6,45.0,20.0,9,0.614,1.0,1126.069,0.15,1,2020-03-19 10:14:00.000,26,2020-03-19 10:32:43.646,0.25,-90,0,90,0,1
4752,57,0,1131.822,0,-90,1,0.25,2,3,0.0,1.0,12,45.0,20.0,3,0.501,0.0,0.0,0.15,1,2020-03-19 10:14:00.000,26,2020-03-19 10:32:51.822,0.25,90,-180,-90,-180,1
4753,58,0,1174.868,0,-90,1,0.25,2,9,0.0,1.0,6,45.0,20.0,9,0.5760000000000001,1.0,1177.109,0.15,1,2020-03-19 10:14:00.000,26,2020-03-19 10:33:34.868,0.25,-90,0,90,0,1
4754,59,0,1183.946,0,-90,1,0.25,2,9,0.0,1.0,6,45.0,20.0,9,0.6509999999999999,0.0,0.0,0.0,0,2020-03-19 10:14:00.000,26,2020-03-19 10:33:43.946,0.25,90,0,90,-180,1
4755,61,0,1212.979,0,-90,1,0.25,2,3,0.0,1.0,12,45.0,20.0,3,0.5379999999999999,0.0,0.0,0.15,1,2020-03-19 10:14:00.000,26,2020-03-19 10:34:12.979,0.25,90,-180,-90,-180,1
4837,104,0,1672.267,0,150,1,0.25,2,3,0.0,1.0,12,45.0,20.0,3,0.5760000000000001,0.0,0.0,0.14,1,2020-03-19 17:25:09.000,94,2020-03-19 17:53:01.267,0.25,90,-180,30,-60,1
4838,105,0,1678.36,0,150,1,0.25,2,9,0.0,1.0,6,45.0,20.0,9,0.614,1.0,1679.96,0.16,1,2020-03-19 17:25:09.000,94,2020-03-19 17:53:07.360,0.25,-90,0,-150,120,1
4839,106,0,1688.055,0,150,1,0.25,2,9,0.0,1.0,6,45.0,20.0,9,0.6509999999999999,1.0,1689.695,0.16,1,2020-03-19 17:25:09.000,94,2020-03-19 17:53:17.055,0.25,-90,0,-150,120,1
4840,107,0,1713.524,0,150,1,0.25,2,9,0.0,1.0,6,45.0,20.0,9,0.5379999999999999,1.0,1714.933,0.16,1,2020-03-19 17:25:09.000,94,2020-03-19 17:53:42.524,0.25,-90,0,-150,120,1
4841,108,0,1772.174,0,150,1,0.25,2,9,0.0,1.0,6,45.0,20.0,9,0.6509999999999999,1.0,1773.596,0.16,1,2020-03-19 17:25:09.000,94,2020-03-19 17:54:41.174,0.25,-90,0,-150,120,1
4842,109,0,1836.746,0,150,1,0.25,2,3,0.0,1.0,12,45.0,20.0,3,0.5760000000000001,0.0,0.0,0.14,1,2020-03-19 17:25:09.000,94,2020-03-19 17:55:45.746,0.25,90,-180,30,-60,1
4843,110,0,1843.83,0,150,1,0.25,2,3,0.0,1.0,12,45.0,20.0,3,0.501,0.0,0.0,0.14,1,2020-03-19 17:25:09.000,94,2020-03-19 17:55:52.830,0.25,90,-180,30,-60,1
4844,111,0,1870.504,0,150,1,0.25,2,3,0.0,1.0,12,45.0,20.0,3,0.614,0.0,0.0,0.14,1,2020-03-19 17:25:09.000,94,2020-03-19 17:56:19.504,0.25,90,-180,30,-60,1
4845,112,0,1878.167,0,150,1,0.25,2,3,0.0,1.0,12,45.0,20.0,3,0.5379999999999999,0.0,0.0,0.14,1,2020-03-19 17:25:09.000,94,2020-03-19 17:56:27.167,0.25,90,-180,30,-60,1
4846,113,0,1884.596,0,150,1,0.25,2,3,0.0,1.0,12,45.0,20.0,3,0.501,0.0,0.0,0.14,1,2020-03-19 17:25:09.000,94,2020-03-19 17:56:33.596,0.25,90,-180,30,-60,1
4901,62,0,931.16,0,60,1,0.25,2,3,0.0,1.0,12,45.0,20.0,3,0.501,0.0,0.0,0.15,1,2020-03-20 11:18:25.000,80,2020-03-20 11:33:56.160,0.25,90,-180,120,30,1
4902,63,0,939.09,0,60,1,0.25,2,3,0.0,1.0,12,45.0,20.0,3,0.614,0.0,0.0,0.15,1,2020-03-20 11:18:25.000,80,2020-03-20 11:34:04.090,0.25,90,-180,120,30,1
4903,64,0,965.963,0,60,1,0.25,2,9,0.0,1.0,6,45.0,20.0,9,0.5760000000000001,1.0,967.915,0.15,1,2020-03-20 11:18:25.000,80,2020-03-20 11:34:30.963,0.25,-90,0,-60,-150,1
4904,65,0,980.08,0,60,1,0.25,2,3,0.0,1.0,12,45.0,20.0,3,0.6509999999999999,1.0,983.102,0.0,0,2020-03-20 11:18:25.000,80,2020-03-20 11:34:45.080,0.25,-90,-180,120,-150,1
4905,67,0,1065.771,0,60,1,0.25,2,9,0.0,1.0,6,45.0,20.0,9,0.501,1.0,1067.667,0.15,1,2020-03-20 11:18:25.000,80,2020-03-20 11:36:10.771,0.25,-90,0,-60,-150,1
4906,68,0,1080.377,0,60,1,0.25,2,9,0.0,1.0,6,45.0,20.0,9,0.5379999999999999,1.0,1082.149,0.15,1,2020-03-20 11:18:25.000,80,2020-03-20 11:36:25.377,0.25,-90,0,-60,-150,1
4907,69,0,1100.72,0,60,1,0.25,2,3,0.0,1.0,12,45.0,20.0,3,0.614,0.0,0.0,0.15,1,2020-03-20 11:18:25.000,80,2020-03-20 11:36:45.720,0.25,90,-180,120,30,1
4908,70,0,1136.839,0,60,1,0.25,2,9,0.0,1.0,6,45.0,20.0,9,0.5760000000000001,1.0,1138.297,0.15,1,2020-03-20 11:18:25.000,80,2020-03-20 11:37:21.839,0.25,-90,0,-60,-150,1
4909,71,0,1160.672,0,60,1,0.25,2,9,0.0,1.0,6,45.0,20.0,9,0.5379999999999999,1.0,1162.383,0.15,1,2020-03-20 11:18:25.000,80,2020-03-20 11:37:45.672,0.25,-90,0,-60,-150,1
4910,72,0,1173.223,0,60,1,0.25,2,9,0.0,1.0,6,45.0,20.0,9,0.6509999999999999,0.0,0.0,0.0,0,2020-03-20 11:18:25.000,80,2020-03-20 11:37:58.223,0.25,90,0,-60,30,1
4954,51,0,767.683,0,90,1,0.25,2,3,0.0,1.0,12,45.0,20.0,3,0.5379999999999999,0.0,0.0,0.15,1,2020-03-20 16:08:13.000,93,2020-03-20 16:21:00.683,0.25,90,-180,90,0,1
4955,52,0,774.305,0,90,1,0.25,2,3,0.0,1.0,12,45.0,20.0,3,0.6509999999999999,0.0,0.0,0.15,1,2020-03-20 16:08:13.000,93,2020-03-20 16:21:07.305,0.25,90,-180,90,0,1
4956,53,0,780.8889999999999,0,90,1,0.25,2,9,0.0,1.0,6,45.0,20.0,9,0.6509999999999999,1.0,783.3860000000002,0.15,1,2020-03-20 16:08:13.000,93,2020-03-20 16:21:13.889,0.25,-90,0,-90,-180,1
4957,54,0,793.9680000000002,0,90,1,0.25,2,3,0.0,1.0,12,45.0,20.0,3,0.5760000000000001,0.0,0.0,0.15,1,2020-03-20 16:08:13.000,93,2020-03-20 16:21:26.968,0.25,90,-180,90,0,1
4958,55,0,802.0139999999999,0,90,1,0.25,2,3,0.0,1.0,12,45.0,20.0,3,0.614,0.0,0.0,0.15,1,2020-03-20 16:08:13.000,93,2020-03-20 16:21:35.014,0.25,90,-180,90,0,1
4959,56,0,809.127,0,90,1,0.25,2,9,0.0,1.0,6,45.0,20.0,9,0.5379999999999999,1.0,810.67,0.15,1,2020-03-20 16:08:13.000,93,2020-03-20 16:21:42.127,0.25,-90,0,-90,-180,1
4960,57,0,822.184,0,90,1,0.25,2,3,0.0,1.0,12,45.0,20.0,3,0.501,0.0,0.0,0.15,1,2020-03-20 16:08:13.000,93,2020-03-20 16:21:55.184,0.25,90,-180,90,0,1
4961,58,0,829.607,0,90,1,0.25,2,9,0.0,1.0,6,45.0,20.0,9,0.614,1.0,831.518,0.15,1,2020-03-20 16:08:13.000,93,2020-03-20 16:22:02.607,0.25,-90,0,-90,-180,1
4962,59,0,838.7139999999998,0,90,1,0.25,2,3,0.0,1.0,12,45.0,20.0,3,0.501,0.0,0.0,0.15,1,2020-03-20 16:08:13.000,93,2020-03-20 16:22:11.714,0.25,90,-180,90,0,1
4963,60,0,844.34,0,90,1,0.25,2,9,0.0,1.0,6,45.0,20.0,9,0.6509999999999999,1.0,846.706,0.15,1,2020-03-20 16:08:13.000,93,2020-03-20 16:22:17.340,0.25,-90,0,-90,-180,1
4975,36,0,693.637,0,0,1,0.25,2,3,0.0,1.0,12,45.0,20.0,3,0.501,0.0,0.0,0.15,1,2020-05-07 12:21:43.000,72,2020-05-07 12:33:16.637,0.25,90,-180,-180,90,1
4976,37,0,706.11,0,0,1,0.25,2,3,0.0,1.0,12,45.0,20.0,3,0.614,0.0,0.0,0.15,1,2020-05-07 12:21:43.000,72,2020-05-07 12:33:29.110,0.25,90,-180,-180,90,1
4977,38,0,739.68,0,0,1,0.25,2,9,0.0,1.0,6,45.0,20.0,9,0.501,1.0,742.1560000000002,0.15,1,2020-05-07 12:21:43.000,72,2020-05-07 12:34:02.680,0.25,-90,0,0,-90,1
4978,39,0,747.953,0,0,1,0.25,2,9,0.0,1.0,6,45.0,20.0,9,0.5760000000000001,1.0,749.635,0.15,1,2020-05-07 12:21:43.000,72,2020-05-07 12:34:10.953,0.25,-90,0,0,-90,1
4979,40,0,755.875,0,0,1,0.25,2,3,0.0,1.0,12,45.0,20.0,3,0.5379999999999999,1.0,758.574,0.0,0,2020-05-07 12:21:43.000,72,2020-05-07 12:34:18.875,0.25,-90,-180,-180,-90,1
4980,42,0,878.307,0,0,1,0.25,2,3,0.0,1.0,12,45.0,20.0,3,0.6509999999999999,0.0,0.0,0.15,1,2020-05-07 12:21:43.000,72,2020-05-07 12:36:21.307,0.25,90,-180,-180,90,1
4981,43,0,892.045,0,0,1,0.25,2,9,0.0,1.0,6,45.0,20.0,9,0.614,1.0,894.561,0.15,1,2020-05-07 12:21:43.000,72,2020-05-07 12:36:35.045,0.25,-90,0,0,-90,1
4982,44,0,899.63,0,0,1,0.25,2,9,0.0,1.0,6,45.0,20.0,9,0.6509999999999999,1.0,901.228,0.15,1,2020-05-07 12:21:43.000,72,2020-05-07 12:36:42.630,0.25,-90,0,0,-90,1
4983,45,0,908.822,0,0,1,0.25,2,3,0.0,1.0,12,45.0,20.0,3,0.5760000000000001,1.0,911.29,0.0,0,2020-05-07 12:21:43.000,72,2020-05-07 12:36:51.822,0.25,-90,-180,-180,-90,1
4984,47,0,977.608,0,0,1,0.25,2,3,0.0,1.0,12,45.0,20.0,3,0.5379999999999999,0.0,0.0,0.15,1,2020-05-07 12:21:43.000,72,2020-05-07 12:38:00.608,0.25,90,-180,-180,90,1
5122,64,0,986.161,0,30,1,0.25,2,3,0.0,1.0,12,45.0,20.0,3,0.5760000000000001,1.0,989.129,0.0,0,2020-05-08 17:45:51.000,87,2020-05-08 18:02:17.161,0.25,-90,-180,150,-120,1
5123,66,0,1002.316,0,30,1,0.25,2,3,0.0,1.0,12,45.0,20.0,3,0.614,0.0,0.0,0.15,1,2020-05-08 17:45:51.000,87,2020-05-08 18:02:33.316,0.25,90,-180,150,60,1
5124,67,0,1017.533,0,30,1,0.25,2,3,0.0,1.0,12,45.0,20.0,3,0.6509999999999999,0.0,0.0,0.15,1,2020-05-08 17:45:51.000,87,2020-05-08 18:02:48.533,0.25,90,-180,150,60,1
5125,68,0,1034.279,0,30,1,0.25,2,3,0.0,1.0,12,45.0,20.0,3,0.5760000000000001,0.0,0.0,0.15,1,2020-05-08 17:45:51.000,87,2020-05-08 18:03:05.279,0.25,90,-180,150,60,1
5126,69,0,1066.269,0,30,1,0.25,2,3,0.0,1.0,12,45.0,20.0,3,0.501,0.0,0.0,0.15,1,2020-05-08 17:45:51.000,87,2020-05-08 18:03:37.269,0.25,90,-180,150,60,1
5127,70,0,1096.841,0,30,1,0.25,2,9,0.0,1.0,6,45.0,20.0,9,0.5379999999999999,1.0,1098.694,0.15,1,2020-05-08 17:45:51.000,87,2020-05-08 18:04:07.841,0.25,-90,0,-30,-120,1
5128,71,0,1113.821,0,30,1,0.25,2,3,0.0,1.0,12,45.0,20.0,3,0.614,0.0,0.0,0.15,1,2020-05-08 17:45:51.000,87,2020-05-08 18:04:24.821,0.25,90,-180,150,60,1
5129,72,0,1120.752,0,30,1,0.25,2,9,0.0,1.0,6,45.0,20.0,9,0.5760000000000001,1.0,1122.004,0.15,1,2020-05-08 17:45:51.000,87,2020-05-08 18:04:31.752,0.25,-90,0,-30,-120,1
5130,73,0,1145.935,0,30,1,0.25,2,3,0.0,1.0,12,45.0,20.0,3,0.5379999999999999,0.0,0.0,0.15,1,2020-05-08 17:45:51.000,87,2020-05-08 18:04:56.935,0.25,90,-180,150,60,1
5131,74,0,1152.482,0,30,1,0.25,2,3,0.0,1.0,12,45.0,20.0,3,0.6509999999999999,0.0,0.0,0.15,1,2020-05-08 17:45:51.000,87,2020-05-08 18:05:03.482,0.25,90,-180,150,60,1
5148,76,0,971.269,0,0,1,0.25,2,9,0.0,1.0,6,45.0,20.0,9,0.5760000000000001,1.0,973.372,0.15,1,2020-05-11 12:56:20.000,89,2020-05-11 13:12:31.269,0.25,-90,0,0,-90,1
5149,77,0,981.936,0,0,1,0.25,2,3,0.0,1.0,12,45.0,20.0,3,0.501,1.0,983.795,0.0,0,2020-05-11 12:56:20.000,89,2020-05-11 13:12:41.936,0.25,-90,-180,-180,-90,1
5150,79,0,1009.335,1,0,1,0.25,2,9,0.0,1.0,6,45.0,20.0,9,0.501,1.0,1014.557,0.15,1,2020-05-11 12:56:20.000,89,2020-05-11 13:13:09.335,0.25,-90,0,0,-90,1
5151,80,0,1022.041,0,0,1,0.25,2,3,0.0,1.0,12,45.0,20.0,3,0.5760000000000001,1.0,1024.139,0.0,0,2020-05-11 12:56:20.000,89,2020-05-11 13:13:22.041,0.25,-90,-180,-180,-90,1
5152,82,0,1048.082,0,0,1,0.25,2,9,0.0,1.0,6,45.0,20.0,9,0.6509999999999999,1.0,1050.4489999999996,0.15,1,2020-05-11 12:56:20.000,89,2020-05-11 13:13:48.082,0.25,-90,0,0,-90,1
5153,83,0,1055.811,1,0,1,0.25,2,9,0.0,1.0,6,45.0,20.0,9,0.614,1.0,1060.003,0.15,1,2020-05-11 12:56:20.000,89,2020-05-11 13:13:55.811,0.25,-90,0,0,-90,1
5154,84,0,1068.782,0,0,1,0.25,2,9,0.0,1.0,6,45.0,20.0,9,0.5379999999999999,1.0,1071.143,0.15,1,2020-05-11 12:56:20.000,89,2020-05-11 13:14:08.782,0.25,-90,0,0,-90,1
5155,85,0,1098.865,0,0,1,0.25,2,3,0.0,1.0,12,45.0,20.0,3,0.501,0.0,0.0,0.15,1,2020-05-11 12:56:20.000,89,2020-05-11 13:14:38.865,0.25,90,-180,-180,90,1
5156,86,0,1111.49,0,0,1,0.25,2,9,0.0,1.0,6,45.0,20.0,9,0.5379999999999999,1.0,1113.082,0.15,1,2020-05-11 12:56:20.000,89,2020-05-11 13:14:51.490,0.25,-90,0,0,-90,1
5157,87,0,1142.543,0,0,1,0.25,2,3,0.0,1.0,12,45.0,20.0,3,0.6509999999999999,1.0,1150.562,0.0,0,2020-05-11 12:56:20.000,89,2020-05-11 13:15:22.543,0.25,-90,-180,-180,-90,1
6190,32,0,506.823,0,60,1,0.25,2,9,0.0,1.0,6,45.0,20.0,9,0.451,0.0,0.0,0.0,0,2020-05-25 18:16:58.000,188,2020-05-25 18:25:24.823,0.25,90,0,-60,30,1
6192,35,0,568.465,0,60,1,0.25,2,9,0.0,1.0,6,45.0,20.0,9,0.601,0.0,0.0,0.0,0,2020-05-25 18:16:58.000,188,2020-05-25 18:26:26.465,0.25,90,0,-60,30,1
6194,38,0,622.797,0,60,1,0.25,2,3,0.0,1.0,12,45.0,20.0,3,0.526,1.0,624.905,0.0,0,2020-05-25 18:16:58.000,188,2020-05-25 18:27:20.797,0.25,-90,-180,120,-150,1
6196,41,0,678.32,0,60,1,0.25,2,9,0.0,1.0,6,45.0,20.0,9,0.451,1.0,679.5010000000002,0.14,1,2020-05-25 18:16:58.000,188,2020-05-25 18:28:16.320,0.25,-90,0,-60,-150,1
6197,42,0,698.198,0,60,1,0.25,2,9,0.0,1.0,6,45.0,20.0,9,0.601,1.0,699.683,0.14,1,2020-05-25 18:16:58.000,188,2020-05-25 18:28:36.198,0.25,-90,0,-60,-150,1
6198,43,0,716.725,0,60,1,0.25,2,9,0.0,1.0,6,45.0,20.0,9,0.601,1.0,718.669,0.14,1,2020-05-25 18:16:58.000,188,2020-05-25 18:28:54.725,0.25,-90,0,-60,-150,1
6200,45,0,748.5880000000002,1,60,1,0.25,2,3,0.0,1.0,12,45.0,20.0,3,0.564,0.0,0.0,0.12,1,2020-05-25 18:16:58.000,188,2020-05-25 18:29:26.588,0.25,90,-180,120,30,1
6201,46,0,756.409,0,60,1,0.25,2,3,0.0,1.0,12,45.0,20.0,3,0.488,0.0,0.0,0.12,1,2020-05-25 18:16:58.000,188,2020-05-25 18:29:34.409,0.25,90,-180,120,30,1
6202,47,0,763.547,0,60,1,0.25,2,3,0.0,1.0,12,45.0,20.0,3,0.451,1.0,765.422,0.0,0,2020-05-25 18:16:58.000,188,2020-05-25 18:29:41.547,0.25,-90,-180,120,-150,1
6203,49,0,839.3510000000001,0,60,1,0.25,2,3,0.0,1.0,12,45.0,20.0,3,0.526,0.0,0.0,0.12,1,2020-05-25 18:16:58.000,188,2020-05-25 18:30:57.351,0.25,90,-180,120,30,1
6259,61,0,895.44,0,-90,1,0.25,2,9,0.0,1.0,6,45.0,20.0,9,0.601,1.0,899.166,0.135,1,2020-05-26 13:04:39.000,148,2020-05-26 13:19:34.440,0.25,-90,0,90,0,1
6260,62,0,907.195,0,-90,1,0.25,2,9,0.0,1.0,6,45.0,20.0,9,0.526,1.0,909.174,0.135,1,2020-05-26 13:04:39.000,148,2020-05-26 13:19:46.195,0.25,-90,0,90,0,1
6261,63,0,923.127,0,-90,1,0.25,2,9,0.0,1.0,6,45.0,20.0,9,0.451,1.0,924.364,0.135,1,2020-05-26 13:04:39.000,148,2020-05-26 13:20:02.127,0.25,-90,0,90,0,1
6262,64,0,938.958,1,-90,1,0.25,2,3,0.0,1.0,12,45.0,20.0,3,0.488,0.0,0.0,0.12,1,2020-05-26 13:04:39.000,148,2020-05-26 13:20:17.958,0.25,90,-180,-90,-180,1
6263,65,0,944.406,0,-90,1,0.25,2,3,0.0,1.0,12,45.0,20.0,3,0.564,0.0,0.0,0.12,1,2020-05-26 13:04:39.000,148,2020-05-26 13:20:23.406,0.25,90,-180,-90,-180,1
6264,66,0,959.691,0,-90,1,0.25,2,3,0.0,1.0,12,45.0,20.0,3,0.564,1.0,963.207,0.0,0,2020-05-26 13:04:39.000,148,2020-05-26 13:20:38.691,0.25,-90,-180,-90,0,1
6265,68,0,1010.166,0,-90,1,0.25,2,9,0.0,1.0,12,45.0,20.0,9,0.451,0.0,0.0,0.0,0,2020-05-26 13:04:39.000,148,2020-05-26 13:21:29.166,0.25,90,-180,-90,-180,1
6266,69,0,1022.674,0,-90,1,0.25,2,9,0.0,1.0,6,45.0,20.0,9,0.601,1.0,1024.997,0.135,1,2020-05-26 13:04:39.000,148,2020-05-26 13:21:41.674,0.25,-90,0,90,0,1
6267,70,0,1033.175,0,-90,1,0.25,2,3,0.0,1.0,12,45.0,20.0,3,0.526,0.0,0.0,0.12,1,2020-05-26 13:04:39.000,148,2020-05-26 13:21:52.175,0.25,90,-180,-90,-180,1
6268,71,0,1046.284,0,-90,1,0.25,2,9,0.0,1.0,6,45.0,20.0,9,0.488,1.0,1048.001,0.135,1,2020-05-26 13:04:39.000,148,2020-05-26 13:22:05.284,0.25,-90,0,90,0,1
6378,53,0,952.64,0,0,1,0.25,2,3,0.0,1.0,12,45.0,20.0,3,0.451,0.0,0.0,0.12,1,2020-05-27 12:40:49.000,165,2020-05-27 12:56:41.640,0.25,90,-180,-180,90,1
6380,55,0,965.637,0,0,1,0.25,2,9,0.0,1.0,6,45.0,20.0,9,0.601,1.0,967.236,0.13,1,2020-05-27 12:40:49.000,165,2020-05-27 12:56:54.637,0.25,-90,0,0,-90,1
6381,56,0,971.849,0,0,1,0.25,2,3,0.0,1.0,12,45.0,20.0,3,0.488,0.0,0.0,0.12,1,2020-05-27 12:40:49.000,165,2020-05-27 12:57:00.849,0.25,90,-180,-180,90,1
6382,57,0,977.94,0,0,1,0.25,2,3,0.0,1.0,12,45.0,20.0,3,0.526,0.0,0.0,0.12,1,2020-05-27 12:40:49.000,165,2020-05-27 12:57:06.940,0.25,90,-180,-180,90,1
6383,58,0,984.182,0,0,1,0.25,2,3,0.0,1.0,12,45.0,20.0,3,0.601,1.0,985.835,0.0,0,2020-05-27 12:40:49.000,165,2020-05-27 12:57:13.182,0.25,-90,-180,-180,-90,1
6384,60,0,1013.346,0,0,1,0.25,2,9,0.0,1.0,6,45.0,20.0,9,0.526,1.0,1023.006,0.13,1,2020-05-27 12:40:49.000,165,2020-05-27 12:57:42.346,0.25,-90,0,0,-90,1
6387,63,0,1064.994,0,0,1,0.25,2,9,0.0,1.0,6,45.0,20.0,9,0.564,1.0,1067.204,0.13,1,2020-05-27 12:40:49.000,165,2020-05-27 12:58:33.994,0.25,-90,0,0,-90,1
6388,64,0,1071.104,0,0,1,0.25,2,9,0.0,1.0,6,45.0,20.0,9,0.451,1.0,1072.804,0.13,1,2020-05-27 12:40:49.000,165,2020-05-27 12:58:40.104,0.25,-90,0,0,-90,1
6389,65,0,1090.48,0,0,1,0.25,2,3,0.0,1.0,12,45.0,20.0,3,0.488,1.0,1094.092,0.0,0,2020-05-27 12:40:49.000,165,2020-05-27 12:58:59.480,0.25,-90,-180,-180,-90,1
6390,67,0,1143.441,0,0,1,0.25,2,3,0.0,1.0,12,45.0,20.0,3,0.526,0.0,0.0,0.12,1,2020-05-27 12:40:49.000,165,2020-05-27 12:59:52.441,0.25,90,-180,-180,90,1
6445,62,0,908.15,0,-90,1,0.25,2,3,0.0,1.0,12,45.0,20.0,3,0.488,0.0,0.0,0.12,1,2020-05-27 18:25:18.000,106,2020-05-27 18:40:26.150,0.25,90,-180,-90,-180,1
6446,63,0,914.002,0,-90,1,0.25,2,9,0.0,1.0,6,45.0,20.0,9,0.488,0.0,0.0,0.0,0,2020-05-27 18:25:18.000,106,2020-05-27 18:40:32.002,0.25,90,0,90,-180,1
6447,65,0,953.721,0,-90,1,0.25,2,9,0.0,1.0,6,45.0,20.0,9,0.526,1.0,955.098,0.13,1,2020-05-27 18:25:18.000,106,2020-05-27 18:41:11.721,0.25,-90,0,90,0,1
6448,66,0,967.912,0,-90,1,0.25,2,3,0.0,1.0,12,45.0,20.0,3,0.601,0.0,0.0,0.12,1,2020-05-27 18:25:18.000,106,2020-05-27 18:41:25.912,0.25,90,-180,-90,-180,1
6449,67,0,973.26,0,-90,1,0.25,2,3,0.0,1.0,12,45.0,20.0,3,0.451,0.0,0.0,0.12,1,2020-05-27 18:25:18.000,106,2020-05-27 18:41:31.260,0.25,90,-180,-90,-180,1
6450,68,0,979.023,0,-90,1,0.25,2,9,0.0,1.0,6,45.0,20.0,9,0.564,1.0,981.445,0.13,1,2020-05-27 18:25:18.000,106,2020-05-27 18:41:37.023,0.25,-90,0,90,0,1
6451,69,0,988.245,0,-90,1,0.25,2,3,0.0,1.0,12,45.0,20.0,3,0.564,0.0,0.0,0.12,1,2020-05-27 18:25:18.000,106,2020-05-27 18:41:46.245,0.25,90,-180,-90,-180,1
6452,70,0,1015.412,0,-90,1,0.25,2,9,0.0,1.0,6,45.0,20.0,9,0.601,1.0,1017.629,0.13,1,2020-05-27 18:25:18.000,106,2020-05-27 18:42:13.412,0.25,-90,0,90,0,1
6453,71,0,1027.854,0,-90,1,0.25,2,9,0.0,1.0,6,45.0,20.0,9,0.488,1.0,1029.251,0.13,1,2020-05-27 18:25:18.000,106,2020-05-27 18:42:25.854,0.25,-90,0,90,0,1
6454,72,0,1049.333,0,-90,1,0.25,2,3,0.0,1.0,12,45.0,20.0,3,0.526,1.0,1053.253,0.0,0,2020-05-27 18:25:18.000,106,2020-05-27 18:42:47.333,0.25,-90,-180,-90,0,1
6467,16,0,370.417,0,-150,1,0.25,2,9,0.0,1.0,6,45.0,20.0,9,0.488,1.0,372.905,0.13,1,2020-05-28 13:51:23.000,186,2020-05-28 13:57:33.417,0.25,-90,0,150,60,1
6468,17,0,395.411,0,-150,1,0.25,2,3,0.0,1.0,12,45.0,20.0,3,0.564,0.0,0.0,0.12,1,2020-05-28 13:51:23.000,186,2020-05-28 13:57:58.411,0.25,90,-180,-30,-120,1
6469,18,0,411.80300000000005,0,-150,1,0.25,2,9,0.0,1.0,6,45.0,20.0,9,0.451,1.0,413.772,0.13,1,2020-05-28 13:51:23.000,186,2020-05-28 13:58:14.803,0.25,-90,0,150,60,1
6470,19,0,437.978,0,-150,1,0.25,2,3,0.0,1.0,12,45.0,20.0,3,0.601,1.0,439.947,0.0,0,2020-05-28 13:51:23.000,186,2020-05-28 13:58:40.978,0.25,-90,-180,-30,60,1
6471,21,0,493.74300000000005,0,-150,1,0.25,2,3,0.0,1.0,12,45.0,20.0,3,0.451,0.0,0.0,0.12,1,2020-05-28 13:51:23.000,186,2020-05-28 13:59:36.743,0.25,90,-180,-30,-120,1
6472,22,0,586.572,0,-150,1,0.25,2,3,0.0,1.0,12,45.0,20.0,3,0.526,0.0,0.0,0.12,1,2020-05-28 13:51:23.000,186,2020-05-28 14:01:09.572,0.25,90,-180,-30,-120,1
6473,23,0,602.363,0,-150,1,0.25,2,3,0.0,1.0,12,45.0,20.0,3,0.488,0.0,0.0,0.12,1,2020-05-28 13:51:23.000,186,2020-05-28 14:01:25.363,0.25,90,-180,-30,-120,1
6474,24,0,607.812,1,-150,1,0.25,2,9,0.0,1.0,6,45.0,20.0,9,0.564,1.0,609.314,0.13,1,2020-05-28 13:51:23.000,186,2020-05-28 14:01:30.812,0.25,-90,0,150,60,1
6475,25,0,617.025,0,-150,1,0.25,2,3,0.0,1.0,12,45.0,20.0,3,0.601,1.0,619.651,0.0,0,2020-05-28 13:51:23.000,186,2020-05-28 14:01:40.025,0.25,-90,-180,-30,60,1
6476,27,0,642.269,0,-150,1,0.25,2,3,0.0,1.0,12,45.0,20.0,3,0.526,1.0,644.521,0.0,0,2020-05-28 13:51:23.000,186,2020-05-28 14:02:05.269,0.25,-90,-180,-30,60,1
6655,126,0,2206.235,0,-60,1,0.25,2,9,0.0,1.0,6,45.0,20.0,9,0.488,1.0,2208.881,0.13,1,2020-05-29 13:12:21.000,192,2020-05-29 13:49:07.235,0.25,-90,0,60,-30,1
6656,127,0,2217.909,0,-60,1,0.25,2,9,0.0,1.0,6,45.0,20.0,9,0.564,1.0,2220.136,0.13,1,2020-05-29 13:12:21.000,192,2020-05-29 13:49:18.909,0.25,-90,0,60,-30,1
6657,128,0,2232.356,0,-60,1,0.25,2,3,0.0,1.0,12,45.0,20.0,3,0.601,0.0,0.0,0.12,1,2020-05-29 13:12:21.000,192,2020-05-29 13:49:33.356,0.25,90,-180,-120,150,1
6658,129,0,2249.646,0,-60,1,0.25,2,9,0.0,1.0,6,45.0,20.0,9,0.526,1.0,2251.874,0.13,1,2020-05-29 13:12:21.000,192,2020-05-29 13:49:50.646,0.25,-90,0,60,-30,1
6659,130,0,2262.498,0,-60,1,0.25,2,9,0.0,1.0,6,45.0,20.0,9,0.526,1.0,2264.023,0.13,1,2020-05-29 13:12:21.000,192,2020-05-29 13:50:03.498,0.25,-90,0,60,-30,1
6660,131,0,2295.39,0,-60,1,0.25,2,3,0.0,1.0,12,45.0,20.0,3,0.601,0.0,0.0,0.12,1,2020-05-29 13:12:21.000,192,2020-05-29 13:50:36.390,0.25,90,-180,-120,150,1
6661,132,0,2331.7670000000007,0,-60,1,0.25,2,9,0.0,1.0,6,45.0,20.0,9,0.451,1.0,2333.635,0.13,1,2020-05-29 13:12:21.000,192,2020-05-29 13:51:12.767,0.25,-90,0,60,-30,1
6662,133,0,2340.325,0,-60,1,0.25,2,3,0.0,1.0,12,45.0,20.0,3,0.564,0.0,0.0,0.12,1,2020-05-29 13:12:21.000,192,2020-05-29 13:51:21.325,0.25,90,-180,-120,150,1
6664,135,0,2428.563,0,-60,1,0.25,2,3,0.0,1.0,12,45.0,20.0,3,0.526,0.0,0.0,0.12,1,2020-05-29 13:12:21.000,192,2020-05-29 13:52:49.563,0.25,90,-180,-120,150,1
6665,136,0,2442.35,0,-60,1,0.25,2,3,0.0,1.0,12,45.0,20.0,3,0.451,0.0,0.0,0.12,1,2020-05-29 13:12:21.000,192,2020-05-29 13:53:03.350,0.25,90,-180,-120,150,1
6692,29,0,508.244,0,-120,1,0.25,2,3,0.0,1.0,12,45.0,20.0,3,0.601,0.0,0.0,0.12,1,2020-05-29 18:24:20.000,170,2020-05-29 18:32:48.244,0.25,90,-180,-60,-150,1
6693,30,0,518.117,0,-120,1,0.25,2,3,0.0,1.0,12,45.0,20.0,3,0.526,1.0,524.432,0.0,0,2020-05-29 18:24:20.000,170,2020-05-29 18:32:58.117,0.25,-90,-180,-60,30,1
6694,32,0,543.701,0,-120,1,0.25,2,3,0.0,1.0,12,45.0,20.0,3,0.451,0.0,0.0,0.12,1,2020-05-29 18:24:20.000,170,2020-05-29 18:33:23.701,0.25,90,-180,-60,-150,1
6695,33,0,556.2180000000002,0,-120,1,0.25,2,3,0.0,1.0,12,45.0,20.0,3,0.564,0.0,0.0,0.12,1,2020-05-29 18:24:20.000,170,2020-05-29 18:33:36.218,0.25,90,-180,-60,-150,1
6696,34,0,564.163,0,-120,1,0.25,2,3,0.0,1.0,12,45.0,20.0,3,0.488,0.0,0.0,0.12,1,2020-05-29 18:24:20.000,170,2020-05-29 18:33:44.163,0.25,90,-180,-60,-150,1
6697,35,0,571.314,0,-120,1,0.25,2,9,0.0,1.0,6,45.0,20.0,9,0.526,1.0,572.868,0.13,1,2020-05-29 18:24:20.000,170,2020-05-29 18:33:51.314,0.25,-90,0,120,30,1
6698,36,0,579.0219999999998,0,-120,1,0.25,2,9,0.0,1.0,6,45.0,20.0,9,0.451,1.0,580.447,0.13,1,2020-05-29 18:24:20.000,170,2020-05-29 18:33:59.022,0.25,-90,0,120,30,1
6699,37,0,751.578,0,-120,1,0.25,2,3,0.0,1.0,12,45.0,20.0,3,0.601,0.0,0.0,0.12,1,2020-05-29 18:24:20.000,170,2020-05-29 18:36:51.578,0.25,90,-180,-60,-150,1
6700,38,0,759.4910000000001,0,-120,1,0.25,2,9,0.0,1.0,6,45.0,20.0,9,0.564,1.0,761.0219999999998,0.13,1,2020-05-29 18:24:20.000,170,2020-05-29 18:36:59.491,0.25,-90,0,120,30,1
6701,39,0,769.047,0,-120,1,0.25,2,9,0.0,1.0,6,45.0,20.0,9,0.564,0.0,0.0,0.0,0,2020-05-29 18:24:20.000,170,2020-05-29 18:37:09.047,0.25,90,0,120,-150,1
6734,41,0,614.901,0,0,1,0.25,2,3,0.0,1.0,12,45.0,20.0,3,0.488,0.0,0.0,0.12,1,2020-06-01 12:43:28.000,203,2020-06-01 12:53:42.901,0.25,90,-180,-180,90,1
6735,42,0,624.058,0,0,1,0.25,2,3,0.0,1.0,12,45.0,20.0,3,0.601,0.0,0.0,0.12,1,2020-06-01 12:43:28.000,203,2020-06-01 12:53:52.058,0.25,90,-180,-180,90,1
6736,43,0,636.918,0,0,1,0.25,2,3,0.0,1.0,6,45.0,20.0,3,0.564,1.0,638.391,0.0,0,2020-06-01 12:43:28.000,203,2020-06-01 12:54:04.918,0.25,-90,0,0,-90,1
6737,44,0,653.23,0,0,1,0.25,2,9,0.0,1.0,6,45.0,20.0,9,0.526,1.0,657.796,0.13,1,2020-06-01 12:43:28.000,203,2020-06-01 12:54:21.230,0.25,-90,0,0,-90,1
6738,45,0,672.2919999999998,0,0,1,0.25,2,3,0.0,1.0,12,45.0,20.0,3,0.564,0.0,0.0,0.12,1,2020-06-01 12:43:28.000,203,2020-06-01 12:54:40.292,0.25,90,-180,-180,90,1
6739,46,0,679.327,0,0,1,0.25,2,9,0.0,1.0,6,45.0,20.0,9,0.488,1.0,680.62,0.13,1,2020-06-01 12:43:28.000,203,2020-06-01 12:54:47.327,0.25,-90,0,0,-90,1
6740,47,0,688.887,0,0,1,0.25,2,9,0.0,1.0,6,45.0,20.0,9,0.601,1.0,690.293,0.13,1,2020-06-01 12:43:28.000,203,2020-06-01 12:54:56.887,0.25,-90,0,0,-90,1
6741,48,0,697.422,0,0,1,0.25,2,9,0.0,1.0,6,45.0,20.0,9,0.451,1.0,700.1389999999999,0.13,1,2020-06-01 12:43:28.000,203,2020-06-01 12:55:05.422,0.25,-90,0,0,-90,1
6742,49,0,722.306,0,0,1,0.25,2,9,0.0,1.0,6,45.0,20.0,9,0.526,1.0,723.732,0.13,1,2020-06-01 12:43:28.000,203,2020-06-01 12:55:30.306,0.25,-90,0,0,-90,1
6743,50,0,732.0189999999999,0,0,1,0.25,2,9,0.0,1.0,6,45.0,20.0,9,0.451,0.0,0.0,0.0,0,2020-06-01 12:43:28.000,203,2020-06-01 12:55:40.019,0.25,90,0,0,90,1
6909,74,0,1204.186,0,30,1,0.25,2,9,0.0,1.0,6,45.0,20.0,9,0.564,1.0,1206.205,0.13,1,2020-06-02 17:51:45.000,146,2020-06-02 18:11:49.186,0.25,-90,0,-30,-120,1
6910,75,0,1218.911,0,30,1,0.25,2,3,0.0,1.0,12,45.0,20.0,3,0.488,0.0,0.0,0.12,1,2020-06-02 17:51:45.000,146,2020-06-02 18:12:03.911,0.25,90,-180,150,60,1
6911,76,0,1225.279,1,30,1,0.25,2,9,0.0,1.0,6,45.0,20.0,9,0.526,1.0,1226.72,0.13,1,2020-06-02 17:51:45.000,146,2020-06-02 18:12:10.279,0.25,-90,0,-30,-120,1
6912,77,0,1242.695,0,30,1,0.25,2,3,0.0,1.0,12,45.0,20.0,3,0.601,0.0,0.0,0.12,1,2020-06-02 17:51:45.000,146,2020-06-02 18:12:27.695,0.25,90,-180,150,60,1
6913,78,0,1248.183,0,30,1,0.25,2,3,0.0,1.0,12,45.0,20.0,3,0.451,0.0,0.0,0.12,1,2020-06-02 17:51:45.000,146,2020-06-02 18:12:33.183,0.25,90,-180,150,60,1
6915,80,0,1262.2,1,30,1,0.25,2,3,0.0,1.0,12,45.0,20.0,3,0.601,0.0,0.0,0.12,1,2020-06-02 17:51:45.000,146,2020-06-02 18:12:47.200,0.25,90,-180,150,60,1
6916,81,0,1268.087,0,30,1,0.25,2,9,0.0,1.0,6,45.0,20.0,9,0.564,0.0,0.0,0.0,0,2020-06-02 17:51:45.000,146,2020-06-02 18:12:53.087,0.25,90,0,-30,60,1
6917,83,0,1331.979,0,30,1,0.25,2,3,0.0,1.0,12,45.0,20.0,3,0.488,0.0,0.0,0.12,1,2020-06-02 17:51:45.000,146,2020-06-02 18:13:56.979,0.25,90,-180,150,60,1
6918,84,0,1349.533,0,30,1,0.25,2,9,0.0,1.0,6,45.0,20.0,9,0.526,1.0,1351.665,0.13,1,2020-06-02 17:51:45.000,146,2020-06-02 18:14:14.533,0.25,-90,0,-30,-120,1
6919,85,0,1360.721,0,30,1,0.25,2,3,0.0,1.0,12,45.0,20.0,3,0.451,1.0,1363.21,0.0,0,2020-06-02 17:51:45.000,146,2020-06-02 18:14:25.721,0.25,-90,-180,150,-120,1
6955,49,0,786.837,1,180,1,0.25,2,9,0.0,1.0,6,45.0,20.0,9,0.564,1.0,788.221,0.13,1,2020-06-03 12:44:56.000,214,2020-06-03 12:58:02.837,0.25,-90,0,-180,90,1
6956,50,0,791.3810000000002,1,180,1,0.25,2,9,0.0,1.0,6,45.0,20.0,9,0.488,1.0,795.72,0.13,1,2020-06-03 12:44:56.000,214,2020-06-03 12:58:07.381,0.25,-90,0,-180,90,1
6957,51,0,799.295,0,180,1,0.25,2,3,0.0,1.0,12,45.0,20.0,3,0.526,1.0,803.39,0.0,0,2020-06-03 12:44:56.000,214,2020-06-03 12:58:15.295,0.25,-90,-180,0,90,1
6958,53,0,819.041,1,180,1,0.25,2,3,0.0,1.0,12,45.0,20.0,3,0.601,0.0,0.0,0.12,1,2020-06-03 12:44:56.000,214,2020-06-03 12:58:35.041,0.25,90,-180,0,-90,1
6959,54,0,824.9110000000002,1,180,1,0.25,2,3,0.0,1.0,12,45.0,20.0,3,0.451,0.0,0.0,0.12,1,2020-06-03 12:44:56.000,214,2020-06-03 12:58:40.911,0.25,90,-180,0,-90,1
6960,55,0,831.25,1,180,1,0.25,2,3,0.0,1.0,12,45.0,20.0,3,0.488,0.0,0.0,0.12,1,2020-06-03 12:44:56.000,214,2020-06-03 12:58:47.250,0.25,90,-180,0,-90,1
6961,56,0,838.1560000000002,0,180,1,0.25,2,9,0.0,1.0,6,45.0,20.0,9,0.601,0.0,0.0,0.0,0,2020-06-03 12:44:56.000,214,2020-06-03 12:58:54.156,0.25,90,0,-180,-90,1
6962,58,0,901.661,0,180,1,0.25,2,9,0.0,1.0,6,45.0,20.0,9,0.451,0.0,0.0,0.0,0,2020-06-03 12:44:56.000,214,2020-06-03 12:59:57.661,0.25,90,0,-180,-90,1
6963,60,0,934.931,1,180,1,0.25,2,3,0.0,1.0,12,45.0,20.0,3,0.564,0.0,0.0,0.12,1,2020-06-03 12:44:56.000,214,2020-06-03 13:00:30.931,0.25,90,-180,0,-90,1
6964,61,0,945.279,0,180,1,0.25,2,9,0.0,1.0,6,45.0,20.0,9,0.526,0.0,0.0,0.0,0,2020-06-03 12:44:56.000,214,2020-06-03 13:00:41.279,0.25,90,0,-180,-90,1
7030,24,0,412.754,1,-30,1,0.25,2,9,0.0,1.0,12,45.0,20.0,9,0.526,0.0,0.0,0.0,0,2020-06-04 12:01:58.000,249,2020-06-04 12:08:50.754,0.25,90,-180,-150,120,1
7031,25,0,420.379,0,-30,1,0.25,2,9,0.0,1.0,6,45.0,20.0,9,0.488,0.0,0.0,0.0,0,2020-06-04 12:01:58.000,249,2020-06-04 12:08:58.379,0.25,90,0,30,120,1
7032,27,0,454.726,0,-30,1,0.25,2,3,0.0,1.0,12,45.0,20.0,3,0.564,0.0,0.0,0.12,1,2020-06-04 12:01:58.000,249,2020-06-04 12:09:32.726,0.25,90,-180,-150,120,1
7033,28,0,465.334,0,-30,1,0.25,2,3,0.0,1.0,12,45.0,20.0,3,0.601,0.0,0.0,0.12,1,2020-06-04 12:01:58.000,249,2020-06-04 12:09:43.334,0.25,90,-180,-150,120,1
7035,30,0,505.904,0,-30,1,0.25,2,9,0.0,1.0,6,45.0,20.0,9,0.564,1.0,507.155,0.13,1,2020-06-04 12:01:58.000,249,2020-06-04 12:10:23.904,0.25,-90,0,30,-60,1
7037,32,0,528.717,0,-30,1,0.25,2,9,0.0,1.0,6,45.0,20.0,9,0.451,1.0,530.401,0.13,1,2020-06-04 12:01:58.000,249,2020-06-04 12:10:46.717,0.25,-90,0,30,-60,1
7038,33,0,538.161,0,-30,1,0.25,2,9,0.0,1.0,6,45.0,20.0,9,0.488,0.0,0.0,0.0,0,2020-06-04 12:01:58.000,249,2020-06-04 12:10:56.161,0.25,90,0,30,120,1
7039,35,0,561.059,0,-30,1,0.25,2,3,0.0,1.0,12,45.0,20.0,3,0.488,0.0,0.0,0.12,1,2020-06-04 12:01:58.000,249,2020-06-04 12:11:19.059,0.25,90,-180,-150,120,1
7040,36,0,577.16,0,-30,1,0.25,2,3,0.0,1.0,12,45.0,20.0,3,0.601,0.0,0.0,0.12,1,2020-06-04 12:01:58.000,249,2020-06-04 12:11:35.160,0.25,90,-180,-150,120,1
7041,37,0,582.352,0,-30,1,0.25,2,3,0.0,1.0,12,45.0,20.0,3,0.451,0.0,0.0,0.12,1,2020-06-04 12:01:58.000,249,2020-06-04 12:11:40.352,0.25,90,-180,-150,120,1
7120,87,0,1436.189,0,30,1,0.25,2,3,0.0,1.0,12,45.0,20.0,3,0.451,0.0,0.0,0.12,1,2020-06-05 11:59:05.000,253,2020-06-05 12:23:01.189,0.25,90,-180,150,60,1
7121,88,0,1461.42,0,30,1,0.25,2,9,0.0,1.0,6,45.0,20.0,9,0.601,1.0,1464.331,0.13,1,2020-06-05 11:59:05.000,253,2020-06-05 12:23:26.420,0.25,-90,0,-30,-120,1
7122,89,0,1479.675,0,30,1,0.25,2,9,0.0,1.0,6,45.0,20.0,9,0.526,1.0,1481.568,0.13,1,2020-06-05 11:59:05.000,253,2020-06-05 12:23:44.675,0.25,-90,0,-30,-120,1
7123,90,0,1505.003,0,30,1,0.25,2,9,0.0,1.0,6,45.0,20.0,9,0.564,1.0,1506.473,0.13,1,2020-06-05 11:59:05.000,253,2020-06-05 12:24:10.003,0.25,-90,0,-30,-120,1
7124,91,0,1528.509,0,30,1,0.25,2,3,0.0,1.0,12,45.0,20.0,3,0.488,1.0,1530.543,0.0,0,2020-06-05 11:59:05.000,253,2020-06-05 12:24:33.509,0.25,-90,-180,150,-120,1
7125,93,0,1543.187,0,30,1,0.25,2,9,0.0,1.0,6,45.0,20.0,9,0.488,1.0,1544.2910000000004,0.13,1,2020-06-05 11:59:05.000,253,2020-06-05 12:24:48.187,0.25,-90,0,-30,-120,1
7126,94,0,1550.445,0,30,1,0.25,2,9,0.0,1.0,6,45.0,20.0,9,0.451,1.0,1551.821,0.13,1,2020-06-05 11:59:05.000,253,2020-06-05 12:24:55.445,0.25,-90,0,-30,-120,1
7127,95,0,1573.585,0,30,1,0.25,2,9,0.0,1.0,6,45.0,20.0,9,0.526,1.0,1576.205,0.13,1,2020-06-05 11:59:05.000,253,2020-06-05 12:25:18.585,0.25,-90,0,-30,-120,1
7128,96,0,1589.118,0,30,1,0.25,2,3,0.0,1.0,12,45.0,20.0,3,0.564,1.0,1589.329,0.0,0,2020-06-05 11:59:05.000,253,2020-06-05 12:25:34.118,0.25,-90,-180,150,-120,1
7129,98,0,1604.4070000000004,0,30,1,0.25,2,9,0.0,1.0,6,45.0,20.0,9,0.601,0.0,0.0,0.0,0,2020-06-05 11:59:05.000,253,2020-06-05 12:25:49.407,0.25,90,0,-30,60,1
7175,52,0,705.778,0,120,1,0.25,2,3,0.0,1.0,12,45.0,20.0,3,0.488,0.0,0.0,0.12,1,2020-06-05 17:42:30.000,215,2020-06-05 17:54:15.778,0.25,90,-180,60,-30,1
7176,53,0,710.216,0,120,1,0.25,2,9,0.0,1.0,6,45.0,20.0,9,0.526,1.0,711.9830000000002,0.13,1,2020-06-05 17:42:30.000,215,2020-06-05 17:54:20.216,0.25,-90,0,-120,150,1
7177,54,0,718.552,0,120,1,0.25,2,9,0.0,1.0,6,45.0,20.0,9,0.601,0.0,0.0,0.0,0,2020-06-05 17:42:30.000,215,2020-06-05 17:54:28.552,0.25,90,0,-120,-30,1
7179,57,0,771.3580000000002,0,120,1,0.25,2,3,0.0,1.0,12,45.0,20.0,3,0.451,0.0,0.0,0.12,1,2020-06-05 17:42:30.000,215,2020-06-05 17:55:21.358,0.25,90,-180,60,-30,1
7180,58,0,777.845,0,120,1,0.25,2,9,0.0,1.0,6,45.0,20.0,9,0.564,1.0,779.7819999999998,0.13,1,2020-06-05 17:42:30.000,215,2020-06-05 17:55:27.845,0.25,-90,0,-120,150,1
7181,59,0,809.757,0,120,1,0.25,2,9,0.0,1.0,6,45.0,20.0,9,0.488,1.0,810.99,0.13,1,2020-06-05 17:42:30.000,215,2020-06-05 17:55:59.757,0.25,-90,0,-120,150,1
7182,60,0,826.904,0,120,1,0.25,2,3,0.0,1.0,12,45.0,20.0,3,0.526,0.0,0.0,0.12,1,2020-06-05 17:42:30.000,215,2020-06-05 17:56:16.904,0.25,90,-180,60,-30,1
7183,61,0,831.827,0,120,1,0.25,2,9,0.0,1.0,6,45.0,20.0,9,0.451,1.0,833.211,0.13,1,2020-06-05 17:42:30.000,215,2020-06-05 17:56:21.827,0.25,-90,0,-120,150,1
7184,62,0,856.59,0,120,1,0.25,2,9,0.0,1.0,6,45.0,20.0,9,0.601,1.0,858.81,0.13,1,2020-06-05 17:42:30.000,215,2020-06-05 17:56:46.590,0.25,-90,0,-120,150,1
7185,63,0,873.909,0,120,1,0.25,2,9,0.0,1.0,6,45.0,20.0,9,0.488,0.0,0.0,0.0,0,2020-06-05 17:42:30.000,215,2020-06-05 17:57:03.909,0.25,90,0,-120,-30,1
7254,12,0,211.488,0,-150,1,0.25,2,9,0.0,1.0,6,45.0,20.0,9,0.488,1.0,215.11900000000003,0.13,1,2020-06-09 12:00:54.000,119,2020-06-09 12:04:25.488,0.25,-90,0,150,60,1
7255,13,0,224.628,1,-150,1,0.25,2,3,0.0,1.0,12,45.0,20.0,3,0.526,0.0,0.0,0.12,1,2020-06-09 12:00:54.000,119,2020-06-09 12:04:38.628,0.25,90,-180,-30,-120,1
7256,14,0,228.879,1,-150,1,0.25,2,3,0.0,1.0,12,45.0,20.0,3,0.601,0.0,0.0,0.12,1,2020-06-09 12:00:54.000,119,2020-06-09 12:04:42.879,0.25,90,-180,-30,-120,1
7257,15,0,234.81,0,-150,1,0.25,2,3,0.0,1.0,12,45.0,20.0,3,0.451,0.0,0.0,0.12,1,2020-06-09 12:00:54.000,119,2020-06-09 12:04:48.810,0.25,90,-180,-30,-120,1
7258,16,0,247.926,0,-150,1,0.25,2,9,0.0,1.0,6,45.0,20.0,9,0.601,0.0,0.0,0.0,0,2020-06-09 12:00:54.000,119,2020-06-09 12:05:01.926,0.25,90,0,150,-120,1
7260,19,0,277.237,0,-150,1,0.25,2,3,0.0,1.0,12,45.0,20.0,3,0.526,0.0,0.0,0.14,1,2020-06-09 12:00:54.000,119,2020-06-09 12:05:31.237,0.25,90,-180,-30,-120,1
7261,20,0,290.849,0,-150,1,0.25,2,3,0.0,1.0,12,45.0,20.0,3,0.488,0.0,0.0,0.14,1,2020-06-09 12:00:54.000,119,2020-06-09 12:05:44.849,0.25,90,-180,-30,-120,1
7262,21,0,308.208,1,-150,1,0.25,2,3,0.0,1.0,12,45.0,20.0,3,0.451,0.0,0.0,0.14,1,2020-06-09 12:00:54.000,119,2020-06-09 12:06:02.208,0.25,90,-180,-30,-120,1
7263,22,0,312.311,1,-150,1,0.25,2,3,0.0,1.0,12,45.0,20.0,3,0.526,0.0,0.0,0.14,1,2020-06-09 12:00:54.000,119,2020-06-09 12:06:06.311,0.25,90,-180,-30,-120,1
7265,24,0,326.985,0,-150,1,0.25,2,3,0.0,1.0,12,45.0,20.0,3,0.564,0.0,0.0,0.14,1,2020-06-09 12:00:54.000,119,2020-06-09 12:06:20.985,0.25,90,-180,-30,-120,1
7291,29,0,264.944,0,60,1,0.25,2,3,0.0,1.0,12,45.0,20.0,3,0.451,0.0,0.0,0.12,1,2020-06-09 18:06:45.000,121,2020-06-09 18:11:09.944,0.25,90,-180,120,30,1
7292,30,0,270.318,0,60,1,0.25,2,3,0.0,1.0,12,45.0,20.0,3,0.601,0.0,0.0,0.12,1,2020-06-09 18:06:45.000,121,2020-06-09 18:11:15.318,0.25,90,-180,120,30,1
7293,31,0,275.562,0,60,1,0.25,2,9,0.0,1.0,6,45.0,20.0,9,0.526,1.0,276.79900000000004,0.13,1,2020-06-09 18:06:45.000,121,2020-06-09 18:11:20.562,0.25,-90,0,-60,-150,1
7294,32,0,281.247,0,60,1,0.25,2,3,0.0,1.0,12,45.0,20.0,3,0.488,0.0,0.0,0.12,1,2020-06-09 18:06:45.000,121,2020-06-09 18:11:26.247,0.25,90,-180,120,30,1
7295,33,0,285.736,0,60,1,0.25,2,3,0.0,1.0,12,45.0,20.0,3,0.564,0.0,0.0,0.12,1,2020-06-09 18:06:45.000,121,2020-06-09 18:11:30.736,0.25,90,-180,120,30,1
7296,34,0,291.194,0,60,1,0.25,2,9,0.0,1.0,6,45.0,20.0,9,0.488,0.0,0.0,0.0,0,2020-06-09 18:06:45.000,121,2020-06-09 18:11:36.194,0.25,90,0,-60,30,1
7297,36,0,311.756,0,60,1,0.25,2,3,0.0,1.0,12,45.0,20.0,3,0.526,1.0,313.627,0.0,0,2020-06-09 18:06:45.000,121,2020-06-09 18:11:56.756,0.25,-90,-180,120,-150,1
7298,39,0,338.026,0,60,1,0.25,2,9,0.0,1.0,6,45.0,20.0,9,0.451,1.0,339.034,0.13,1,2020-06-09 18:06:45.000,121,2020-06-09 18:12:23.026,0.25,-90,0,-60,-150,1
7299,40,0,342.814,0,60,1,0.25,2,9,0.0,1.0,6,45.0,20.0,9,0.564,1.0,344.272,0.13,1,2020-06-09 18:06:45.000,121,2020-06-09 18:12:27.814,0.25,-90,0,-60,-150,1
7300,41,0,365.375,0,60,1,0.25,2,9,0.0,1.0,6,45.0,20.0,9,0.601,0.0,0.0,0.0,0,2020-06-09 18:06:45.000,121,2020-06-09 18:12:50.375,0.25,90,0,-60,30,1
7315,19,0,267.461,0,-120,1,0.25,2,3,0.0,1.0,12,45.0,20.0,3,0.601,0.0,0.0,0.12,1,2020-06-10 12:20:27.000,224,2020-06-10 12:24:54.461,0.25,90,-180,-60,-150,1
7316,20,0,274.092,0,-120,1,0.25,2,9,0.0,1.0,6,45.0,20.0,9,0.451,0.0,0.0,0.0,0,2020-06-10 12:20:27.000,224,2020-06-10 12:25:01.092,0.25,90,0,120,-150,1
7317,22,0,315.988,0,-120,1,0.25,2,9,0.0,1.0,6,45.0,20.0,9,0.488,1.0,318.274,0.13,1,2020-06-10 12:20:27.000,224,2020-06-10 12:25:42.988,0.25,-90,0,120,30,1
7318,23,0,322.306,0,-120,1,0.25,2,9,0.0,1.0,6,45.0,20.0,9,0.601,1.0,325.342,0.13,1,2020-06-10 12:20:27.000,224,2020-06-10 12:25:49.306,0.25,-90,0,120,30,1
7319,24,0,330.83,0,-120,1,0.25,2,9,0.0,1.0,6,45.0,20.0,9,0.526,0.0,0.0,0.0,0,2020-06-10 12:20:27.000,224,2020-06-10 12:25:57.830,0.25,90,0,120,-150,1
7320,26,0,359.4430000000001,0,-120,1,0.25,2,9,0.0,1.0,6,45.0,20.0,9,0.564,1.0,360.643,0.13,1,2020-06-10 12:20:27.000,224,2020-06-10 12:26:26.443,0.25,-90,0,120,30,1
7321,27,0,365.283,0,-120,1,0.25,2,9,0.0,1.0,6,45.0,20.0,9,0.564,0.0,0.0,0.0,0,2020-06-10 12:20:27.000,224,2020-06-10 12:26:32.283,0.25,90,0,120,-150,1
7322,29,0,392.826,0,-120,1,0.25,2,9,0.0,1.0,6,45.0,20.0,9,0.526,0.0,0.0,0.0,0,2020-06-10 12:20:27.000,224,2020-06-10 12:26:59.826,0.25,90,0,120,-150,1
7324,32,0,419.312,0,-120,1,0.25,2,3,0.0,1.0,12,45.0,20.0,3,0.601,0.0,0.0,0.12,1,2020-06-10 12:20:27.000,224,2020-06-10 12:27:26.312,0.25,90,-180,-60,-150,1
7325,33,0,437.3730000000001,0,-120,1,0.25,2,3,0.0,1.0,12,45.0,20.0,3,0.451,0.0,0.0,0.12,1,2020-06-10 12:20:27.000,224,2020-06-10 12:27:44.373,0.25,90,-180,-60,-150,1
7345,21,0,301.409,0,-90,1,0.25,2,3,0.0,1.0,12,45.0,20.0,3,0.601,0.0,0.0,0.12,1,2020-06-10 17:46:18.000,115,2020-06-10 17:51:19.409,0.25,90,-180,-90,-180,1
7346,22,0,307.725,0,-90,1,0.25,2,3,0.0,1.0,12,45.0,20.0,3,0.488,0.0,0.0,0.12,1,2020-06-10 17:46:18.000,115,2020-06-10 17:51:25.725,0.25,90,-180,-90,-180,1
7347,23,0,324.074,0,-90,1,0.25,2,3,0.0,1.0,12,45.0,20.0,3,0.526,0.0,0.0,0.12,1,2020-06-10 17:46:18.000,115,2020-06-10 17:51:42.074,0.25,90,-180,-90,-180,1
7348,24,0,330.23800000000006,0,-90,1,0.25,2,9,0.0,1.0,6,45.0,20.0,9,0.451,1.0,331.673,0.13,1,2020-06-10 17:46:18.000,115,2020-06-10 17:51:48.238,0.25,-90,0,90,0,1
7349,25,0,351.792,0,-90,1,0.25,2,3,0.0,1.0,12,45.0,20.0,3,0.564,0.0,0.0,0.12,1,2020-06-10 17:46:18.000,115,2020-06-10 17:52:09.792,0.25,90,-180,-90,-180,1
7350,26,0,369.252,0,-90,1,0.25,2,3,0.0,1.0,12,45.0,20.0,3,0.601,0.0,0.0,0.12,1,2020-06-10 17:46:18.000,115,2020-06-10 17:52:27.252,0.25,90,-180,-90,-180,1
7352,28,0,390.984,0,-90,1,0.25,2,9,0.0,1.0,6,45.0,20.0,9,0.526,1.0,392.281,0.13,1,2020-06-10 17:46:18.000,115,2020-06-10 17:52:48.984,0.25,-90,0,90,0,1
7353,29,0,397.783,0,-90,1,0.25,2,9,0.0,1.0,6,45.0,20.0,9,0.564,1.0,399.348,0.13,1,2020-06-10 17:46:18.000,115,2020-06-10 17:52:55.783,0.25,-90,0,90,0,1
7354,30,0,406.55800000000005,0,-90,1,0.25,2,9,0.0,1.0,6,45.0,20.0,9,0.601,1.0,407.754,0.13,1,2020-06-10 17:46:18.000,115,2020-06-10 17:53:04.558,0.25,-90,0,90,0,1
7355,31,0,429.173,0,-90,1,0.25,2,3,0.0,1.0,12,45.0,20.0,3,0.488,1.0,431.548,0.0,0,2020-06-10 17:46:18.000,115,2020-06-10 17:53:27.173,0.25,-90,-180,-90,0,1
7394,17,0,299.222,0,60,1,0.25,2,3,0.0,1.0,12,45.0,20.0,3,0.601,0.0,301.58,0.12,1,2020-06-11 17:53:24.000,244,2020-06-11 17:58:23.222,0.25,90,-180,120,30,1
7395,18,0,306.967,0,60,1,0.25,2,3,0.0,1.0,12,45.0,20.0,3,0.451,0.0,308.693,0.12,1,2020-06-11 17:53:24.000,244,2020-06-11 17:58:30.967,0.25,90,-180,120,30,1
7396,19,0,316.503,0,60,1,0.25,2,3,0.0,1.0,12,45.0,20.0,3,0.564,0.0,318.225,0.12,1,2020-06-11 17:53:24.000,244,2020-06-11 17:58:40.503,0.25,90,-180,120,30,1
7397,20,0,333.355,0,60,1,0.25,2,9,0.0,1.0,6,45.0,20.0,9,0.526,1.0,334.545,0.13,1,2020-06-11 17:53:24.000,244,2020-06-11 17:58:57.355,0.25,-90,0,-60,-150,1
7398,21,0,353.536,0,60,1,0.25,2,3,0.0,1.0,12,45.0,20.0,3,0.526,0.0,355.454,0.12,1,2020-06-11 17:53:24.000,244,2020-06-11 17:59:17.536,0.25,90,-180,120,30,1
7399,22,0,358.516,0,60,1,0.25,2,3,0.0,1.0,12,45.0,20.0,3,0.601,0.0,360.139,0.12,1,2020-06-11 17:53:24.000,244,2020-06-11 17:59:22.516,0.25,90,-180,120,30,1
7400,23,0,363.579,0,60,1,0.25,2,9,0.0,1.0,6,45.0,20.0,9,0.564,1.0,365.085,0.13,1,2020-06-11 17:53:24.000,244,2020-06-11 17:59:27.579,0.25,-90,0,-60,-150,1
7401,24,0,367.68300000000005,0,60,1,0.25,2,9,0.0,1.0,6,45.0,20.0,9,0.451,0.0,369.086,0.0,0,2020-06-11 17:53:24.000,244,2020-06-11 17:59:31.683,0.25,90,0,-60,30,1
7403,27,0,395.465,0,60,1,0.25,2,9,0.0,1.0,6,45.0,20.0,9,0.564,1.0,396.679,0.13,1,2020-06-11 17:53:24.000,244,2020-06-11 17:59:59.465,0.25,-90,0,-60,-150,1
7404,28,0,410.077,0,60,1,0.25,2,9,0.0,1.0,6,45.0,20.0,9,0.526,0.0,412.723,0.0,0,2020-06-11 17:53:24.000,244,2020-06-11 18:00:14.077,0.25,90,0,-60,30,1
7424,30,0,457.642,0,150,1,0.25,2,9,0.0,1.0,6,45.0,20.0,9,0.601,1.0,458.664,0.13,1,2020-06-12 12:26:40.000,237,2020-06-12 12:34:17.642,0.25,-90,0,-150,120,1
7425,31,0,466.74300000000005,0,150,1,0.25,2,3,0.0,1.0,12,45.0,20.0,3,0.526,0.0,468.23,0.12,1,2020-06-12 12:26:40.000,237,2020-06-12 12:34:26.743,0.25,90,-180,30,-60,1
7427,33,0,484.343,0,150,1,0.25,2,3,0.0,1.0,12,45.0,20.0,3,0.564,0.0,485.895,0.12,1,2020-06-12 12:26:40.000,237,2020-06-12 12:34:44.343,0.25,90,-180,30,-60,1
7428,34,0,488.888,0,150,1,0.25,2,9,0.0,1.0,6,45.0,20.0,9,0.451,1.0,490.639,0.13,1,2020-06-12 12:26:40.000,237,2020-06-12 12:34:48.888,0.25,-90,0,-150,120,1
7429,35,0,498.908,0,150,1,0.25,2,3,0.0,1.0,12,45.0,20.0,3,0.488,0.0,500.278,0.12,1,2020-06-12 12:26:40.000,237,2020-06-12 12:34:58.908,0.25,90,-180,30,-60,1
7430,36,0,503.011,0,150,1,0.25,2,3,0.0,1.0,12,45.0,20.0,3,0.488,0.0,504.356,0.12,1,2020-06-12 12:26:40.000,237,2020-06-12 12:35:03.011,0.25,90,-180,30,-60,1
7431,37,0,507.903,0,150,1,0.25,2,9,0.0,1.0,6,45.0,20.0,9,0.564,0.0,509.731,0.0,0,2020-06-12 12:26:40.000,237,2020-06-12 12:35:07.903,0.25,90,0,-150,-60,1
7432,39,0,581.161,0,150,1,0.25,2,3,0.0,1.0,12,45.0,20.0,3,0.601,0.0,582.367,0.12,1,2020-06-12 12:26:40.000,237,2020-06-12 12:36:21.161,0.25,90,-180,30,-60,1
7433,40,0,656.012,0,150,1,0.25,2,9,0.0,1.0,6,45.0,20.0,9,0.526,1.0,657.813,0.13,1,2020-06-12 12:26:40.000,237,2020-06-12 12:37:36.012,0.25,-90,0,-150,120,1
7434,41,0,694.69,0,150,1,0.25,2,9,0.0,1.0,6,45.0,20.0,9,0.451,1.0,696.2130000000002,0.13,1,2020-06-12 12:26:40.000,237,2020-06-12 12:38:14.690,0.25,-90,0,-150,120,1
7470,16,0,482.545,0,0,1,0.25,2,3,0.0,1.0,12,45.0,20.0,3,0.526,0.0,487.514,0.12,1,2020-06-29 12:33:16.000,140,2020-06-29 12:41:18.545,0.25,90,-180,-180,90,1
7471,17,0,493.95,0,0,1,0.25,2,3,0.0,1.0,12,45.0,20.0,3,0.601,0.0,495.404,0.12,1,2020-06-29 12:33:16.000,140,2020-06-29 12:41:29.950,0.25,90,-180,-180,90,1
7472,18,0,500.338,0,0,1,0.25,2,9,0.0,1.0,6,45.0,20.0,9,0.526,1.0,502.801,0.13,1,2020-06-29 12:33:16.000,140,2020-06-29 12:41:36.338,0.25,-90,0,0,-90,1
7473,19,0,508.323,1,0,1,0.25,2,9,0.0,1.0,6,45.0,20.0,9,0.451,1.0,510.09,0.13,1,2020-06-29 12:33:16.000,140,2020-06-29 12:41:44.323,0.25,-90,0,0,-90,1
7474,20,0,517.805,0,0,1,0.25,2,9,0.0,1.0,6,45.0,20.0,9,0.488,0.0,520.352,0.0,0,2020-06-29 12:33:16.000,140,2020-06-29 12:41:53.805,0.25,90,0,0,90,1
7475,22,0,566.445,0,0,1,0.25,2,3,0.0,1.0,12,45.0,20.0,3,0.601,0.0,566.091,0.12,1,2020-06-29 12:33:16.000,140,2020-06-29 12:42:42.445,0.25,90,-180,-180,90,1
7477,24,0,606.908,0,0,1,0.25,2,3,0.0,1.0,12,45.0,20.0,3,0.564,0.0,607.371,0.12,1,2020-06-29 12:33:16.000,140,2020-06-29 12:43:22.908,0.25,90,-180,-180,90,1
7478,25,0,620.239,0,0,1,0.25,2,9,0.0,1.0,6,45.0,20.0,9,0.601,1.0,621.538,0.13,1,2020-06-29 12:33:16.000,140,2020-06-29 12:43:36.239,0.25,-90,0,0,-90,1
7479,26,0,637.065,0,0,1,0.25,2,9,0.0,1.0,6,45.0,20.0,9,0.526,1.0,639.4259999999998,0.13,1,2020-06-29 12:33:16.000,140,2020-06-29 12:43:53.065,0.25,-90,0,0,-90,1
7480,27,0,681.799,0,0,1,0.25,2,9,0.0,1.0,6,45.0,20.0,9,0.451,1.0,683.018,0.13,1,2020-06-29 12:33:16.000,140,2020-06-29 12:44:37.799,0.25,-90,0,0,-90,1
7560,80,0,906.482,0,90,1,0.25,2,3,0.0,1.0,12,45.0,20.0,3,0.526,0.0,908.128,0.11,1,2020-06-30 12:13:47.000,110,2020-06-30 12:28:53.482,0.25,90,-180,90,0,1
7561,81,0,912.598,0,90,1,0.25,2,3,0.0,1.0,12,45.0,20.0,3,0.488,0.0,914.613,0.11,1,2020-06-30 12:13:47.000,110,2020-06-30 12:28:59.598,0.25,90,-180,90,0,1
7562,82,0,930.195,0,90,1,0.25,2,3,0.0,1.0,12,45.0,20.0,3,0.601,0.0,932.133,0.11,1,2020-06-30 12:13:47.000,110,2020-06-30 12:29:17.195,0.25,90,-180,90,0,1
7563,83,0,935.694,0,90,1,0.25,2,9,0.0,1.0,6,45.0,20.0,9,0.451,1.0,937.162,0.13,1,2020-06-30 12:13:47.000,110,2020-06-30 12:29:22.694,0.25,-90,0,-90,-180,1
7564,84,0,945.06,0,90,1,0.25,2,9,0.0,1.0,6,45.0,20.0,9,0.564,1.0,946.029,0.13,1,2020-06-30 12:13:47.000,110,2020-06-30 12:29:32.060,0.25,-90,0,-90,-180,1
7565,85,0,957.962,0,90,1,0.25,2,9,0.0,1.0,6,45.0,20.0,9,0.526,1.0,961.567,0.13,1,2020-06-30 12:13:47.000,110,2020-06-30 12:29:44.962,0.25,-90,0,-90,-180,1
7566,86,0,966.855,0,90,1,0.25,2,9,0.0,1.0,6,45.0,20.0,9,0.601,1.0,967.883,0.13,1,2020-06-30 12:13:47.000,110,2020-06-30 12:29:53.855,0.25,-90,0,-90,-180,1
7567,87,0,974.503,0,90,1,0.25,2,9,0.0,1.0,6,45.0,20.0,9,0.564,1.0,975.437,0.13,1,2020-06-30 12:13:47.000,110,2020-06-30 12:30:01.503,0.25,-90,0,-90,-180,1
7568,88,0,982.995,0,90,1,0.25,2,9,0.0,1.0,6,45.0,20.0,9,0.451,1.0,984.036,0.13,1,2020-06-30 12:13:47.000,110,2020-06-30 12:30:09.995,0.25,-90,0,-90,-180,1
7569,89,0,1000.42,0,90,1,0.25,2,9,0.0,1.0,6,45.0,20.0,9,0.526,0.0,1002.269,0.0,0,2020-06-30 12:13:47.000,110,2020-06-30 12:30:27.420,0.25,90,0,-90,0,1
7625,65,0,824.172,0,-90,1,0.25,2,9,0.0,1.0,6,45.0,20.0,9,0.526,0.0,826.625,0.0,0,2020-06-30 17:19:34.000,232,2020-06-30 17:33:18.172,0.25,90,0,90,-180,1
7626,67,0,852.284,0,-90,1,0.25,2,9,0.0,1.0,12,45.0,20.0,9,0.488,0.0,855.2760000000002,0.0,0,2020-06-30 17:19:34.000,232,2020-06-30 17:33:46.284,0.25,90,-180,-90,-180,1
7627,68,0,861.7130000000002,0,-90,1,0.25,2,3,0.0,1.0,12,45.0,20.0,3,0.601,0.0,863.2230000000002,0.12,1,2020-06-30 17:19:34.000,232,2020-06-30 17:33:55.713,0.25,90,-180,-90,-180,1
7628,69,0,868.1460000000002,0,-90,1,0.25,2,9,0.0,1.0,6,45.0,20.0,9,0.564,1.0,869.57,0.13,1,2020-06-30 17:19:34.000,232,2020-06-30 17:34:02.146,0.25,-90,0,90,0,1
7629,70,0,874.72,0,-90,1,0.25,2,3,0.0,1.0,12,45.0,20.0,3,0.451,0.0,876.128,0.12,1,2020-06-30 17:19:34.000,232,2020-06-30 17:34:08.720,0.25,90,-180,-90,-180,1
7630,71,0,882.555,0,-90,1,0.25,2,3,0.0,1.0,12,45.0,20.0,3,0.451,0.0,883.962,0.12,1,2020-06-30 17:19:34.000,232,2020-06-30 17:34:16.555,0.25,90,-180,-90,-180,1
7631,72,0,888.095,0,-90,1,0.25,2,9,0.0,1.0,6,45.0,20.0,9,0.564,1.0,889.3660000000001,0.13,1,2020-06-30 17:19:34.000,232,2020-06-30 17:34:22.095,0.25,-90,0,90,0,1
7632,73,0,895.04,0,-90,1,0.25,2,9,0.0,1.0,6,45.0,20.0,9,0.601,1.0,896.2589999999999,0.13,1,2020-06-30 17:19:34.000,232,2020-06-30 17:34:29.040,0.25,-90,0,90,0,1
7633,74,0,903.624,0,-90,1,0.25,2,3,0.0,1.0,12,45.0,20.0,3,0.488,0.0,905.223,0.12,1,2020-06-30 17:19:34.000,232,2020-06-30 17:34:37.624,0.25,90,-180,-90,-180,1
7634,75,0,910.35,0,-90,1,0.25,2,3,0.0,1.0,12,45.0,20.0,3,0.526,0.0,911.283,0.12,1,2020-06-30 17:19:34.000,232,2020-06-30 17:34:44.350,0.25,90,-180,-90,-180,1
7648,17,0,280.221,0,180,1,0.25,2,3,0.0,1.0,12,45.0,20.0,3,0.526,0.0,281.546,0.12,1,2020-07-01 11:33:34.000,267,2020-07-01 11:38:14.221,0.25,90,-180,0,-90,1
7649,18,0,285.916,0,180,1,0.25,2,3,0.0,1.0,12,45.0,20.0,3,0.488,0.0,287.886,0.12,1,2020-07-01 11:33:34.000,267,2020-07-01 11:38:19.916,0.25,90,-180,0,-90,1
7650,19,0,292.199,0,180,1,0.25,2,3,0.0,1.0,12,45.0,20.0,3,0.601,0.0,293.928,0.12,1,2020-07-01 11:33:34.000,267,2020-07-01 11:38:26.199,0.25,90,-180,0,-90,1
7651,20,0,298.053,0,180,1,0.25,2,3,0.0,1.0,12,45.0,20.0,3,0.488,0.0,299.806,0.12,1,2020-07-01 11:33:34.000,267,2020-07-01 11:38:32.053,0.25,90,-180,0,-90,1
7652,21,0,320.11,0,180,1,0.25,2,9,0.0,1.0,6,45.0,20.0,9,0.564,0.0,322.125,0.0,0,2020-07-01 11:33:34.000,267,2020-07-01 11:38:54.110,0.25,90,0,-180,-90,1
7653,24,0,403.168,0,180,1,0.25,2,9,0.0,1.0,6,45.0,20.0,9,0.526,1.0,404.395,0.13,1,2020-07-01 11:33:34.000,267,2020-07-01 11:40:17.168,0.25,-90,0,-180,90,1
7654,25,0,421.016,0,180,1,0.25,2,9,0.0,1.0,6,45.0,20.0,9,0.451,1.0,424.67,0.13,1,2020-07-01 11:33:34.000,267,2020-07-01 11:40:35.016,0.25,-90,0,-180,90,1
7655,26,0,434.352,0,180,1,0.25,2,9,0.0,1.0,6,45.0,20.0,9,0.601,1.0,435.648,0.13,1,2020-07-01 11:33:34.000,267,2020-07-01 11:40:48.352,0.25,-90,0,-180,90,1
7656,27,0,458.8730000000001,0,180,1,0.25,2,3,0.0,1.0,12,45.0,20.0,3,0.564,0.0,460.17800000000005,0.12,1,2020-07-01 11:33:34.000,267,2020-07-01 11:41:12.873,0.25,90,-180,0,-90,1
7657,28,0,483.42800000000005,0,180,1,0.25,2,3,0.0,1.0,12,45.0,20.0,3,0.451,1.0,485.281,0.0,0,2020-07-01 11:33:34.000,267,2020-07-01 11:41:37.428,0.25,-90,-180,0,90,1
7670,13,0,365.255,0,-90,1,0.25,2,9,0.0,1.0,6,45.0,20.0,9,0.451,1.0,368.962,0.13,1,2020-07-01 17:00:43.000,238,2020-07-01 17:06:48.255,0.25,-90,0,90,0,1
7671,14,0,379.611,0,-90,1,0.25,2,9,0.0,1.0,6,45.0,20.0,9,0.526,0.0,382.236,0.0,0,2020-07-01 17:00:43.000,238,2020-07-01 17:07:02.611,0.25,90,0,90,-180,1
7673,17,0,435.354,0,-90,1,0.25,2,3,0.0,1.0,12,45.0,20.0,3,0.488,0.0,436.781,0.12,1,2020-07-01 17:00:43.000,238,2020-07-01 17:07:58.354,0.25,90,-180,-90,-180,1
7674,18,0,451.32,0,-90,1,0.25,2,9,0.0,1.0,6,45.0,20.0,9,0.451,1.0,454.423,0.13,1,2020-07-01 17:00:43.000,238,2020-07-01 17:08:14.320,0.25,-90,0,90,0,1
7675,19,0,473.917,0,-90,1,0.25,2,9,0.0,1.0,6,45.0,20.0,9,0.601,1.0,475.764,0.13,1,2020-07-01 17:00:43.000,238,2020-07-01 17:08:36.917,0.25,-90,0,90,0,1
7676,20,0,481.318,0,-90,1,0.25,2,9,0.0,1.0,6,45.0,20.0,9,0.564,1.0,483.027,0.13,1,2020-07-01 17:00:43.000,238,2020-07-01 17:08:44.318,0.25,-90,0,90,0,1
7677,21,0,499.99300000000005,0,-90,1,0.25,2,9,0.0,1.0,6,45.0,20.0,9,0.526,0.0,501.30800000000005,0.0,0,2020-07-01 17:00:43.000,238,2020-07-01 17:09:02.993,0.25,90,0,90,-180,1
7678,24,0,570.048,0,-90,1,0.25,2,9,0.0,1.0,6,45.0,20.0,9,0.488,0.0,571.734,0.0,0,2020-07-01 17:00:43.000,238,2020-07-01 17:10:13.048,0.25,90,0,90,-180,1
7679,26,0,594.136,0,-90,1,0.25,2,9,0.0,1.0,6,45.0,20.0,9,0.526,0.0,596.092,0.0,0,2020-07-01 17:00:43.000,238,2020-07-01 17:10:37.136,0.25,90,0,90,-180,1
7680,28,0,627.726,0,-90,1,0.25,2,9,0.0,1.0,6,45.0,20.0,9,0.601,0.0,629.72,0.0,0,2020-07-01 17:00:43.000,238,2020-07-01 17:11:10.726,0.25,90,0,90,-180,1
7701,21,0,425.33,0,90,1,0.25,2,3,0.0,1.0,12,45.0,20.0,3,0.601,0.0,427.27,0.12,1,2020-07-02 11:54:10.000,190,2020-07-02 12:01:15.330,0.25,90,-180,90,0,1
7702,22,0,464.041,0,90,1,0.25,2,9,0.0,1.0,6,45.0,20.0,9,0.488,1.0,465.691,0.13,1,2020-07-02 11:54:10.000,190,2020-07-02 12:01:54.041,0.25,-90,0,-90,-180,1
7703,23,0,486.437,0,90,1,0.25,2,9,0.0,1.0,6,45.0,20.0,9,0.451,1.0,488.453,0.13,1,2020-07-02 11:54:10.000,190,2020-07-02 12:02:16.437,0.25,-90,0,-90,-180,1
7704,24,0,574.868,0,90,1,0.25,2,3,0.0,1.0,12,45.0,20.0,3,0.564,0.0,578.986,0.12,1,2020-07-02 11:54:10.000,190,2020-07-02 12:03:44.868,0.25,90,-180,90,0,1
7705,25,0,588.472,0,90,1,0.25,2,3,0.0,1.0,12,45.0,20.0,3,0.526,0.0,592.967,0.12,1,2020-07-02 11:54:10.000,190,2020-07-02 12:03:58.472,0.25,90,-180,90,0,1
7706,26,0,596.795,0,90,1,0.25,2,3,0.0,1.0,12,45.0,20.0,3,0.451,0.0,598.34,0.12,1,2020-07-02 11:54:10.000,190,2020-07-02 12:04:06.795,0.25,90,-180,90,0,1
7707,27,0,603.336,0,90,1,0.25,2,9,0.0,1.0,6,45.0,20.0,9,0.526,1.0,605.64,0.13,1,2020-07-02 11:54:10.000,190,2020-07-02 12:04:13.336,0.25,-90,0,-90,-180,1
7708,28,0,648.533,0,90,1,0.25,2,3,0.0,1.0,12,45.0,20.0,3,0.601,0.0,650.719,0.12,1,2020-07-02 11:54:10.000,190,2020-07-02 12:04:58.533,0.25,90,-180,90,0,1
7710,30,0,730.186,0,90,1,0.25,2,9,0.0,1.0,6,45.0,20.0,9,0.564,1.0,731.565,0.13,1,2020-07-02 11:54:10.000,190,2020-07-02 12:06:20.186,0.25,-90,0,-90,-180,1
7712,32,0,809.492,0,90,1,0.25,2,3,0.0,1.0,12,45.0,20.0,3,0.488,1.0,818.685,0.0,0,2020-07-02 11:54:10.000,190,2020-07-02 12:07:39.492,0.25,-90,-180,90,-180,1
7741,29,0,429.283,1,-30,1,0.25,2,3,0.0,1.0,12,45.0,20.0,3,0.451,0.0,433.717,0.115,1,2020-07-02 20:11:31.000,174,2020-07-02 20:18:40.283,0.25,90,-180,-150,120,1
7742,30,0,448.083,0,-30,1,0.25,2,9,0.0,1.0,6,45.0,20.0,9,0.488,0.0,450.573,0.0,0,2020-07-02 20:11:31.000,174,2020-07-02 20:18:59.083,0.25,90,0,30,120,1
7743,32,0,475.55800000000005,0,-30,1,0.25,2,3,0.0,1.0,12,45.0,20.0,3,0.526,0.0,477.486,0.11,1,2020-07-02 20:11:31.000,174,2020-07-02 20:19:26.558,0.25,90,-180,-150,120,1
7744,33,0,491.794,0,-30,1,0.25,2,9,0.0,1.0,6,45.0,20.0,9,0.601,1.0,495.927,0.14,1,2020-07-02 20:11:31.000,174,2020-07-02 20:19:42.794,0.25,-90,0,30,-60,1
7745,34,0,511.687,0,-30,1,0.25,2,3,0.0,1.0,12,45.0,20.0,3,0.564,0.0,513.257,0.11,1,2020-07-02 20:11:31.000,174,2020-07-02 20:20:02.687,0.25,90,-180,-150,120,1
7746,35,0,517.029,0,-30,1,0.25,2,3,0.0,1.0,12,45.0,20.0,3,0.564,0.0,518.611,0.11,1,2020-07-02 20:11:31.000,174,2020-07-02 20:20:08.029,0.25,90,-180,-150,120,1
7747,36,0,531.318,0,-30,1,0.25,2,3,0.0,1.0,12,45.0,20.0,3,0.488,0.0,533.726,0.11,1,2020-07-02 20:11:31.000,174,2020-07-02 20:20:22.318,0.25,90,-180,-150,120,1
7748,37,0,540.054,0,-30,1,0.25,2,3,0.0,1.0,12,45.0,20.0,3,0.451,0.0,540.966,0.11,1,2020-07-02 20:11:31.000,174,2020-07-02 20:20:31.054,0.25,90,-180,-150,120,1
7750,39,0,555.038,1,-30,1,0.25,2,3,0.0,1.0,12,45.0,20.0,3,0.526,0.0,559.283,0.11,1,2020-07-02 20:11:31.000,174,2020-07-02 20:20:46.038,0.25,90,-180,-150,120,1
7751,40,0,563.539,0,-30,1,0.25,2,9,0.0,1.0,6,45.0,20.0,9,0.488,0.0,568.317,0.0,0,2020-07-02 20:11:31.000,174,2020-07-02 20:20:54.539,0.25,90,0,30,120,1
7860,35,0,513.203,0,150,1,0.25,2,9,0.0,1.0,6,45.0,20.0,9,0.564,1.0,514.571,0.13,1,2020-07-03 16:43:27.000,187,2020-07-03 16:52:00.203,0.25,-90,0,-150,120,1
7861,36,0,548.909,0,150,1,0.25,2,9,0.0,1.0,6,45.0,20.0,9,0.526,1.0,550.404,0.13,1,2020-07-03 16:43:27.000,187,2020-07-03 16:52:35.909,0.25,-90,0,-150,120,1
7862,37,0,574.935,0,150,1,0.25,2,9,0.0,1.0,6,45.0,20.0,9,0.601,0.0,578.092,0.0,0,2020-07-03 16:43:27.000,187,2020-07-03 16:53:01.935,0.25,90,0,-150,-60,1
7863,39,0,612.98,0,150,1,0.25,2,3,0.0,1.0,12,45.0,20.0,3,0.451,0.0,614.4540000000002,0.12,1,2020-07-03 16:43:27.000,187,2020-07-03 16:53:39.980,0.25,90,-180,30,-60,1
7864,40,0,618.682,0,150,1,0.25,2,3,0.0,1.0,12,45.0,20.0,3,0.526,0.0,620.3480000000002,0.12,1,2020-07-03 16:43:27.000,187,2020-07-03 16:53:45.682,0.25,90,-180,30,-60,1
7866,42,0,654.215,0,150,1,0.25,2,3,0.0,1.0,12,45.0,20.0,3,0.601,0.0,659.826,0.12,1,2020-07-03 16:43:27.000,187,2020-07-03 16:54:21.215,0.25,90,-180,30,-60,1
7867,43,0,663.352,0,150,1,0.25,2,9,0.0,1.0,6,45.0,20.0,9,0.451,1.0,664.835,0.13,1,2020-07-03 16:43:27.000,187,2020-07-03 16:54:30.352,0.25,-90,0,-150,120,1
7868,44,0,673.3560000000001,0,150,1,0.25,2,9,0.0,1.0,6,45.0,20.0,9,0.488,1.0,674.44,0.13,1,2020-07-03 16:43:27.000,187,2020-07-03 16:54:40.356,0.25,-90,0,-150,120,1
7869,45,0,694.012,0,150,1,0.25,2,9,0.0,1.0,6,45.0,20.0,9,0.601,0.0,694.914,0.0,0,2020-07-03 16:43:27.000,187,2020-07-03 16:55:01.012,0.25,90,0,-150,-60,1
7870,47,0,717.883,0,150,1,0.25,2,3,0.0,1.0,12,45.0,20.0,3,0.526,1.0,719.462,0.0,0,2020-07-03 16:43:27.000,187,2020-07-03 16:55:24.883,0.25,-90,-180,30,120,1
7878,10,0,216.997,0,0,1,0.25,2,9,0.0,1.0,6,45.0,20.0,9,0.488,1.0,218.94,0.13,1,2020-07-06 11:52:20.000,271,2020-07-06 11:55:56.997,0.25,-90,0,0,-90,1
7879,11,0,229.786,0,0,1,0.25,2,3,0.0,1.0,12,45.0,20.0,3,0.526,0.0,231.659,0.12,1,2020-07-06 11:52:20.000,271,2020-07-06 11:56:09.786,0.25,90,-180,-180,90,1
7880,12,0,250.331,0,0,1,0.25,2,9,0.0,1.0,6,45.0,20.0,9,0.601,1.0,251.974,0.13,1,2020-07-06 11:52:20.000,271,2020-07-06 11:56:30.331,0.25,-90,0,0,-90,1
7881,13,0,257.838,0,0,1,0.25,2,9,0.0,1.0,6,45.0,20.0,9,0.601,1.0,259.486,0.13,1,2020-07-06 11:52:20.000,271,2020-07-06 11:56:37.838,0.25,-90,0,0,-90,1
7882,14,0,268.821,0,0,1,0.25,2,9,0.0,1.0,6,45.0,20.0,9,0.488,0.0,271.173,0.0,0,2020-07-06 11:52:20.000,271,2020-07-06 11:56:48.821,0.25,90,0,0,90,1
7883,16,0,296.931,0,0,1,0.25,2,9,0.0,1.0,6,45.0,20.0,9,0.451,1.0,298.755,0.13,1,2020-07-06 11:52:20.000,271,2020-07-06 11:57:16.931,0.25,-90,0,0,-90,1
7884,17,0,347.037,0,0,1,0.25,2,9,0.0,1.0,6,45.0,20.0,9,0.564,1.0,349.3180000000001,0.13,1,2020-07-06 11:52:20.000,271,2020-07-06 11:58:07.037,0.25,-90,0,0,-90,1
7885,18,0,351.6880000000001,0,0,1,0.25,2,3,0.0,1.0,12,45.0,20.0,3,0.526,0.0,353.0780000000001,0.12,1,2020-07-06 11:52:20.000,271,2020-07-06 11:58:11.688,0.25,90,-180,-180,90,1
7886,19,0,363.575,0,0,1,0.25,2,3,0.0,1.0,12,45.0,20.0,3,0.601,0.0,365.448,0.12,1,2020-07-06 11:52:20.000,271,2020-07-06 11:58:23.575,0.25,90,-180,-180,90,1
7887,20,0,370.489,0,0,1,0.25,2,9,0.0,1.0,6,45.0,20.0,9,0.526,0.0,371.48800000000006,0.0,0,2020-07-06 11:52:20.000,271,2020-07-06 11:58:30.489,0.25,90,0,0,90,1
7915,44,0,693.409,0,90,1,0.25,2,3,0.0,1.0,12,45.0,20.0,3,0.564,0.0,694.7080000000002,0.105,1,2020-07-06 17:05:54.000,132,2020-07-06 17:17:27.409,0.25,90,-180,90,0,1
7916,45,0,698.5980000000002,0,90,1,0.25,2,9,0.0,1.0,6,45.0,20.0,9,0.488,1.0,700.1010000000001,0.13,1,2020-07-06 17:05:54.000,132,2020-07-06 17:17:32.598,0.25,-90,0,-90,-180,1
7917,46,0,715.9069999999998,0,90,1,0.25,2,9,0.0,1.0,6,45.0,20.0,9,0.451,1.0,721.3789999999998,0.13,1,2020-07-06 17:05:54.000,132,2020-07-06 17:17:49.907,0.25,-90,0,-90,-180,1
7918,47,0,729.668,0,90,1,0.25,2,3,0.0,1.0,12,45.0,20.0,3,0.564,0.0,732.296,0.105,1,2020-07-06 17:05:54.000,132,2020-07-06 17:18:03.668,0.25,90,-180,90,0,1
7919,48,0,736.378,0,90,1,0.25,2,3,0.0,1.0,12,45.0,20.0,3,0.488,0.0,737.926,0.105,1,2020-07-06 17:05:54.000,132,2020-07-06 17:18:10.378,0.25,90,-180,90,0,1
7920,49,0,742.693,0,90,1,0.25,2,3,0.0,1.0,12,45.0,20.0,3,0.526,0.0,744.6080000000002,0.105,1,2020-07-06 17:05:54.000,132,2020-07-06 17:18:16.693,0.25,90,-180,90,0,1
7921,50,0,775.434,0,90,1,0.25,2,3,0.0,1.0,12,45.0,20.0,3,0.601,0.0,777.5980000000002,0.105,1,2020-07-06 17:05:54.000,132,2020-07-06 17:18:49.434,0.25,90,-180,90,0,1
7922,51,0,781.694,1,90,1,0.25,2,3,0.0,1.0,12,45.0,20.0,3,0.451,0.0,783.845,0.105,1,2020-07-06 17:05:54.000,132,2020-07-06 17:18:55.694,0.25,90,-180,90,0,1
7923,52,0,787.327,0,90,1,0.25,2,9,0.0,1.0,6,45.0,20.0,9,0.564,0.0,791.7289999999998,0.0,0,2020-07-06 17:05:54.000,132,2020-07-06 17:19:01.327,0.25,90,0,-90,0,1
7924,54,0,826.5980000000002,0,90,1,0.25,2,9,0.0,1.0,6,45.0,20.0,9,0.488,0.0,829.414,0.0,0,2020-07-06 17:05:54.000,132,2020-07-06 17:19:40.598,0.25,90,0,-90,0,1
8042,33,0,521.756,0,30,1,0.25,2,3,0.0,1.0,12,45.0,20.0,3,0.526,0.0,524.563,0.125,1,2020-07-07 17:10:14.000,234,2020-07-07 17:18:55.756,0.25,90,-180,150,60,1
8043,34,0,528.822,0,30,1,0.25,2,9,0.0,1.0,6,45.0,20.0,9,0.488,1.0,530.408,0.125,1,2020-07-07 17:10:14.000,234,2020-07-07 17:19:02.822,0.25,-90,0,-30,-120,1
8044,35,0,556.193,0,30,1,0.25,2,3,0.0,1.0,12,45.0,20.0,3,0.564,0.0,557.981,0.125,1,2020-07-07 17:10:14.000,234,2020-07-07 17:19:30.193,0.25,90,-180,150,60,1
8045,36,0,571.961,0,30,1,0.25,2,9,0.0,1.0,6,45.0,20.0,9,0.488,1.0,574.264,0.125,1,2020-07-07 17:10:14.000,234,2020-07-07 17:19:45.961,0.25,-90,0,-30,-120,1
8046,37,0,610.639,0,30,1,0.25,2,3,0.0,1.0,12,45.0,20.0,3,0.451,1.0,612.971,0.0,0,2020-07-07 17:10:14.000,234,2020-07-07 17:20:24.639,0.25,-90,-180,150,-120,1
8047,39,0,634.164,0,30,1,0.25,2,9,0.0,1.0,6,45.0,20.0,9,0.526,1.0,635.581,0.125,1,2020-07-07 17:10:14.000,234,2020-07-07 17:20:48.164,0.25,-90,0,-30,-120,1
8048,40,0,653.6519999999998,0,30,1,0.25,2,3,0.0,1.0,12,45.0,20.0,3,0.564,0.0,655.556,0.125,1,2020-07-07 17:10:14.000,234,2020-07-07 17:21:07.652,0.25,90,-180,150,60,1
8049,41,0,660.3330000000002,0,30,1,0.25,2,3,0.0,1.0,12,45.0,20.0,3,0.601,1.0,661.56,0.0,0,2020-07-07 17:10:14.000,234,2020-07-07 17:21:14.333,0.25,-90,-180,150,-120,1
8050,43,0,672.837,0,30,1,0.25,2,9,0.0,1.0,6,45.0,20.0,9,0.564,1.0,673.803,0.12,1,2020-07-07 17:10:14.000,234,2020-07-07 17:21:26.837,0.25,-90,0,-30,-120,1
8051,44,0,679.7860000000002,0,30,1,0.25,2,3,0.0,1.0,12,45.0,20.0,3,0.488,0.0,681.788,0.13,1,2020-07-07 17:10:14.000,234,2020-07-07 17:21:33.786,0.25,90,-180,150,60,1
8121,84,0,1298.914,0,90,1,0.25,2,3,0.0,1.0,12,45.0,20.0,3,0.526,0.0,1301.418,0.11,1,2020-07-08 11:33:26.000,130,2020-07-08 11:55:04.914,0.25,90,-180,90,0,1
8122,85,0,1316.3729999999996,0,90,1,0.25,2,9,0.0,1.0,6,45.0,20.0,9,0.488,1.0,1318.225,0.135,1,2020-07-08 11:33:26.000,130,2020-07-08 11:55:22.373,0.25,-90,0,-90,-180,1
8123,86,0,1339.326,0,90,1,0.25,2,9,0.0,1.0,6,45.0,20.0,9,0.526,1.0,1343.267,0.135,1,2020-07-08 11:33:26.000,130,2020-07-08 11:55:45.326,0.25,-90,0,-90,-180,1
8124,87,0,1350.3529999999996,0,90,1,0.25,2,3,0.0,1.0,12,45.0,20.0,3,0.451,0.0,1351.794,0.11,1,2020-07-08 11:33:26.000,130,2020-07-08 11:55:56.353,0.25,90,-180,90,0,1
8125,88,0,1364.5970000000002,0,90,1,0.25,2,9,0.0,1.0,6,45.0,20.0,9,0.564,1.0,1365.591,0.135,1,2020-07-08 11:33:26.000,130,2020-07-08 11:56:10.597,0.25,-90,0,-90,-180,1
8126,89,0,1372.409,0,90,1,0.25,2,3,0.0,1.0,6,45.0,20.0,3,0.601,0.0,1374.1989999999996,0.11,1,2020-07-08 11:33:26.000,130,2020-07-08 11:56:18.409,0.25,90,0,-90,0,1
8129,92,0,1407.823,0,90,1,0.25,2,3,0.0,1.0,12,45.0,20.0,3,0.601,0.0,1409.754,0.11,1,2020-07-08 11:33:26.000,130,2020-07-08 11:56:53.823,0.25,90,-180,90,0,1
8131,94,0,1440.158,0,90,1,0.25,2,9,0.0,1.0,6,45.0,20.0,9,0.564,1.0,1442.331,0.135,1,2020-07-08 11:33:26.000,130,2020-07-08 11:57:26.158,0.25,-90,0,-90,-180,1
8132,95,0,1462.996,0,90,1,0.25,2,9,0.0,1.0,6,45.0,20.0,9,0.564,1.0,1465.644,0.135,1,2020-07-08 11:33:26.000,130,2020-07-08 11:57:48.996,0.25,-90,0,-90,-180,1
8133,96,0,1483.822,0,90,1,0.25,2,9,0.0,1.0,6,45.0,20.0,9,0.526,0.0,1486.52,0.0,0,2020-07-08 11:33:26.000,130,2020-07-08 11:58:09.822,0.25,90,0,-90,0,1
8198,85,0,1384.253,0,-120,1,0.25,2,3,0.0,1.0,12,45.0,20.0,3,0.601,0.0,1385.558,0.05,1,2020-07-08 16:46:31.000,235,2020-07-08 17:09:35.253,0.25,90,-180,-60,-150,1
8199,86,0,1398.168,0,-120,1,0.25,2,9,0.0,1.0,6,45.0,20.0,9,0.564,1.0,1399.539,0.2,1,2020-07-08 16:46:31.000,235,2020-07-08 17:09:49.168,0.25,-90,0,120,30,1
8200,87,0,1408.4620000000002,0,-120,1,0.25,2,3,0.0,1.0,12,45.0,20.0,3,0.488,0.0,1409.805,0.05,1,2020-07-08 16:46:31.000,235,2020-07-08 17:09:59.462,0.25,90,-180,-60,-150,1
8202,89,0,1439.461,0,-120,1,0.25,2,3,0.0,1.0,12,45.0,20.0,3,0.526,0.0,1440.6529999999998,0.05,1,2020-07-08 16:46:31.000,235,2020-07-08 17:10:30.461,0.25,90,-180,-60,-150,1
8203,90,0,1445.7,0,-120,1,0.25,2,3,0.0,1.0,12,45.0,20.0,3,0.451,0.0,1446.928,0.05,1,2020-07-08 16:46:31.000,235,2020-07-08 17:10:36.700,0.25,90,-180,-60,-150,1
8204,91,0,1479.88,0,-120,1,0.25,2,9,0.0,1.0,6,45.0,20.0,9,0.564,1.0,1483.369,0.2,1,2020-07-08 16:46:31.000,235,2020-07-08 17:11:10.880,0.25,-90,0,120,30,1
8205,92,0,1497.039,0,-120,1,0.25,2,3,0.0,1.0,12,45.0,20.0,3,0.451,0.0,1500.543,0.05,1,2020-07-08 16:46:31.000,235,2020-07-08 17:11:28.039,0.25,90,-180,-60,-150,1
8206,93,0,1504.05,0,-120,1,0.25,2,3,0.0,1.0,12,45.0,20.0,3,0.488,0.0,1505.5479999999998,0.05,1,2020-07-08 16:46:31.000,235,2020-07-08 17:11:35.050,0.25,90,-180,-60,-150,1
8207,94,0,1515.714,0,-120,1,0.25,2,3,0.0,1.0,12,45.0,20.0,3,0.526,0.0,1517.2779999999998,0.05,1,2020-07-08 16:46:31.000,235,2020-07-08 17:11:46.714,0.25,90,-180,-60,-150,1
8208,95,0,1534.966,0,-120,1,0.25,2,3,0.0,1.0,12,45.0,20.0,3,0.601,1.0,1536.38,0.0,0,2020-07-08 16:46:31.000,235,2020-07-08 17:12:05.966,0.25,-90,-180,-60,30,1
8235,31,0,797.5089999999999,0,180,1,0.25,2,9,0.0,1.0,6,45.0,20.0,9,0.488,1.0,799.677,0.15,1,2020-07-09 11:22:52.000,268,2020-07-09 11:36:09.509,0.25,-90,0,-180,90,1
8236,32,0,839.49,0,180,1,0.25,2,9,0.0,1.0,6,45.0,20.0,9,0.451,1.0,839.215,0.15,1,2020-07-09 11:22:52.000,268,2020-07-09 11:36:51.490,0.25,-90,0,-180,90,1
8237,33,0,896.699,0,180,1,0.25,2,3,0.0,1.0,6,45.0,20.0,3,0.601,1.0,898.427,0.0,0,2020-07-09 11:22:52.000,268,2020-07-09 11:37:48.699,0.25,-90,0,-180,90,1
8238,34,0,923.397,0,180,1,0.25,2,3,0.0,1.0,12,45.0,20.0,3,0.564,0.0,925.051,0.1,1,2020-07-09 11:22:52.000,268,2020-07-09 11:38:15.397,0.25,90,-180,0,-90,1
8240,36,0,955.537,0,180,1,0.25,2,9,0.0,1.0,6,45.0,20.0,9,0.488,1.0,956.99,0.15,1,2020-07-09 11:22:52.000,268,2020-07-09 11:38:47.537,0.25,-90,0,-180,90,1
8241,37,0,980.628,0,180,1,0.25,2,3,0.0,1.0,12,45.0,20.0,3,0.564,0.0,983.642,0.1,1,2020-07-09 11:22:52.000,268,2020-07-09 11:39:12.628,0.25,90,-180,0,-90,1
8242,38,0,987.473,0,180,1,0.25,2,3,0.0,1.0,12,45.0,20.0,3,0.451,0.0,989.382,0.1,1,2020-07-09 11:22:52.000,268,2020-07-09 11:39:19.473,0.25,90,-180,0,-90,1
8243,39,0,1004.48,0,180,1,0.25,2,3,0.0,1.0,12,45.0,20.0,3,0.526,0.0,1008.993,0.1,1,2020-07-09 11:22:52.000,268,2020-07-09 11:39:36.480,0.25,90,-180,0,-90,1
8244,40,0,1013.801,0,180,1,0.25,2,3,0.0,1.0,12,45.0,20.0,3,0.564,0.0,1015.862,0.1,1,2020-07-09 11:22:52.000,268,2020-07-09 11:39:45.801,0.25,90,-180,0,-90,1
