,Trial,CorrectionTrial,StartTime,CenterReward,CenterSpoutRotation,nStimReps,Duration,Modality,LED Location,LED_trial_V,LED_bgnd_V,Speaker Location,Speaker_trial_V,Speaker_bgnd_V,TargetSpout,HoldTime,Response,RespTime,ValveTime,Correct,SessionDate,SessionID,StartDateTime,StimulusTotalDuration,response_angle_world,speaker_angle_world,speaker_angle_platform,response_angle_platform,not_probe
654,1,0,18.796,0,60,1,0.25,2,3,0.0,1.0,1,48.0,20.0,3,0.763,0.0,17.476,0.15,1,2019-05-31 08:30:08.000,90,2019-05-31 08:30:26.796,0.25,90,150,90,30,1
655,2,0,26.748,1,60,1,0.25,2,9,0.0,1.0,7,48.0,20.0,9,0.951,1.0,28.216,0.15,1,2019-05-31 08:30:08.000,90,2019-05-31 08:30:34.748,0.25,-90,-30,-90,-150,1
656,3,0,29.894,1,60,1,0.25,2,9,0.0,1.0,7,48.0,20.0,9,0.701,1.0,32.986,0.15,1,2019-05-31 08:30:08.000,90,2019-05-31 08:30:37.894,0.25,-90,-30,-90,-150,1
657,4,0,34.396,0,60,1,0.25,2,9,0.0,1.0,7,48.0,20.0,9,0.888,0.0,35.50199999999999,0.0,0,2019-05-31 08:30:08.000,90,2019-05-31 08:30:42.396,0.25,90,-30,-90,30,1
658,6,0,50.256,0,60,1,0.25,2,3,0.0,1.0,1,48.0,20.0,3,0.826,0.0,50.828,0.15,1,2019-05-31 08:30:08.000,90,2019-05-31 08:30:58.256,0.25,90,150,90,30,1
659,7,0,54.735,1,60,1,0.25,2,9,0.0,1.0,7,48.0,20.0,9,0.826,1.0,54.822,0.15,1,2019-05-31 08:30:08.000,90,2019-05-31 08:31:02.735,0.25,-90,-30,-90,-150,1
660,8,0,56.621,1,60,1,0.25,2,3,0.0,1.0,1,48.0,20.0,3,0.951,0.0,58.709,0.15,1,2019-05-31 08:30:08.000,90,2019-05-31 08:31:04.621,0.25,90,150,90,30,1
661,9,0,59.968,0,60,1,0.25,2,9,0.0,1.0,7,48.0,20.0,9,0.701,1.0,61.591,0.15,1,2019-05-31 08:30:08.000,90,2019-05-31 08:31:07.968,0.25,-90,-30,-90,-150,1
662,10,0,63.026,0,60,1,0.25,2,3,0.0,1.0,1,48.0,20.0,3,0.888,0.0,64.00399999999999,0.15,1,2019-05-31 08:30:08.000,90,2019-05-31 08:31:11.026,0.25,90,150,90,30,1
663,11,0,67.531,0,60,1,0.25,2,3,0.0,1.0,1,48.0,20.0,3,0.763,1.0,67.961,0.0,0,2019-05-31 08:30:08.000,90,2019-05-31 08:31:15.531,0.25,-90,150,90,-150,1
817,1,0,28.278,0,30,1,0.25,2,3,0.0,1.0,2,48.0,20.0,3,0.763,1.0,32.519,0.0,0,2019-05-31 14:46:27.000,96,2019-05-31 14:46:55.278,0.25,-90,120,90,-120,1
818,3,0,40.049,1,30,1,0.25,2,3,0.0,1.0,2,48.0,20.0,3,0.888,0.0,40.488,0.15,1,2019-05-31 14:46:27.000,96,2019-05-31 14:47:07.049,0.25,90,120,90,60,1
819,4,0,41.877,1,30,1,0.25,2,3,0.0,1.0,2,48.0,20.0,3,0.701,0.0,42.76300000000001,0.15,1,2019-05-31 14:46:27.000,96,2019-05-31 14:47:08.877,0.25,90,120,90,60,1
820,5,0,44.32100000000001,0,30,1,0.25,2,3,0.0,1.0,2,48.0,20.0,3,0.951,1.0,47.762,0.0,0,2019-05-31 14:46:27.000,96,2019-05-31 14:47:11.321,0.25,-90,120,90,-120,1
821,7,0,70.563,1,30,1,0.25,2,3,0.0,1.0,2,48.0,20.0,3,0.826,0.0,71.232,0.15,1,2019-05-31 14:46:27.000,96,2019-05-31 14:47:37.563,0.25,90,120,90,60,1
822,8,0,72.763,0,30,1,0.25,2,3,0.0,1.0,2,48.0,20.0,3,0.826,1.0,74.068,0.0,0,2019-05-31 14:46:27.000,96,2019-05-31 14:47:39.763,0.25,-90,120,90,-120,1
823,10,0,86.756,1,30,1,0.25,2,3,0.0,1.0,2,48.0,20.0,3,0.888,0.0,87.345,0.15,1,2019-05-31 14:46:27.000,96,2019-05-31 14:47:53.756,0.25,90,120,90,60,1
824,11,0,88.73299999999998,0,30,1,0.25,2,9,0.0,1.0,8,48.0,20.0,9,0.763,0.0,91.335,0.0,0,2019-05-31 14:46:27.000,96,2019-05-31 14:47:55.733,0.25,90,-60,-90,60,1
825,13,0,100.221,0,30,1,0.25,2,9,0.0,1.0,8,48.0,20.0,9,0.951,1.0,100.737,0.15,1,2019-05-31 14:46:27.000,96,2019-05-31 14:48:07.221,0.25,-90,-60,-90,-120,1
826,14,0,102.451,0,30,1,0.25,2,9,0.0,1.0,8,48.0,20.0,9,0.701,0.0,102.906,0.0,0,2019-05-31 14:46:27.000,96,2019-05-31 14:48:09.451,0.25,90,-60,-90,60,1
1014,1,0,22.934,0,90,1,0.25,2,3,0.0,1.0,12,48.0,20.0,3,0.763,1.0,24.859,0.0,0,2019-06-03 07:19:06.000,25,2019-06-03 07:19:28.934,0.25,-90,-180,90,-180,1
1015,3,0,36.283,0,90,1,0.25,2,3,0.0,1.0,12,48.0,20.0,3,0.888,0.0,37.102,0.15,1,2019-06-03 07:19:06.000,25,2019-06-03 07:19:42.283,0.25,90,-180,90,0,1
1016,4,0,45.349,1,90,1,0.25,2,3,0.0,1.0,12,48.0,20.0,3,0.826,0.0,46.837,0.15,1,2019-06-03 07:19:06.000,25,2019-06-03 07:19:51.349,0.25,90,-180,90,0,1
1017,5,0,48.34,1,90,1,0.25,2,9,0.0,1.0,6,48.0,20.0,9,0.951,1.0,50.011,0.15,1,2019-06-03 07:19:06.000,25,2019-06-03 07:19:54.340,0.25,-90,0,-90,-180,1
1018,6,0,51.221,0,90,1,0.25,2,9,0.0,1.0,6,48.0,20.0,9,0.701,0.0,53.349,0.0,0,2019-06-03 07:19:06.000,25,2019-06-03 07:19:57.221,0.25,90,0,-90,0,1
1019,8,0,63.187,0,90,1,0.25,2,9,0.0,1.0,6,48.0,20.0,9,0.888,0.0,65.669,0.0,0,2019-06-03 07:19:06.000,25,2019-06-03 07:20:09.187,0.25,90,0,-90,0,1
1020,10,0,72.612,1,90,1,0.25,2,3,0.0,1.0,12,48.0,20.0,3,0.951,0.0,74.376,0.15,1,2019-06-03 07:19:06.000,25,2019-06-03 07:20:18.612,0.25,90,-180,90,0,1
1021,11,0,75.706,0,90,1,0.25,2,9,0.0,1.0,6,48.0,20.0,9,0.701,1.0,77.85600000000002,0.15,1,2019-06-03 07:19:06.000,25,2019-06-03 07:20:21.706,0.25,-90,0,-90,-180,1
1022,12,0,82.146,0,90,1,0.25,2,9,0.0,1.0,6,48.0,20.0,9,0.826,1.0,82.59200000000001,0.15,1,2019-06-03 07:19:06.000,25,2019-06-03 07:20:28.146,0.25,-90,0,-90,-180,1
1023,13,0,86.42399999999998,0,90,1,0.25,2,3,0.0,1.0,12,48.0,20.0,3,0.763,0.0,86.89,0.15,1,2019-06-03 07:19:06.000,25,2019-06-03 07:20:32.424,0.25,90,-180,90,0,1
1187,1,0,228.38,0,120,1,0.25,2,9,0.0,1.0,5,48.0,20.0,9,0.701,1.0,228.696,0.15,1,2019-06-03 14:19:08.000,118,2019-06-03 14:22:56.380,0.25,-90,30,-90,150,1
1188,2,0,231.145,0,120,1,0.25,2,9,0.0,1.0,5,48.0,20.0,9,0.763,1.0,231.873,0.15,1,2019-06-03 14:19:08.000,118,2019-06-03 14:22:59.145,0.25,-90,30,-90,150,1
1189,3,0,234.373,0,120,1,0.25,2,9,0.0,1.0,5,48.0,20.0,9,0.951,0.0,234.673,0.0,0,2019-06-03 14:19:08.000,118,2019-06-03 14:23:02.373,0.25,90,30,-90,-30,1
1190,5,0,256.84,1,120,1,0.25,2,3,0.0,1.0,11,48.0,20.0,3,0.888,0.0,257.178,0.15,1,2019-06-03 14:19:08.000,118,2019-06-03 14:23:24.840,0.25,90,-150,90,-30,1
1191,6,0,258.94,0,120,1,0.25,2,9,0.0,1.0,5,48.0,20.0,9,0.826,0.0,260.206,0.0,0,2019-06-03 14:19:08.000,118,2019-06-03 14:23:26.940,0.25,90,30,-90,-30,1
1192,8,0,273.439,0,120,1,0.25,2,9,0.0,1.0,5,48.0,20.0,9,0.826,1.0,274.274,0.15,1,2019-06-03 14:19:08.000,118,2019-06-03 14:23:41.439,0.25,-90,30,-90,150,1
1193,9,0,279.33,0,120,1,0.25,2,3,0.0,1.0,11,48.0,20.0,3,0.888,0.0,280.139,0.15,1,2019-06-03 14:19:08.000,118,2019-06-03 14:23:47.330,0.25,90,-150,90,-30,1
1194,10,0,283.288,0,120,1,0.25,2,9,0.0,1.0,5,48.0,20.0,9,0.951,0.0,283.621,0.0,0,2019-06-03 14:19:08.000,118,2019-06-03 14:23:51.288,0.25,90,30,-90,-30,1
1195,12,0,297.08,0,120,1,0.25,2,3,0.0,1.0,11,48.0,20.0,3,0.701,0.0,297.443,0.15,1,2019-06-03 14:19:08.000,118,2019-06-03 14:24:05.080,0.25,90,-150,90,-30,1
1196,13,0,301.994,0,120,1,0.25,2,9,0.0,1.0,5,48.0,20.0,9,0.763,1.0,302.35,0.15,1,2019-06-03 14:19:08.000,118,2019-06-03 14:24:09.994,0.25,-90,30,-90,150,1
1323,1,0,32.738,0,150,1,0.25,2,9,0.0,1.0,4,48.0,20.0,9,0.826,0.0,35.385,0.0,0,2019-06-04 07:19:19.000,38,2019-06-04 07:19:51.738,0.25,90,60,-90,-60,1
1324,3,0,45.31,1,150,1,0.25,2,9,0.0,1.0,4,48.0,20.0,9,0.888,1.0,45.51600000000001,0.15,1,2019-06-04 07:19:19.000,38,2019-06-04 07:20:04.310,0.25,-90,60,-90,120,1
1325,4,0,51.044,1,150,1,0.25,2,3,0.0,1.0,10,48.0,20.0,3,0.951,0.0,52.369,0.15,1,2019-06-04 07:19:19.000,38,2019-06-04 07:20:10.044,0.25,90,-120,90,-60,1
1326,5,0,53.859,1,150,1,0.25,2,3,0.0,1.0,10,48.0,20.0,3,0.763,0.0,55.449,0.15,1,2019-06-04 07:19:19.000,38,2019-06-04 07:20:12.859,0.25,90,-120,90,-60,1
1327,6,0,57.199,1,150,1,0.25,2,3,0.0,1.0,10,48.0,20.0,3,0.701,0.0,58.738,0.15,1,2019-06-04 07:19:19.000,38,2019-06-04 07:20:16.199,0.25,90,-120,90,-60,1
1328,7,0,60.508,0,150,1,0.25,2,3,0.0,1.0,10,48.0,20.0,3,0.826,1.0,62.176,0.0,0,2019-06-04 07:19:19.000,38,2019-06-04 07:20:19.508,0.25,-90,-120,90,120,1
1329,9,0,69.533,1,150,1,0.25,2,3,0.0,1.0,10,48.0,20.0,3,0.701,0.0,71.658,0.15,1,2019-06-04 07:19:19.000,38,2019-06-04 07:20:28.533,0.25,90,-120,90,-60,1
1330,10,0,73.24600000000002,1,150,1,0.25,2,3,0.0,1.0,10,48.0,20.0,3,0.888,0.0,75.52199999999998,0.15,1,2019-06-04 07:19:19.000,38,2019-06-04 07:20:32.246,0.25,90,-120,90,-60,1
1331,11,0,77.155,0,150,1,0.25,2,9,0.0,1.0,4,48.0,20.0,9,0.763,0.0,79.145,0.0,0,2019-06-04 07:19:19.000,38,2019-06-04 07:20:36.155,0.25,90,60,-90,-60,1
1332,14,0,94.709,0,150,1,0.25,2,3,0.0,1.0,10,48.0,20.0,3,0.951,1.0,96.252,0.0,0,2019-06-04 07:19:19.000,38,2019-06-04 07:20:53.709,0.25,-90,-120,90,120,1
1487,1,0,54.67100000000001,0,180,1,0.25,2,3,0.0,1.0,9,48.0,20.0,3,0.951,0.0,55.169,0.15,1,2019-06-04 14:13:13.000,163,2019-06-04 14:14:07.671,0.25,90,-90,90,-90,1
1488,2,0,60.19600000000001,0,180,1,0.25,2,9,0.0,1.0,3,48.0,20.0,9,0.826,0.0,63.191,0.0,0,2019-06-04 14:13:13.000,163,2019-06-04 14:14:13.196,0.25,90,90,-90,-90,1
1489,4,0,71.617,0,180,1,0.25,2,9,0.0,1.0,3,48.0,20.0,9,0.888,0.0,72.535,0.0,0,2019-06-04 14:13:13.000,163,2019-06-04 14:14:24.617,0.25,90,90,-90,-90,1
1490,6,0,81.255,1,180,1,0.25,2,3,0.0,1.0,9,48.0,20.0,3,0.763,0.0,81.822,0.15,1,2019-06-04 14:13:13.000,163,2019-06-04 14:14:34.255,0.25,90,-90,90,-90,1
1491,7,0,84.93299999999998,1,180,1,0.25,2,3,0.0,1.0,9,48.0,20.0,3,0.701,0.0,86.09200000000001,0.15,1,2019-06-04 14:13:13.000,163,2019-06-04 14:14:37.933,0.25,90,-90,90,-90,1
1492,8,0,87.559,0,180,1,0.25,2,3,0.0,1.0,9,48.0,20.0,3,0.701,1.0,89.7,0.0,0,2019-06-04 14:13:13.000,163,2019-06-04 14:14:40.559,0.25,-90,-90,90,90,1
1493,10,0,96.438,0,180,1,0.25,2,3,0.0,1.0,9,48.0,20.0,3,0.951,1.0,98.904,0.0,0,2019-06-04 14:13:13.000,163,2019-06-04 14:14:49.438,0.25,-90,-90,90,90,1
1494,12,0,112.672,0,180,1,0.25,2,9,0.0,1.0,3,48.0,20.0,9,0.763,1.0,113.842,0.15,1,2019-06-04 14:13:13.000,163,2019-06-04 14:15:05.672,0.25,-90,90,-90,90,1
1495,13,0,118.857,1,180,1,0.25,2,9,0.0,1.0,3,48.0,20.0,9,0.888,1.0,119.276,0.15,1,2019-06-04 14:13:13.000,163,2019-06-04 14:15:11.857,0.25,-90,90,-90,90,1
1496,14,0,120.891,0,180,1,0.25,2,3,0.0,1.0,9,48.0,20.0,3,0.826,1.0,123.117,0.0,0,2019-06-04 14:13:13.000,163,2019-06-04 14:15:13.891,0.25,-90,-90,90,90,1
1649,1,0,26.132,1,-150,1,0.25,2,9,0.0,1.0,2,48.0,20.0,9,0.826,1.0,26.735,0.075,1,2019-06-05 08:43:28.000,131,2019-06-05 08:43:54.132,0.25,-90,120,-90,60,1
1650,2,0,30.676,1,-150,1,0.25,2,3,0.0,1.0,8,48.0,20.0,3,0.763,0.0,32.193000000000005,0.15,1,2019-06-05 08:43:28.000,131,2019-06-05 08:43:58.676,0.25,90,-60,90,-120,1
1651,3,0,33.855,0,-150,1,0.25,2,9,0.0,1.0,2,48.0,20.0,9,0.951,0.0,36.375,0.0,0,2019-06-05 08:43:28.000,131,2019-06-05 08:44:01.855,0.25,90,120,-90,-120,1
1652,5,0,49.137,1,-150,1,0.25,2,3,0.0,1.0,8,48.0,20.0,3,0.888,0.0,51.125,0.15,1,2019-06-05 08:43:28.000,131,2019-06-05 08:44:17.137,0.25,90,-60,90,-120,1
1653,6,0,52.651,0,-150,1,0.25,2,9,0.0,1.0,2,48.0,20.0,9,0.701,0.0,55.058,0.0,0,2019-06-05 08:43:28.000,131,2019-06-05 08:44:20.651,0.25,90,120,-90,-120,1
1654,8,0,61.875,0,-150,1,0.25,2,9,0.0,1.0,2,48.0,20.0,9,0.701,0.0,63.847,0.0,0,2019-06-05 08:43:28.000,131,2019-06-05 08:44:29.875,0.25,90,120,-90,-120,1
1655,10,0,70.34,0,-150,1,0.25,2,9,0.0,1.0,2,48.0,20.0,9,0.951,0.0,72.282,0.0,0,2019-06-05 08:43:28.000,131,2019-06-05 08:44:38.340,0.25,90,120,-90,-120,1
1656,12,0,86.57799999999997,1,-150,1,0.25,2,3,0.0,1.0,8,48.0,20.0,3,0.826,0.0,87.736,0.15,1,2019-06-05 08:43:28.000,131,2019-06-05 08:44:54.578,0.25,90,-60,90,-120,1
1657,13,0,89.333,0,-150,1,0.25,2,3,0.0,1.0,8,48.0,20.0,3,0.888,1.0,90.811,0.0,0,2019-06-05 08:43:28.000,131,2019-06-05 08:44:57.333,0.25,-90,-60,90,60,1
1658,16,0,110.087,0,-150,1,0.25,2,9,0.0,1.0,2,48.0,20.0,9,0.763,1.0,110.495,0.15,1,2019-06-05 08:43:28.000,131,2019-06-05 08:45:18.087,0.25,-90,120,-90,60,1
1910,1,0,15.501,0,-120,1,0.25,2,9,0.0,1.0,1,48.0,20.0,9,0.826,0.0,16.119,0.0,0,2019-06-06 08:40:23.000,188,2019-06-06 08:40:38.501,0.25,90,150,-90,-150,1
1911,4,0,35.94,0,-120,1,0.25,2,9,0.0,1.0,1,48.0,20.0,9,0.763,0.0,37.709,0.0,0,2019-06-06 08:40:23.000,188,2019-06-06 08:40:58.940,0.25,90,150,-90,-150,1
1912,6,0,47.752,0,-120,1,0.25,2,9,0.0,1.0,1,48.0,20.0,9,0.951,0.0,49.633,0.0,0,2019-06-06 08:40:23.000,188,2019-06-06 08:41:10.752,0.25,90,150,-90,-150,1
1913,8,0,60.03,0,-120,1,0.25,2,3,0.0,1.0,7,48.0,20.0,3,0.701,1.0,60.428,0.0,0,2019-06-06 08:40:23.000,188,2019-06-06 08:41:23.030,0.25,-90,-30,90,30,1
1914,11,0,80.528,0,-120,1,0.25,2,9,0.0,1.0,1,48.0,20.0,9,0.888,1.0,80.884,0.15,1,2019-06-06 08:40:23.000,188,2019-06-06 08:41:43.528,0.25,-90,150,-90,30,1
1915,12,0,84.664,0,-120,1,0.25,2,9,0.0,1.0,1,48.0,20.0,9,0.826,1.0,84.97399999999998,0.15,1,2019-06-06 08:40:23.000,188,2019-06-06 08:41:47.664,0.25,-90,150,-90,30,1
1916,13,0,88.24600000000002,0,-120,1,0.25,2,3,0.0,1.0,7,48.0,20.0,3,0.701,0.0,89.306,0.15,1,2019-06-06 08:40:23.000,188,2019-06-06 08:41:51.246,0.25,90,-30,90,-150,1
1917,14,0,94.278,0,-120,1,0.25,2,3,0.0,1.0,7,48.0,20.0,3,0.763,0.0,94.469,0.15,1,2019-06-06 08:40:23.000,188,2019-06-06 08:41:57.278,0.25,90,-30,90,-150,1
1918,15,0,101.677,0,-120,1,0.25,2,9,0.0,1.0,1,48.0,20.0,9,0.888,1.0,102.482,0.15,1,2019-06-06 08:40:23.000,188,2019-06-06 08:42:04.677,0.25,-90,150,-90,30,1
1919,16,0,109.991,1,-120,1,0.25,2,3,0.0,1.0,7,48.0,20.0,3,0.951,0.0,110.562,0.15,1,2019-06-06 08:40:23.000,188,2019-06-06 08:42:12.991,0.25,90,-30,90,-150,1
2045,1,0,197.805,0,-90,1,0.25,2,3,0.0,1.0,6,48.0,20.0,3,0.951,0.0,198.36,0.075,1,2019-06-06 14:06:02.000,13,2019-06-06 14:09:19.805,0.25,90,0,90,-180,1
2046,2,0,217.173,0,-90,1,0.25,2,9,0.0,1.0,12,48.0,20.0,9,0.701,1.0,219.242,0.15,1,2019-06-06 14:06:02.000,13,2019-06-06 14:09:39.173,0.25,-90,-180,-90,0,1
2047,3,0,234.715,1,-90,1,0.25,2,3,0.0,1.0,6,48.0,20.0,3,0.763,0.0,235.43400000000003,0.15,1,2019-06-06 14:06:02.000,13,2019-06-06 14:09:56.715,0.25,90,0,90,-180,1
2048,4,0,238.919,0,-90,1,0.25,2,9,0.0,1.0,12,48.0,20.0,9,0.888,1.0,239.243,0.15,1,2019-06-06 14:06:02.000,13,2019-06-06 14:10:00.919,0.25,-90,-180,-90,0,1
2049,5,0,242.91,1,-90,1,0.25,2,9,0.0,1.0,12,48.0,20.0,9,0.826,1.0,243.819,0.15,1,2019-06-06 14:06:02.000,13,2019-06-06 14:10:04.910,0.25,-90,-180,-90,0,1
2050,6,0,247.555,0,-90,1,0.25,2,3,0.0,1.0,6,48.0,20.0,3,0.826,0.0,249.568,0.15,1,2019-06-06 14:06:02.000,13,2019-06-06 14:10:09.555,0.25,90,0,90,-180,1
2051,7,0,252.52,1,-90,1,0.25,2,9,0.0,1.0,12,48.0,20.0,9,0.701,1.0,253.117,0.15,1,2019-06-06 14:06:02.000,13,2019-06-06 14:10:14.520,0.25,-90,-180,-90,0,1
2052,8,0,254.843,0,-90,1,0.25,2,3,0.0,1.0,6,48.0,20.0,3,0.763,1.0,256.754,0.0,0,2019-06-06 14:06:02.000,13,2019-06-06 14:10:16.843,0.25,-90,0,90,0,1
2053,11,0,268.926,0,-90,1,0.25,2,9,0.0,1.0,12,48.0,20.0,9,0.888,0.0,270.8,0.0,0,2019-06-06 14:06:02.000,13,2019-06-06 14:10:30.926,0.25,90,-180,-90,-180,1
2054,13,0,285.785,0,-90,1,0.25,2,3,0.0,1.0,6,48.0,20.0,3,0.951,1.0,286.516,0.0,0,2019-06-06 14:06:02.000,13,2019-06-06 14:10:47.785,0.25,-90,0,90,0,1
2193,1,0,40.012,1,-60,1,0.25,2,3,0.0,1.0,5,48.0,20.0,3,0.701,0.0,40.832,0.15,1,2019-06-07 08:42:32.000,184,2019-06-07 08:43:12.012,0.25,90,30,90,150,1
2194,2,0,48.808,0,-60,1,0.25,2,3,0.0,1.0,5,48.0,20.0,3,0.763,1.0,50.512,0.0,0,2019-06-07 08:42:32.000,184,2019-06-07 08:43:20.808,0.25,-90,30,90,-30,1
2195,4,0,65.406,0,-60,1,0.25,2,9,0.0,1.0,11,48.0,20.0,9,0.951,0.0,65.993,0.0,0,2019-06-07 08:42:32.000,184,2019-06-07 08:43:37.406,0.25,90,-150,-90,150,1
2196,6,0,74.123,0,-60,1,0.25,2,3,0.0,1.0,5,48.0,20.0,3,0.826,1.0,75.367,0.0,0,2019-06-07 08:42:32.000,184,2019-06-07 08:43:46.123,0.25,-90,30,90,-30,1
2197,8,0,86.57700000000001,0,-60,1,0.25,2,9,0.0,1.0,11,48.0,20.0,9,0.888,1.0,87.12299999999998,0.15,1,2019-06-07 08:42:32.000,184,2019-06-07 08:43:58.577,0.25,-90,-150,-90,-30,1
2198,9,0,90.565,0,-60,1,0.25,2,3,0.0,1.0,5,48.0,20.0,3,0.701,0.0,90.761,0.15,1,2019-06-07 08:42:32.000,184,2019-06-07 08:44:02.565,0.25,90,30,90,150,1
2199,10,0,95.67,1,-60,1,0.25,2,3,0.0,1.0,5,48.0,20.0,3,0.763,0.0,96.248,0.15,1,2019-06-07 08:42:32.000,184,2019-06-07 08:44:07.670,0.25,90,30,90,150,1
2200,11,0,97.817,1,-60,1,0.25,2,9,0.0,1.0,11,48.0,20.0,9,0.951,1.0,99.777,0.15,1,2019-06-07 08:42:32.000,184,2019-06-07 08:44:09.817,0.25,-90,-150,-90,-30,1
2201,12,0,101.439,0,-60,1,0.25,2,3,0.0,1.0,5,48.0,20.0,3,0.888,0.0,103.191,0.15,1,2019-06-07 08:42:32.000,184,2019-06-07 08:44:13.439,0.25,90,30,90,150,1
2202,13,0,107.963,0,-60,1,0.25,2,9,0.0,1.0,11,48.0,20.0,9,0.826,0.0,108.893,0.0,0,2019-06-07 08:42:32.000,184,2019-06-07 08:44:19.963,0.25,90,-150,-90,150,1
2309,1,0,153.58700000000005,1,-30,1,0.25,2,9,0.0,1.0,10,48.0,20.0,9,0.826,1.0,154.778,0.15,1,2019-06-07 14:01:49.000,193,2019-06-07 14:04:22.587,0.25,-90,-120,-90,-60,1
2310,2,0,157.472,1,-30,1,0.25,2,3,0.0,1.0,4,48.0,20.0,3,0.701,0.0,158.792,0.15,1,2019-06-07 14:01:49.000,193,2019-06-07 14:04:26.472,0.25,90,60,90,120,1
2311,3,0,160.384,1,-30,1,0.25,2,9,0.0,1.0,10,48.0,20.0,9,0.951,1.0,161.173,0.15,1,2019-06-07 14:01:49.000,193,2019-06-07 14:04:29.384,0.25,-90,-120,-90,-60,1
2312,4,0,168.357,0,-30,1,0.25,2,3,0.0,1.0,4,48.0,20.0,3,0.888,0.0,169.429,0.15,1,2019-06-07 14:01:49.000,193,2019-06-07 14:04:37.357,0.25,90,60,90,120,1
2313,5,0,170.94,1,-30,1,0.25,2,9,0.0,1.0,10,48.0,20.0,9,0.763,1.0,171.205,0.15,1,2019-06-07 14:01:49.000,193,2019-06-07 14:04:39.940,0.25,-90,-120,-90,-60,1
2314,6,0,172.801,0,-30,1,0.25,2,9,0.0,1.0,10,48.0,20.0,9,0.951,1.0,174.201,0.15,1,2019-06-07 14:01:49.000,193,2019-06-07 14:04:41.801,0.25,-90,-120,-90,-60,1
2315,7,0,175.74200000000005,0,-30,1,0.25,2,3,0.0,1.0,4,48.0,20.0,3,0.826,1.0,176.003,0.0,0,2019-06-07 14:01:49.000,193,2019-06-07 14:04:44.742,0.25,-90,60,90,-60,1
2316,9,0,182.882,0,-30,1,0.25,2,3,0.0,1.0,4,48.0,20.0,3,0.763,1.0,185.204,0.0,0,2019-06-07 14:01:49.000,193,2019-06-07 14:04:51.882,0.25,-90,60,90,-60,1
2317,11,0,192.941,0,-30,1,0.25,2,9,0.0,1.0,10,48.0,20.0,9,0.888,1.0,194.74400000000003,0.15,1,2019-06-07 14:01:49.000,193,2019-06-07 14:05:01.941,0.25,-90,-120,-90,-60,1
2318,12,0,196.436,1,-30,1,0.25,2,9,0.0,1.0,10,48.0,20.0,9,0.701,1.0,196.88,0.15,1,2019-06-07 14:01:49.000,193,2019-06-07 14:05:05.436,0.25,-90,-120,-90,-60,1
2706,1,0,21.671,0,0,1,0.25,2,3,0.0,1.0,3,48.0,20.0,3,0.826,1.0,21.722,0.0,0,2019-06-11 08:36:57.000,10,2019-06-11 08:37:18.671,0.25,-90,90,90,-90,1
2707,4,0,41.135,0,0,1,0.25,2,3,0.0,1.0,3,48.0,20.0,3,0.951,0.0,42.964,0.15,1,2019-06-11 08:36:57.000,10,2019-06-11 08:37:38.135,0.25,90,90,90,90,1
2708,5,0,46.223,1,0,1,0.25,2,9,0.0,1.0,9,48.0,20.0,9,0.701,1.0,46.879,0.15,1,2019-06-11 08:36:57.000,10,2019-06-11 08:37:43.223,0.25,-90,-90,-90,-90,1
2709,6,0,48.37300000000001,0,0,1,0.25,2,9,0.0,1.0,9,48.0,20.0,9,0.763,0.0,49.83600000000001,0.0,0,2019-06-11 08:36:57.000,10,2019-06-11 08:37:45.373,0.25,90,-90,-90,90,1
2710,8,0,59.512,1,0,1,0.25,2,3,0.0,1.0,3,48.0,20.0,3,0.888,0.0,60.334,0.15,1,2019-06-11 08:36:57.000,10,2019-06-11 08:37:56.512,0.25,90,90,90,90,1
2711,9,0,61.691,0,0,1,0.25,2,3,0.0,1.0,3,48.0,20.0,3,0.763,0.0,63.86600000000001,0.15,1,2019-06-11 08:36:57.000,10,2019-06-11 08:37:58.691,0.25,90,90,90,90,1
2712,10,0,66.762,0,0,1,0.25,2,9,0.0,1.0,9,48.0,20.0,9,0.888,1.0,66.953,0.15,1,2019-06-11 08:36:57.000,10,2019-06-11 08:38:03.762,0.25,-90,-90,-90,-90,1
2713,11,0,70.86,1,0,1,0.25,2,9,0.0,1.0,9,48.0,20.0,9,0.951,1.0,70.987,0.15,1,2019-06-11 08:36:57.000,10,2019-06-11 08:38:07.860,0.25,-90,-90,-90,-90,1
2714,12,0,72.4,0,0,1,0.25,2,3,0.0,1.0,3,48.0,20.0,3,0.826,0.0,73.952,0.15,1,2019-06-11 08:36:57.000,10,2019-06-11 08:38:09.400,0.25,90,90,90,90,1
2715,13,0,77.839,1,0,1,0.25,2,9,0.0,1.0,9,48.0,20.0,9,0.701,1.0,77.943,0.15,1,2019-06-11 08:36:57.000,10,2019-06-11 08:38:14.839,0.25,-90,-90,-90,-90,1
3077,1,0,170.56099999999995,0,30,1,0.25,2,9,0.0,1.0,8,48.0,20.0,9,0.951,0.0,172.21099999999996,0.0,0,2019-06-12 13:52:25.000,199,2019-06-12 13:55:15.561,0.25,90,-60,-90,60,1
3078,3,0,181.057,0,30,1,0.25,2,9,0.0,1.0,8,48.0,20.0,9,0.701,1.0,181.283,0.15,1,2019-06-12 13:52:25.000,199,2019-06-12 13:55:26.057,0.25,-90,-60,-90,-120,1
3079,4,0,191.815,0,30,1,0.25,2,9,0.0,1.0,8,48.0,20.0,9,0.888,1.0,191.949,0.15,1,2019-06-12 13:52:25.000,199,2019-06-12 13:55:36.815,0.25,-90,-60,-90,-120,1
3080,5,0,198.80900000000003,1,30,1,0.25,2,9,0.0,1.0,8,48.0,20.0,9,0.763,1.0,199.131,0.15,1,2019-06-12 13:52:25.000,199,2019-06-12 13:55:43.809,0.25,-90,-60,-90,-120,1
3081,6,0,201.712,1,30,1,0.25,2,3,0.0,1.0,2,48.0,20.0,3,0.826,0.0,204.169,0.15,1,2019-06-12 13:52:25.000,199,2019-06-12 13:55:46.712,0.25,90,120,90,60,1
3082,7,0,205.611,1,30,1,0.25,2,9,0.0,1.0,8,48.0,20.0,9,0.888,1.0,206.883,0.15,1,2019-06-12 13:52:25.000,199,2019-06-12 13:55:50.611,0.25,-90,-60,-90,-120,1
3083,8,0,208.996,0,30,1,0.25,2,9,0.0,1.0,8,48.0,20.0,9,0.763,0.0,210.904,0.0,0,2019-06-12 13:52:25.000,199,2019-06-12 13:55:53.996,0.25,90,-60,-90,60,1
3084,10,0,221.361,0,30,1,0.25,2,3,0.0,1.0,2,48.0,20.0,3,0.826,0.0,221.661,0.15,1,2019-06-12 13:52:25.000,199,2019-06-12 13:56:06.361,0.25,90,120,90,60,1
3085,11,0,224.323,0,30,1,0.25,2,9,0.0,1.0,8,48.0,20.0,9,0.701,1.0,224.478,0.15,1,2019-06-12 13:52:25.000,199,2019-06-12 13:56:09.323,0.25,-90,-60,-90,-120,1
3086,12,0,230.498,1,30,1,0.25,2,9,0.0,1.0,8,48.0,20.0,9,0.951,1.0,230.701,0.15,1,2019-06-12 13:52:25.000,199,2019-06-12 13:56:15.498,0.25,-90,-60,-90,-120,1
3190,1,0,15.231,1,0,1,0.25,2,3,0.0,1.0,3,48.0,20.0,3,0.826,0.0,15.715,0.15,1,2019-06-13 08:28:59.000,201,2019-06-13 08:29:14.231,0.25,90,90,90,90,1
3191,2,0,23.537,0,0,1,0.25,2,9,0.0,1.0,9,48.0,20.0,9,0.763,1.0,24.654,0.15,1,2019-06-13 08:28:59.000,201,2019-06-13 08:29:22.537,0.25,-90,-90,-90,-90,1
3192,3,0,28.261,0,0,1,0.25,2,3,0.0,1.0,3,48.0,20.0,3,0.951,1.0,29.776,0.0,0,2019-06-13 08:28:59.000,201,2019-06-13 08:29:27.261,0.25,-90,90,90,-90,1
3193,5,0,40.136,0,0,1,0.25,2,9,0.0,1.0,9,48.0,20.0,9,0.888,1.0,40.756,0.15,1,2019-06-13 08:28:59.000,201,2019-06-13 08:29:39.136,0.25,-90,-90,-90,-90,1
3194,6,0,45.672,0,0,1,0.25,2,9,0.0,1.0,9,48.0,20.0,9,0.701,1.0,45.886,0.15,1,2019-06-13 08:28:59.000,201,2019-06-13 08:29:44.672,0.25,-90,-90,-90,-90,1
3195,7,0,49.828,1,0,1,0.25,2,3,0.0,1.0,3,48.0,20.0,3,0.701,0.0,49.968,0.15,1,2019-06-13 08:28:59.000,201,2019-06-13 08:29:48.828,0.25,90,90,90,90,1
3196,8,0,51.563,1,0,1,0.25,2,3,0.0,1.0,3,48.0,20.0,3,0.888,0.0,53.521,0.15,1,2019-06-13 08:28:59.000,201,2019-06-13 08:29:50.563,0.25,90,90,90,90,1
3197,9,0,54.93600000000001,0,0,1,0.25,2,3,0.0,1.0,3,48.0,20.0,3,0.826,0.0,56.482,0.15,1,2019-06-13 08:28:59.000,201,2019-06-13 08:29:53.936,0.25,90,90,90,90,1
3198,10,0,59.635,0,0,1,0.25,2,9,0.0,1.0,9,48.0,20.0,9,0.763,1.0,60.304,0.15,1,2019-06-13 08:28:59.000,201,2019-06-13 08:29:58.635,0.25,-90,-90,-90,-90,1
3199,11,0,69.02,1,0,1,0.25,2,3,0.0,1.0,3,48.0,20.0,3,0.951,0.0,68.873,0.15,1,2019-06-13 08:28:59.000,201,2019-06-13 08:30:08.020,0.25,90,90,90,90,1
3558,1,0,32.639,1,60,1,0.25,2,9,0.0,1.0,7,48.0,20.0,9,0.826,1.0,32.935,0.15,1,2019-06-14 08:49:45.000,205,2019-06-14 08:50:17.639,0.25,-90,-30,-90,-150,1
3559,2,0,35.18,0,60,1,0.25,2,9,0.0,1.0,7,48.0,20.0,9,0.888,0.0,36.396,0.0,0,2019-06-14 08:49:45.000,205,2019-06-14 08:50:20.180,0.25,90,-30,-90,30,1
3560,4,0,44.92100000000001,1,60,1,0.25,2,9,0.0,1.0,7,48.0,20.0,9,0.701,1.0,45.261,0.15,1,2019-06-14 08:49:45.000,205,2019-06-14 08:50:29.921,0.25,-90,-30,-90,-150,1
3561,5,0,46.683,0,60,1,0.25,2,3,0.0,1.0,1,48.0,20.0,3,0.763,0.0,48.762,0.15,1,2019-06-14 08:49:45.000,205,2019-06-14 08:50:31.683,0.25,90,150,90,30,1
3562,6,0,53.315,1,60,1,0.25,2,3,0.0,1.0,1,48.0,20.0,3,0.951,0.0,54.097,0.15,1,2019-06-14 08:49:45.000,205,2019-06-14 08:50:38.315,0.25,90,150,90,30,1
3563,7,0,55.515,1,60,1,0.25,2,3,0.0,1.0,1,48.0,20.0,3,0.826,0.0,57.334,0.15,1,2019-06-14 08:49:45.000,205,2019-06-14 08:50:40.515,0.25,90,150,90,30,1
3564,8,0,58.61,0,60,1,0.25,2,9,0.0,1.0,7,48.0,20.0,9,0.701,0.0,60.277,0.0,0,2019-06-14 08:49:45.000,205,2019-06-14 08:50:43.610,0.25,90,-30,-90,30,1
3565,10,0,66.863,0,60,1,0.25,2,9,0.0,1.0,7,48.0,20.0,9,0.951,1.0,68.498,0.15,1,2019-06-14 08:49:45.000,205,2019-06-14 08:50:51.863,0.25,-90,-30,-90,-150,1
3566,11,0,71.673,1,60,1,0.25,2,3,0.0,1.0,1,48.0,20.0,3,0.763,0.0,72.097,0.15,1,2019-06-14 08:49:45.000,205,2019-06-14 08:50:56.673,0.25,90,150,90,30,1
3567,12,0,73.624,0,60,1,0.25,2,9,0.0,1.0,7,48.0,20.0,9,0.888,0.0,75.567,0.0,0,2019-06-14 08:49:45.000,205,2019-06-14 08:50:58.624,0.25,90,-30,-90,30,1
3878,1,0,30.993,0,0,1,0.25,2,30,0.0,1.0,3,48.0,20.0,3,0.826,1.0,31.863000000000003,0.0,0,2019-06-24 08:42:06.000,67,2019-06-24 08:42:36.993,0.25,-90,90,90,-90,1
3879,3,0,70.066,1,0,1,0.25,2,30,0.0,1.0,3,48.0,20.0,3,0.951,1.0,73.615,0.0,0,2019-06-24 08:42:06.000,67,2019-06-24 08:43:16.066,0.25,-90,90,90,-90,1
3880,5,0,82.775,1,0,1,0.25,2,90,0.0,1.0,9,48.0,20.0,9,0.701,1.0,83.102,0.15,1,2019-06-24 08:42:06.000,67,2019-06-24 08:43:28.775,0.25,-90,-90,-90,-90,1
3881,6,0,84.569,0,0,1,0.25,2,90,0.0,1.0,9,48.0,20.0,9,0.763,0.0,86.64200000000002,0.0,0,2019-06-24 08:42:06.000,67,2019-06-24 08:43:30.569,0.25,90,-90,-90,90,1
3882,9,0,111.206,1,0,1,0.25,2,30,0.0,1.0,3,48.0,20.0,3,0.888,1.0,114.389,0.0,0,2019-06-24 08:42:06.000,67,2019-06-24 08:43:57.206,0.25,-90,90,90,-90,1
3883,12,0,132.86700000000002,1,0,1,0.25,2,30,0.0,1.0,3,48.0,20.0,3,0.888,0.0,136.009,0.15,1,2019-06-24 08:42:06.000,67,2019-06-24 08:44:18.867,0.25,90,90,90,90,1
3884,13,0,141.013,0,0,1,0.25,2,90,0.0,1.0,9,48.0,20.0,9,0.763,1.0,141.494,0.15,1,2019-06-24 08:42:06.000,67,2019-06-24 08:44:27.013,0.25,-90,-90,-90,-90,1
3885,14,0,143.209,0,0,1,0.25,2,90,0.0,1.0,9,48.0,20.0,9,0.951,1.0,143.744,0.15,1,2019-06-24 08:42:06.000,67,2019-06-24 08:44:29.209,0.25,-90,-90,-90,-90,1
3886,15,0,147.72,1,0,1,0.25,2,30,0.0,1.0,3,48.0,20.0,3,0.701,0.0,151.32399999999996,0.15,1,2019-06-24 08:42:06.000,67,2019-06-24 08:44:33.720,0.25,90,90,90,90,1
3887,16,0,156.149,1,0,1,0.25,2,90,0.0,1.0,9,48.0,20.0,9,0.826,0.0,161.787,0.0,0,2019-06-24 08:42:06.000,67,2019-06-24 08:44:42.149,0.25,90,-90,-90,90,1
4317,1,0,36.826,0,-60,1,0.25,2,3,0.0,1.0,5,48.0,20.0,3,0.763,1.0,37.487,0.0,0,2019-06-26 14:09:50.000,250,2019-06-26 14:10:26.826,0.25,-90,30,90,-30,1
4318,3,0,48.775,1,-60,1,0.25,2,3,0.0,1.0,5,48.0,20.0,3,0.888,1.0,50.958,0.0,0,2019-06-26 14:09:50.000,250,2019-06-26 14:10:38.775,0.25,-90,30,90,-30,1
4319,6,0,67.119,0,-60,1,0.25,2,3,0.0,1.0,5,48.0,20.0,3,0.701,0.0,67.997,0.15,1,2019-06-26 14:09:50.000,250,2019-06-26 14:10:57.119,0.25,90,30,90,150,1
4320,7,0,74.685,0,-60,1,0.25,2,9,0.0,1.0,11,48.0,20.0,9,0.826,1.0,75.206,0.15,1,2019-06-26 14:09:50.000,250,2019-06-26 14:11:04.685,0.25,-90,-150,-90,-30,1
4321,8,0,79.155,0,-60,1,0.25,2,9,0.0,1.0,11,48.0,20.0,9,0.888,0.0,79.813,0.0,0,2019-06-26 14:09:50.000,250,2019-06-26 14:11:09.155,0.25,90,-150,-90,150,1
4322,12,0,94.632,0,-60,1,0.25,2,9,0.0,1.0,11,48.0,20.0,9,0.826,1.0,95.236,0.15,1,2019-06-26 14:09:50.000,250,2019-06-26 14:11:24.632,0.25,-90,-150,-90,-30,1
4324,14,0,111.998,0,-60,1,0.25,2,3,0.0,1.0,5,48.0,20.0,3,0.951,0.0,112.431,0.15,1,2019-06-26 14:09:50.000,250,2019-06-26 14:11:41.998,0.25,90,30,90,150,1
4325,15,0,117.933,0,-60,1,0.25,2,9,0.0,1.0,11,48.0,20.0,9,0.888,0.0,118.619,0.0,0,2019-06-26 14:09:50.000,250,2019-06-26 14:11:47.933,0.25,90,-150,-90,150,1
4326,17,0,126.597,0,-60,1,0.25,2,3,0.0,1.0,5,48.0,20.0,3,0.763,0.0,127.169,0.15,1,2019-06-26 14:09:50.000,250,2019-06-26 14:11:56.597,0.25,90,30,90,150,1
4327,18,0,131.72899999999998,0,-60,1,0.25,2,9,0.0,1.0,11,48.0,20.0,9,0.701,1.0,132.405,0.15,1,2019-06-26 14:09:50.000,250,2019-06-26 14:12:01.729,0.25,-90,-150,-90,-30,1
4433,1,0,113.32,0,150,1,0.25,2,3,0.0,1.0,10,48.0,20.0,3,0.951,0.0,115.356,0.15,1,2019-06-27 09:01:25.000,254,2019-06-27 09:03:18.320,0.25,90,-120,90,-60,1
4434,2,0,122.246,0,150,1,0.25,2,9,0.0,1.0,4,48.0,20.0,9,0.826,1.0,124.036,0.15,1,2019-06-27 09:01:25.000,254,2019-06-27 09:03:27.246,0.25,-90,60,-90,120,1
4435,3,0,128.724,0,150,1,0.25,2,9,0.0,1.0,4,48.0,20.0,9,0.763,1.0,129.039,0.15,1,2019-06-27 09:01:25.000,254,2019-06-27 09:03:33.724,0.25,-90,60,-90,120,1
4436,4,0,132.748,1,150,1,0.25,2,9,0.0,1.0,4,48.0,20.0,9,0.701,0.0,133.483,0.0,0,2019-06-27 09:01:25.000,254,2019-06-27 09:03:37.748,0.25,90,60,-90,-60,1
4437,6,0,137.82,0,150,1,0.25,2,9,0.0,1.0,4,48.0,20.0,9,0.888,1.0,138.137,0.15,1,2019-06-27 09:01:25.000,254,2019-06-27 09:03:42.820,0.25,-90,60,-90,120,1
4438,7,0,140.476,0,150,1,0.25,2,9,0.0,1.0,4,48.0,20.0,9,0.763,1.0,140.809,0.15,1,2019-06-27 09:01:25.000,254,2019-06-27 09:03:45.476,0.25,-90,60,-90,120,1
4439,8,0,145.29,0,150,1,0.25,2,3,0.0,1.0,10,48.0,20.0,3,0.826,1.0,145.502,0.0,0,2019-06-27 09:01:25.000,254,2019-06-27 09:03:50.290,0.25,-90,-120,90,120,1
4440,12,0,160.366,0,150,1,0.25,2,9,0.0,1.0,4,48.0,20.0,9,0.888,1.0,160.691,0.15,1,2019-06-27 09:01:25.000,254,2019-06-27 09:04:05.366,0.25,-90,60,-90,120,1
4441,13,0,166.918,1,150,1,0.25,2,3,0.0,1.0,10,48.0,20.0,3,0.951,0.0,170.451,0.15,1,2019-06-27 09:01:25.000,254,2019-06-27 09:04:11.918,0.25,90,-120,90,-60,1
4442,14,0,174.111,0,150,1,0.25,2,3,0.0,1.0,10,48.0,20.0,3,0.826,0.0,174.523,0.15,1,2019-06-27 09:01:25.000,254,2019-06-27 09:04:19.111,0.25,90,-120,90,-60,1
4594,1,0,47.892,0,60,1,0.25,2,3,0.0,1.0,1,48.0,20.0,3,0.763,0.0,50.212,0.15,1,2019-06-27 14:32:20.000,318,2019-06-27 14:33:07.892,0.25,90,150,90,30,1
4595,2,0,55.076,0,60,1,0.25,2,9,0.0,1.0,7,48.0,20.0,9,0.701,1.0,56.038,0.15,1,2019-06-27 14:32:20.000,318,2019-06-27 14:33:15.076,0.25,-90,-30,-90,-150,1
4596,3,0,58.473,0,60,1,0.25,2,9,0.0,1.0,7,48.0,20.0,9,0.826,0.0,59.26600000000001,0.0,0,2019-06-27 14:32:20.000,318,2019-06-27 14:33:18.473,0.25,90,-30,-90,30,1
4597,7,0,80.433,0,60,1,0.25,2,9,0.0,1.0,7,48.0,20.0,9,0.951,0.0,80.834,0.0,0,2019-06-27 14:32:20.000,318,2019-06-27 14:33:40.433,0.25,90,-30,-90,30,1
4598,9,0,87.12200000000001,0,60,1,0.25,2,9,0.0,1.0,7,48.0,20.0,9,0.826,0.0,87.435,0.0,0,2019-06-27 14:32:20.000,318,2019-06-27 14:33:47.122,0.25,90,-30,-90,30,1
4599,12,0,97.357,0,60,1,0.25,2,3,0.0,1.0,1,48.0,20.0,3,0.888,0.0,97.809,0.15,1,2019-06-27 14:32:20.000,318,2019-06-27 14:33:57.357,0.25,90,150,90,30,1
4600,13,0,101.657,0,60,1,0.25,2,3,0.0,1.0,1,48.0,20.0,3,0.826,0.0,103.167,0.15,1,2019-06-27 14:32:20.000,318,2019-06-27 14:34:01.657,0.25,90,150,90,30,1
4601,14,0,107.674,0,60,1,0.25,2,3,0.0,1.0,1,48.0,20.0,3,0.701,0.0,108.907,0.15,1,2019-06-27 14:32:20.000,318,2019-06-27 14:34:07.674,0.25,90,150,90,30,1
4602,15,0,112.689,0,60,1,0.25,2,3,0.0,1.0,1,48.0,20.0,3,0.763,0.0,113.912,0.15,1,2019-06-27 14:32:20.000,318,2019-06-27 14:34:12.689,0.25,90,150,90,30,1
4603,16,0,119.206,1,60,1,0.25,2,3,0.0,1.0,1,48.0,20.0,3,0.951,0.0,119.468,0.15,1,2019-06-27 14:32:20.000,318,2019-06-27 14:34:19.206,0.25,90,150,90,30,1
4662,1,0,31.499,0,-30,1,0.25,2,9,0.0,1.0,10,48.0,20.0,9,0.701,0.0,31.905,0.0,0,2019-06-28 08:39:05.000,291,2019-06-28 08:39:36.499,0.25,90,-120,-90,120,1
4663,3,0,90.402,0,-30,1,0.25,2,9,0.0,1.0,10,48.0,20.0,9,0.888,0.0,92.081,0.0,0,2019-06-28 08:39:05.000,291,2019-06-28 08:40:35.402,0.25,90,-120,-90,120,1
4664,7,0,108.386,0,-30,1,0.25,2,9,0.0,1.0,10,48.0,20.0,9,0.763,1.0,108.673,0.15,1,2019-06-28 08:39:05.000,291,2019-06-28 08:40:53.386,0.25,-90,-120,-90,-60,1
4665,8,0,119.941,1,-30,1,0.25,2,9,0.0,1.0,10,48.0,20.0,9,0.951,1.0,120.466,0.15,1,2019-06-28 08:39:05.000,291,2019-06-28 08:41:04.941,0.25,-90,-120,-90,-60,1
4666,9,0,123.591,0,-30,1,0.25,2,3,0.0,1.0,4,48.0,20.0,3,0.888,1.0,126.012,0.0,0,2019-06-28 08:39:05.000,291,2019-06-28 08:41:08.591,0.25,-90,60,90,-60,1
4667,11,0,135.19299999999998,1,-30,1,0.25,2,9,0.0,1.0,10,48.0,20.0,9,0.888,1.0,138.628,0.15,1,2019-06-28 08:39:05.000,291,2019-06-28 08:41:20.193,0.25,-90,-120,-90,-60,1
4668,12,0,141.781,1,-30,1,0.25,2,3,0.0,1.0,4,48.0,20.0,3,0.826,1.0,145.046,0.0,0,2019-06-28 08:39:05.000,291,2019-06-28 08:41:26.781,0.25,-90,60,90,-60,1
4669,16,0,160.664,0,-30,1,0.25,2,9,0.0,1.0,10,48.0,20.0,9,0.826,0.0,160.934,0.0,0,2019-06-28 08:39:05.000,291,2019-06-28 08:41:45.664,0.25,90,-120,-90,120,1
4671,19,0,176.051,0,-30,1,0.25,2,9,0.0,1.0,10,48.0,20.0,9,0.951,1.0,176.753,0.15,1,2019-06-28 08:39:05.000,291,2019-06-28 08:42:01.051,0.25,-90,-120,-90,-60,1
4672,20,0,181.154,0,-30,1,0.25,2,3,0.0,1.0,4,48.0,20.0,3,0.701,0.0,183.19,0.15,1,2019-06-28 08:39:05.000,291,2019-06-28 08:42:06.154,0.25,90,60,90,120,1
4874,1,0,16.575,0,0,1,0.25,2,3,0.0,1.0,3,48.0,20.0,3,0.701,0.0,17.242,0.15,1,2019-07-01 08:47:36.000,243,2019-07-01 08:47:52.575,0.25,90,90,90,90,1
4875,2,0,20.505,0,0,1,0.25,2,3,0.0,1.0,3,48.0,20.0,3,0.951,0.0,21.951,0.15,1,2019-07-01 08:47:36.000,243,2019-07-01 08:47:56.505,0.25,90,90,90,90,1
4876,3,0,25.959,0,0,1,0.25,2,3,0.0,1.0,3,48.0,20.0,3,0.826,0.0,27.247,0.15,1,2019-07-01 08:47:36.000,243,2019-07-01 08:48:01.959,0.25,90,90,90,90,1
4877,4,0,30.429,1,0,1,0.25,2,3,0.0,1.0,3,48.0,20.0,3,0.763,0.0,33.681999999999995,0.15,1,2019-07-01 08:47:36.000,243,2019-07-01 08:48:06.429,0.25,90,90,90,90,1
4878,5,0,37.564,0,0,1,0.25,2,9,0.0,1.0,9,48.0,20.0,9,0.888,1.0,38.541,0.15,1,2019-07-01 08:47:36.000,243,2019-07-01 08:48:13.564,0.25,-90,-90,-90,-90,1
4879,6,0,42.125,1,0,1,0.25,2,9,0.0,1.0,9,48.0,20.0,9,0.951,0.0,42.093,0.0,0,2019-07-01 08:47:36.000,243,2019-07-01 08:48:18.125,0.25,90,-90,-90,90,1
4880,9,0,53.926,0,0,1,0.25,2,9,0.0,1.0,9,48.0,20.0,9,0.888,1.0,54.99800000000001,0.15,1,2019-07-01 08:47:36.000,243,2019-07-01 08:48:29.926,0.25,-90,-90,-90,-90,1
4881,10,0,58.306,0,0,1,0.25,2,9,0.0,1.0,9,48.0,20.0,9,0.763,0.0,59.102,0.0,0,2019-07-01 08:47:36.000,243,2019-07-01 08:48:34.306,0.25,90,-90,-90,90,1
4882,12,0,69.16199999999999,0,0,1,0.25,2,3,0.0,1.0,3,48.0,20.0,3,0.951,0.0,69.617,0.15,1,2019-07-01 08:47:36.000,243,2019-07-01 08:48:45.162,0.25,90,90,90,90,1
4883,13,0,74.717,0,0,1,0.25,2,3,0.0,1.0,3,48.0,20.0,3,0.888,1.0,75.013,0.0,0,2019-07-01 08:47:36.000,243,2019-07-01 08:48:50.717,0.25,-90,90,90,-90,1
5065,1,0,21.443,1,90,1,0.25,2,3,0.0,1.0,12,48.0,20.0,3,0.701,0.0,24.778,0.15,1,2019-07-02 08:38:11.000,222,2019-07-02 08:38:32.443,0.25,90,-180,90,0,1
5066,2,0,28.095,0,90,1,0.25,2,3,0.0,1.0,12,48.0,20.0,3,0.763,1.0,28.83,0.0,0,2019-07-02 08:38:11.000,222,2019-07-02 08:38:39.095,0.25,-90,-180,90,-180,1
5067,4,0,39.161,0,90,1,0.25,2,3,0.0,1.0,12,48.0,20.0,3,0.826,0.0,40.467,0.15,1,2019-07-02 08:38:11.000,222,2019-07-02 08:38:50.161,0.25,90,-180,90,0,1
5068,5,0,43.201,0,90,1,0.25,2,3,0.0,1.0,12,48.0,20.0,3,0.888,0.0,45.3,0.15,1,2019-07-02 08:38:11.000,222,2019-07-02 08:38:54.201,0.25,90,-180,90,0,1
5069,6,0,49.7,1,90,1,0.25,2,9,0.0,1.0,6,48.0,20.0,9,0.951,1.0,52.528,0.15,1,2019-07-02 08:38:11.000,222,2019-07-02 08:39:00.700,0.25,-90,0,-90,-180,1
5070,7,0,55.951,0,90,1,0.25,2,9,0.0,1.0,6,48.0,20.0,9,0.763,1.0,56.452,0.15,1,2019-07-02 08:38:11.000,222,2019-07-02 08:39:06.951,0.25,-90,0,-90,-180,1
5071,8,0,62.819,0,90,1,0.25,2,3,0.0,1.0,12,48.0,20.0,3,0.701,0.0,64.048,0.15,1,2019-07-02 08:38:11.000,222,2019-07-02 08:39:13.819,0.25,90,-180,90,0,1
5072,9,0,68.031,0,90,1,0.25,2,9,0.0,1.0,6,48.0,20.0,9,0.888,1.0,68.393,0.15,1,2019-07-02 08:38:11.000,222,2019-07-02 08:39:19.031,0.25,-90,0,-90,-180,1
5073,10,0,72.292,0,90,1,0.25,2,9,0.0,1.0,6,48.0,20.0,9,0.826,1.0,73.146,0.15,1,2019-07-02 08:38:11.000,222,2019-07-02 08:39:23.292,0.25,-90,0,-90,-180,1
5075,12,0,81.387,0,90,1,0.25,2,9,0.0,1.0,6,48.0,20.0,9,0.951,1.0,81.679,0.15,1,2019-07-02 08:38:11.000,222,2019-07-02 08:39:32.387,0.25,-90,0,-90,-180,1
5275,1,0,18.092,0,180,1,0.25,2,9,0.0,1.0,3,48.0,20.0,9,0.888,0.0,21.46,0.0,0,2019-07-03 08:41:18.000,223,2019-07-03 08:41:36.092,0.25,90,90,-90,-90,1
5276,3,0,32.718,0,180,1,0.25,2,9,0.0,1.0,3,48.0,20.0,9,0.763,1.0,33.606,0.15,1,2019-07-03 08:41:18.000,223,2019-07-03 08:41:50.718,0.25,-90,90,-90,90,1
5277,4,0,35.884,1,180,1,0.25,2,3,0.0,1.0,9,48.0,20.0,3,0.701,0.0,36.172,0.15,1,2019-07-03 08:41:18.000,223,2019-07-03 08:41:53.884,0.25,90,-90,90,-90,1
5278,5,0,38.895,0,180,1,0.25,2,3,0.0,1.0,9,48.0,20.0,3,0.826,0.0,40.97,0.15,1,2019-07-03 08:41:18.000,223,2019-07-03 08:41:56.895,0.25,90,-90,90,-90,1
5279,6,0,43.57100000000001,1,180,1,0.25,2,9,0.0,1.0,3,48.0,20.0,9,0.701,1.0,44.058,0.15,1,2019-07-03 08:41:18.000,223,2019-07-03 08:42:01.571,0.25,-90,90,-90,90,1
5280,7,0,46.515,0,180,1,0.25,2,9,0.0,1.0,3,48.0,20.0,9,0.826,0.0,48.37600000000001,0.0,0,2019-07-03 08:41:18.000,223,2019-07-03 08:42:04.515,0.25,90,90,-90,-90,1
5281,9,0,64.6,0,180,1,0.25,2,3,0.0,1.0,9,48.0,20.0,3,0.951,0.0,65.568,0.15,1,2019-07-03 08:41:18.000,223,2019-07-03 08:42:22.600,0.25,90,-90,90,-90,1
5282,10,0,68.874,0,180,1,0.25,2,3,0.0,1.0,9,48.0,20.0,3,0.763,1.0,69.384,0.0,0,2019-07-03 08:41:18.000,223,2019-07-03 08:42:26.874,0.25,-90,-90,90,90,1
5284,14,0,91.726,0,180,1,0.25,2,9,0.0,1.0,3,48.0,20.0,9,0.826,0.0,94.28,0.0,0,2019-07-03 08:41:18.000,223,2019-07-03 08:42:49.726,0.25,90,90,-90,-90,1
5285,17,0,107.087,0,180,1,0.25,2,3,0.0,1.0,9,48.0,20.0,3,0.951,0.0,107.591,0.15,1,2019-07-03 08:41:18.000,223,2019-07-03 08:43:05.087,0.25,90,-90,90,-90,1
5478,33,0,296.56,0,-90,1,0.25,2,3,0.0,1.0,6,48.0,20.0,3,0.951,1.0,298.036,0.0,0,2019-07-03 14:16:41.000,211,2019-07-03 14:21:37.560,0.25,-90,0,90,0,1
5479,35,0,312.716,0,-90,1,0.25,2,3,0.0,1.0,6,48.0,20.0,3,0.763,0.0,313.8640000000001,0.15,1,2019-07-03 14:16:41.000,211,2019-07-03 14:21:53.716,0.25,90,0,90,-180,1
5480,36,0,318.004,0,-90,1,0.25,2,3,0.0,1.0,6,48.0,20.0,3,0.763,0.0,319.612,0.15,1,2019-07-03 14:16:41.000,211,2019-07-03 14:21:59.004,0.25,90,0,90,-180,1
5482,38,0,329.5130000000001,0,-90,1,0.25,2,9,0.0,1.0,12,48.0,20.0,9,0.888,1.0,330.412,0.15,1,2019-07-03 14:16:41.000,211,2019-07-03 14:22:10.513,0.25,-90,-180,-90,0,1
5483,39,0,334.7030000000001,0,-90,1,0.25,2,3,0.0,1.0,6,48.0,20.0,3,0.701,0.0,334.927,0.15,1,2019-07-03 14:16:41.000,211,2019-07-03 14:22:15.703,0.25,90,0,90,-180,1
5484,40,0,340.357,0,-90,1,0.25,2,3,0.0,1.0,6,48.0,20.0,3,0.826,0.0,341.021,0.15,1,2019-07-03 14:16:41.000,211,2019-07-03 14:22:21.357,0.25,90,0,90,-180,1
5485,41,0,344.784,0,-90,1,0.25,2,9,0.0,1.0,12,48.0,20.0,9,0.826,1.0,346.58,0.15,1,2019-07-03 14:16:41.000,211,2019-07-03 14:22:25.784,0.25,-90,-180,-90,0,1
5486,42,0,351.103,0,-90,1,0.25,2,9,0.0,1.0,12,48.0,20.0,9,0.763,0.0,351.45,0.0,0,2019-07-03 14:16:41.000,211,2019-07-03 14:22:32.103,0.25,90,-180,-90,-180,1
5487,46,0,367.388,0,-90,1,0.25,2,3,0.0,1.0,6,48.0,20.0,3,0.701,0.0,367.785,0.15,1,2019-07-03 14:16:41.000,211,2019-07-03 14:22:48.388,0.25,90,0,90,-180,1
5488,47,0,374.935,1,-90,1,0.25,2,9,0.0,1.0,12,48.0,20.0,9,0.826,0.0,380.101,0.0,0,2019-07-03 14:16:41.000,211,2019-07-03 14:22:55.935,0.25,90,-180,-90,-180,1
5562,1,0,83.086,0,-120,1,0.25,2,90,0.0,1.0,1,48.0,20.0,9,0.951,1.0,83.78200000000002,0.15,1,2019-07-04 08:57:29.000,129,2019-07-04 08:58:52.086,0.25,-90,150,-90,30,1
5563,2,0,86.94200000000002,0,-120,1,0.25,2,90,0.0,1.0,1,48.0,20.0,9,0.826,1.0,87.619,0.15,1,2019-07-04 08:57:29.000,129,2019-07-04 08:58:55.942,0.25,-90,150,-90,30,1
5564,3,0,91.883,0,-120,1,0.25,2,30,0.0,1.0,7,48.0,20.0,3,0.888,1.0,92.468,0.0,0,2019-07-04 08:57:29.000,129,2019-07-04 08:59:00.883,0.25,-90,-30,90,30,1
5565,5,0,103.171,1,-120,1,0.25,2,90,0.0,1.0,1,48.0,20.0,9,0.763,0.0,106.59,0.0,0,2019-07-04 08:57:29.000,129,2019-07-04 08:59:12.171,0.25,90,150,-90,-150,1
5566,7,0,116.56,0,-120,1,0.25,2,90,0.0,1.0,1,48.0,20.0,9,0.701,1.0,117.411,0.15,1,2019-07-04 08:57:29.000,129,2019-07-04 08:59:25.560,0.25,-90,150,-90,30,1
5567,8,0,120.477,0,-120,1,0.25,2,90,0.0,1.0,1,48.0,20.0,9,0.826,1.0,120.866,0.15,1,2019-07-04 08:57:29.000,129,2019-07-04 08:59:29.477,0.25,-90,150,-90,30,1
5568,9,0,124.809,0,-120,1,0.25,2,30,0.0,1.0,7,48.0,20.0,3,0.951,0.0,126.177,0.15,1,2019-07-04 08:57:29.000,129,2019-07-04 08:59:33.809,0.25,90,-30,90,-150,1
5569,10,0,130.839,0,-120,1,0.25,2,30,0.0,1.0,7,48.0,20.0,3,0.701,0.0,132.489,0.15,1,2019-07-04 08:57:29.000,129,2019-07-04 08:59:39.839,0.25,90,-30,90,-150,1
5570,11,0,136.268,0,-120,1,0.25,2,30,0.0,1.0,7,48.0,20.0,3,0.763,1.0,137.347,0.0,0,2019-07-04 08:57:29.000,129,2019-07-04 08:59:45.268,0.25,-90,-30,90,30,1
5571,15,0,167.23,0,-120,1,0.25,2,30,0.0,1.0,7,48.0,20.0,3,0.888,1.0,168.43099999999995,0.0,0,2019-07-04 08:57:29.000,129,2019-07-04 09:00:16.230,0.25,-90,-30,90,30,1
6078,1,0,134.018,0,150,1,0.25,2,9,0.0,1.0,4,48.0,20.0,9,0.826,1.0,134.892,0.15,1,2019-07-08 14:09:47.000,270,2019-07-08 14:12:01.018,0.25,-90,60,-90,120,1
6079,2,0,137.66,0,150,1,0.25,2,3,0.0,1.0,10,48.0,20.0,3,0.951,1.0,138.14700000000002,0.0,0,2019-07-08 14:09:47.000,270,2019-07-08 14:12:04.660,0.25,-90,-120,90,120,1
6080,9,0,177.42,0,150,1,0.25,2,3,0.0,1.0,10,48.0,20.0,3,0.951,1.0,178.727,0.0,0,2019-07-08 14:09:47.000,270,2019-07-08 14:12:44.420,0.25,-90,-120,90,120,1
6082,13,0,193.506,0,150,1,0.25,2,9,0.0,1.0,4,48.0,20.0,9,0.763,1.0,194.251,0.15,1,2019-07-08 14:09:47.000,270,2019-07-08 14:13:00.506,0.25,-90,60,-90,120,1
6083,14,0,205.498,0,150,1,0.25,2,3,0.0,1.0,10,48.0,20.0,3,0.701,0.0,206.207,0.15,1,2019-07-08 14:09:47.000,270,2019-07-08 14:13:12.498,0.25,90,-120,90,-60,1
6084,15,0,211.156,0,150,1,0.25,2,3,0.0,1.0,10,48.0,20.0,3,0.951,1.0,211.862,0.0,0,2019-07-08 14:09:47.000,270,2019-07-08 14:13:18.156,0.25,-90,-120,90,120,1
6085,17,0,220.7,0,150,1,0.25,2,9,0.0,1.0,4,48.0,20.0,9,0.763,1.0,221.344,0.15,1,2019-07-08 14:09:47.000,270,2019-07-08 14:13:27.700,0.25,-90,60,-90,120,1
6086,18,0,226.666,0,150,1,0.25,2,9,0.0,1.0,4,48.0,20.0,9,0.888,0.0,226.387,0.0,0,2019-07-08 14:09:47.000,270,2019-07-08 14:13:33.666,0.25,90,60,-90,-60,1
6088,21,0,242.418,0,150,1,0.25,2,3,0.0,1.0,10,48.0,20.0,3,0.701,0.0,242.976,0.15,1,2019-07-08 14:09:47.000,270,2019-07-08 14:13:49.418,0.25,90,-120,90,-60,1
6089,22,0,248.762,0,150,1,0.25,2,9,0.0,1.0,4,48.0,20.0,9,0.826,1.0,249.357,0.15,1,2019-07-08 14:09:47.000,270,2019-07-08 14:13:55.762,0.25,-90,60,-90,120,1
6189,1,0,18.786,0,30,1,0.25,2,3,0.0,1.0,2,48.0,20.0,3,0.701,1.0,20.933000000000003,0.0,0,2019-07-09 08:51:31.000,285,2019-07-09 08:51:49.786,0.25,-90,120,90,-120,1
6190,3,0,38.49,0,30,1,0.25,2,9,0.0,1.0,8,48.0,20.0,9,0.826,1.0,39.036,0.15,1,2019-07-09 08:51:31.000,285,2019-07-09 08:52:09.490,0.25,-90,-60,-90,-120,1
6191,4,0,43.613,1,30,1,0.25,2,3,0.0,1.0,2,48.0,20.0,3,0.888,0.0,46.807,0.15,1,2019-07-09 08:51:31.000,285,2019-07-09 08:52:14.613,0.25,90,120,90,60,1
6192,5,0,49.942,0,30,1,0.25,2,3,0.0,1.0,2,48.0,20.0,3,0.951,1.0,50.416,0.0,0,2019-07-09 08:51:31.000,285,2019-07-09 08:52:20.942,0.25,-90,120,90,-120,1
6193,7,0,60.17100000000001,0,30,1,0.25,2,3,0.0,1.0,2,48.0,20.0,3,0.701,0.0,60.986,0.15,1,2019-07-09 08:51:31.000,285,2019-07-09 08:52:31.171,0.25,90,120,90,60,1
6194,8,0,64.075,0,30,1,0.25,2,3,0.0,1.0,2,48.0,20.0,3,0.763,0.0,64.08,0.15,1,2019-07-09 08:51:31.000,285,2019-07-09 08:52:35.075,0.25,90,120,90,60,1
6195,9,0,72.53399999999998,1,30,1,0.25,2,3,0.0,1.0,2,48.0,20.0,3,0.888,0.0,75.831,0.15,1,2019-07-09 08:51:31.000,285,2019-07-09 08:52:43.534,0.25,90,120,90,60,1
6196,10,0,79.558,0,30,1,0.25,2,9,0.0,1.0,8,48.0,20.0,9,0.826,0.0,79.76100000000002,0.0,0,2019-07-09 08:51:31.000,285,2019-07-09 08:52:50.558,0.25,90,-60,-90,60,1
6197,12,0,89.83,0,30,1,0.25,2,9,0.0,1.0,8,48.0,20.0,9,0.951,1.0,90.678,0.15,1,2019-07-09 08:51:31.000,285,2019-07-09 08:53:00.830,0.25,-90,-60,-90,-120,1
6198,13,0,94.411,0,30,1,0.25,2,3,0.0,1.0,2,48.0,20.0,3,0.888,0.0,95.297,0.15,1,2019-07-09 08:51:31.000,285,2019-07-09 08:53:05.411,0.25,90,120,90,60,1
6851,1,0,58.865,0,90,1,0.25,2,3,0.0,1.0,12,48.0,20.0,3,0.888,1.0,60.715,0.0,0,2019-07-12 15:34:36.000,256,2019-07-12 15:35:34.865,0.25,-90,-180,90,-180,1
6852,3,0,74.112,0,90,1,0.25,2,9,0.0,1.0,6,48.0,20.0,9,0.826,1.0,74.994,0.15,1,2019-07-12 15:34:36.000,256,2019-07-12 15:35:50.112,0.25,-90,0,-90,-180,1
6853,4,0,79.611,0,90,1,0.25,2,3,0.0,1.0,12,48.0,20.0,3,0.763,0.0,87.787,0.15,1,2019-07-12 15:34:36.000,256,2019-07-12 15:35:55.611,0.25,90,-180,90,0,1
6854,5,0,91.765,0,90,1,0.25,2,9,0.0,1.0,6,48.0,20.0,9,0.701,0.0,92.934,0.0,0,2019-07-12 15:34:36.000,256,2019-07-12 15:36:07.765,0.25,90,0,-90,0,1
6855,7,0,99.509,0,90,1,0.25,2,9,0.0,1.0,6,48.0,20.0,9,0.951,1.0,99.788,0.15,1,2019-07-12 15:34:36.000,256,2019-07-12 15:36:15.509,0.25,-90,0,-90,-180,1
6856,8,0,106.276,0,90,1,0.25,2,9,0.0,1.0,6,48.0,20.0,9,0.701,1.0,107.023,0.15,1,2019-07-12 15:34:36.000,256,2019-07-12 15:36:22.276,0.25,-90,0,-90,-180,1
6857,9,0,110.462,0,90,1,0.25,2,9,0.0,1.0,6,48.0,20.0,9,0.763,1.0,110.948,0.15,1,2019-07-12 15:34:36.000,256,2019-07-12 15:36:26.462,0.25,-90,0,-90,-180,1
6858,10,0,114.372,0,90,1,0.25,2,3,0.0,1.0,12,48.0,20.0,3,0.888,0.0,115.332,0.15,1,2019-07-12 15:34:36.000,256,2019-07-12 15:36:30.372,0.25,90,-180,90,0,1
6859,11,0,118.565,0,90,1,0.25,2,3,0.0,1.0,12,48.0,20.0,3,0.701,1.0,119.53,0.0,0,2019-07-12 15:34:36.000,256,2019-07-12 15:36:34.565,0.25,-90,-180,90,-180,1
6860,13,0,125.636,1,90,1,0.25,2,9,0.0,1.0,6,48.0,20.0,9,0.763,1.0,129.043,0.15,1,2019-07-12 15:34:36.000,256,2019-07-12 15:36:41.636,0.25,-90,0,-90,-180,1
6904,1,0,35.035,1,0,1,0.25,2,9,0.0,1.0,9,48.0,20.0,9,0.763,1.0,38.35,0.15,1,2019-07-22 08:26:33.000,271,2019-07-22 08:27:08.035,0.25,-90,-90,-90,-90,1
6905,2,0,41.488,0,0,1,0.25,2,3,0.0,1.0,3,48.0,20.0,3,0.701,1.0,42.644,0.0,0,2019-07-22 08:26:33.000,271,2019-07-22 08:27:14.488,0.25,-90,90,90,-90,1
6906,4,0,48.24100000000001,0,0,1,0.25,2,3,0.0,1.0,3,48.0,20.0,3,0.826,1.0,48.88800000000001,0.0,0,2019-07-22 08:26:33.000,271,2019-07-22 08:27:21.241,0.25,-90,90,90,-90,1
6907,6,0,55.952,1,0,1,0.25,2,9,0.0,1.0,9,48.0,20.0,9,0.888,0.0,59.643,0.0,0,2019-07-22 08:26:33.000,271,2019-07-22 08:27:28.952,0.25,90,-90,-90,90,1
6908,8,0,68.194,0,0,1,0.25,2,3,0.0,1.0,3,48.0,20.0,3,0.951,0.0,68.87100000000001,0.15,1,2019-07-22 08:26:33.000,271,2019-07-22 08:27:41.194,0.25,90,90,90,90,1
6909,9,0,72.333,0,0,1,0.25,2,3,0.0,1.0,3,48.0,20.0,3,0.763,0.0,72.373,0.15,1,2019-07-22 08:26:33.000,271,2019-07-22 08:27:45.333,0.25,90,90,90,90,1
6910,10,0,76.87899999999998,0,0,1,0.25,2,3,0.0,1.0,3,48.0,20.0,3,0.701,0.0,78.32,0.15,1,2019-07-22 08:26:33.000,271,2019-07-22 08:27:49.879,0.25,90,90,90,90,1
6911,11,0,82.885,0,0,1,0.25,2,9,0.0,1.0,9,48.0,20.0,9,0.888,0.0,82.96700000000001,0.0,0,2019-07-22 08:26:33.000,271,2019-07-22 08:27:55.885,0.25,90,-90,-90,90,1
6912,13,0,89.31700000000002,0,0,1,0.25,2,3,0.0,1.0,3,48.0,20.0,3,0.826,0.0,89.861,0.15,1,2019-07-22 08:26:33.000,271,2019-07-22 08:28:02.317,0.25,90,90,90,90,1
6913,14,0,93.806,0,0,1,0.25,2,9,0.0,1.0,9,48.0,20.0,9,0.701,1.0,94.338,0.15,1,2019-07-22 08:26:33.000,271,2019-07-22 08:28:06.806,0.25,-90,-90,-90,-90,1
6952,1,0,27.091,0,-120,1,0.25,2,3,0.0,1.0,7,48.0,20.0,3,0.951,1.0,27.786,0.0,0,2019-07-22 14:02:24.000,322,2019-07-22 14:02:51.091,0.25,-90,-30,90,30,1
6953,3,0,36.422,0,-120,1,0.25,2,9,0.0,1.0,1,48.0,20.0,9,0.888,1.0,36.88800000000001,0.15,1,2019-07-22 14:02:24.000,322,2019-07-22 14:03:00.422,0.25,-90,150,-90,30,1
6954,4,0,41.703,0,-120,1,0.25,2,3,0.0,1.0,7,48.0,20.0,3,0.763,0.0,42.49100000000001,0.15,1,2019-07-22 14:02:24.000,322,2019-07-22 14:03:05.703,0.25,90,-30,90,-150,1
6955,5,0,46.74100000000001,0,-120,1,0.25,2,9,0.0,1.0,1,48.0,20.0,9,0.701,1.0,47.294,0.15,1,2019-07-22 14:02:24.000,322,2019-07-22 14:03:10.741,0.25,-90,150,-90,30,1
6956,6,0,53.52,0,-120,1,0.25,2,3,0.0,1.0,7,48.0,20.0,3,0.701,0.0,54.457,0.15,1,2019-07-22 14:02:24.000,322,2019-07-22 14:03:17.520,0.25,90,-30,90,-150,1
6957,7,0,59.69600000000001,0,-120,1,0.25,2,9,0.0,1.0,1,48.0,20.0,9,0.826,1.0,60.431,0.15,1,2019-07-22 14:02:24.000,322,2019-07-22 14:03:23.696,0.25,-90,150,-90,30,1
6958,8,0,65.17399999999999,0,-120,1,0.25,2,9,0.0,1.0,1,48.0,20.0,9,0.951,1.0,65.417,0.15,1,2019-07-22 14:02:24.000,322,2019-07-22 14:03:29.174,0.25,-90,150,-90,30,1
6959,9,0,74.05199999999998,0,-120,1,0.25,2,3,0.0,1.0,7,48.0,20.0,3,0.888,1.0,74.811,0.0,0,2019-07-22 14:02:24.000,322,2019-07-22 14:03:38.052,0.25,-90,-30,90,30,1
6960,12,0,95.463,0,-120,1,0.25,2,9,0.0,1.0,1,48.0,20.0,9,0.888,1.0,96.136,0.15,1,2019-07-22 14:02:24.000,322,2019-07-22 14:03:59.463,0.25,-90,150,-90,30,1
6961,13,0,100.022,0,-120,1,0.25,2,3,0.0,1.0,7,48.0,20.0,3,0.826,1.0,100.689,0.0,0,2019-07-22 14:02:24.000,322,2019-07-22 14:04:04.022,0.25,-90,-30,90,30,1
7062,1,0,12.078,0,120,1,0.25,2,9,0.0,1.0,5,48.0,20.0,9,0.701,1.0,13.993,0.15,1,2019-07-23 08:39:19.000,316,2019-07-23 08:39:31.078,0.25,-90,30,-90,150,1
7063,2,0,16.643,1,120,1,0.25,2,3,0.0,1.0,11,48.0,20.0,3,0.763,1.0,17.155,0.0,0,2019-07-23 08:39:19.000,316,2019-07-23 08:39:35.643,0.25,-90,-150,90,150,1
7064,6,0,50.07899999999999,0,120,1,0.25,2,3,0.0,1.0,11,48.0,20.0,3,0.826,1.0,51.295,0.0,0,2019-07-23 08:39:19.000,316,2019-07-23 08:40:09.079,0.25,-90,-150,90,150,1
7065,9,0,61.937,0,120,1,0.25,2,9,0.0,1.0,5,48.0,20.0,9,0.951,1.0,62.404,0.15,1,2019-07-23 08:39:19.000,316,2019-07-23 08:40:20.937,0.25,-90,30,-90,150,1
7066,10,0,66.60600000000001,0,120,1,0.25,2,3,0.0,1.0,11,48.0,20.0,3,0.701,0.0,67.35300000000001,0.15,1,2019-07-23 08:39:19.000,316,2019-07-23 08:40:25.606,0.25,90,-150,90,-30,1
7067,11,0,71.443,0,120,1,0.25,2,3,0.0,1.0,11,48.0,20.0,3,0.826,0.0,71.312,0.15,1,2019-07-23 08:39:19.000,316,2019-07-23 08:40:30.443,0.25,90,-150,90,-30,1
7068,12,0,76.268,0,120,1,0.25,2,9,0.0,1.0,5,48.0,20.0,9,0.763,1.0,76.96300000000002,0.15,1,2019-07-23 08:39:19.000,316,2019-07-23 08:40:35.268,0.25,-90,30,-90,150,1
7069,13,0,79.858,0,120,1,0.25,2,9,0.0,1.0,5,48.0,20.0,9,0.701,0.0,79.80199999999998,0.0,0,2019-07-23 08:39:19.000,316,2019-07-23 08:40:38.858,0.25,90,30,-90,-30,1
7070,16,0,99.98,0,120,1,0.25,2,9,0.0,1.0,5,48.0,20.0,9,0.888,0.0,100.033,0.0,0,2019-07-23 08:39:19.000,316,2019-07-23 08:40:58.980,0.25,90,30,-90,-30,1
7071,18,0,110.14,0,120,1,0.25,2,3,0.0,1.0,11,48.0,20.0,3,0.701,1.0,111.062,0.0,0,2019-07-23 08:39:19.000,316,2019-07-23 08:41:09.140,0.25,-90,-150,90,150,1
7144,1,0,20.771,1,150,1,0.25,2,9,0.0,1.0,4,48.0,20.0,9,0.763,0.0,24.04,0.0,0,2019-07-23 14:09:07.000,265,2019-07-23 14:09:27.771,0.25,90,60,-90,-60,1
7145,3,0,41.235,1,150,1,0.25,2,3,0.0,1.0,10,48.0,20.0,3,0.951,0.0,44.861,0.15,1,2019-07-23 14:09:07.000,265,2019-07-23 14:09:48.235,0.25,90,-120,90,-60,1
7146,4,0,48.045,0,150,1,0.25,2,3,0.0,1.0,10,48.0,20.0,3,0.826,0.0,49.658,0.15,1,2019-07-23 14:09:07.000,265,2019-07-23 14:09:55.045,0.25,90,-120,90,-60,1
7147,5,0,55.7,0,150,1,0.25,2,9,0.0,1.0,4,48.0,20.0,9,0.701,1.0,56.633,0.15,1,2019-07-23 14:09:07.000,265,2019-07-23 14:10:02.700,0.25,-90,60,-90,120,1
7148,6,0,60.146,0,150,1,0.25,2,3,0.0,1.0,10,48.0,20.0,3,0.888,0.0,60.993,0.15,1,2019-07-23 14:09:07.000,265,2019-07-23 14:10:07.146,0.25,90,-120,90,-60,1
7149,7,0,64.17,1,150,1,0.25,2,3,0.0,1.0,10,48.0,20.0,3,0.701,0.0,67.78399999999999,0.15,1,2019-07-23 14:09:07.000,265,2019-07-23 14:10:11.170,0.25,90,-120,90,-60,1
7150,8,0,71.095,0,150,1,0.25,2,3,0.0,1.0,10,48.0,20.0,3,0.951,0.0,72.46,0.15,1,2019-07-23 14:09:07.000,265,2019-07-23 14:10:18.095,0.25,90,-120,90,-60,1
7151,9,0,75.32,0,150,1,0.25,2,3,0.0,1.0,10,48.0,20.0,3,0.763,0.0,76.873,0.15,1,2019-07-23 14:09:07.000,265,2019-07-23 14:10:22.320,0.25,90,-120,90,-60,1
7152,10,0,80.928,1,150,1,0.25,2,3,0.0,1.0,10,48.0,20.0,3,0.826,0.0,85.303,0.15,1,2019-07-23 14:09:07.000,265,2019-07-23 14:10:27.928,0.25,90,-120,90,-60,1
7153,11,0,88.59899999999998,0,150,1,0.25,2,3,0.0,1.0,10,48.0,20.0,3,0.888,0.0,90.331,0.15,1,2019-07-23 14:09:07.000,265,2019-07-23 14:10:35.599,0.25,90,-120,90,-60,1
7157,1,0,31.279,0,90,1,0.25,2,3,0.0,1.0,12,48.0,20.0,3,0.888,0.0,32.032,0.15,1,2019-07-24 08:39:28.000,308,2019-07-24 08:39:59.279,0.25,90,-180,90,0,1
7158,2,0,55.822,0,90,1,0.25,2,9,0.0,1.0,6,48.0,20.0,9,0.701,0.0,56.69600000000001,0.0,0,2019-07-24 08:39:28.000,308,2019-07-24 08:40:23.822,0.25,90,0,-90,0,1
7159,4,0,62.00899999999999,0,90,1,0.25,2,3,0.0,1.0,12,48.0,20.0,3,0.826,0.0,63.085,0.15,1,2019-07-24 08:39:28.000,308,2019-07-24 08:40:30.009,0.25,90,-180,90,0,1
7160,5,0,66.331,0,90,1,0.25,2,3,0.0,1.0,12,48.0,20.0,3,0.951,0.0,67.084,0.15,1,2019-07-24 08:39:28.000,308,2019-07-24 08:40:34.331,0.25,90,-180,90,0,1
7161,6,0,70.064,0,90,1,0.25,2,3,0.0,1.0,12,48.0,20.0,3,0.701,0.0,71.26,0.15,1,2019-07-24 08:39:28.000,308,2019-07-24 08:40:38.064,0.25,90,-180,90,0,1
7162,7,0,74.642,0,90,1,0.25,2,9,0.0,1.0,6,48.0,20.0,9,0.951,0.0,75.646,0.0,0,2019-07-24 08:39:28.000,308,2019-07-24 08:40:42.642,0.25,90,0,-90,0,1
7163,10,0,87.73700000000002,0,90,1,0.25,2,3,0.0,1.0,12,48.0,20.0,3,0.763,1.0,88.351,0.0,0,2019-07-24 08:39:28.000,308,2019-07-24 08:40:55.737,0.25,-90,-180,90,-180,1
7164,12,0,94.571,0,90,1,0.25,2,9,0.0,1.0,6,48.0,20.0,9,0.888,1.0,95.446,0.15,1,2019-07-24 08:39:28.000,308,2019-07-24 08:41:02.571,0.25,-90,0,-90,-180,1
7165,13,0,100.08,0,90,1,0.25,2,9,0.0,1.0,6,48.0,20.0,9,0.701,1.0,100.797,0.15,1,2019-07-24 08:39:28.000,308,2019-07-24 08:41:08.080,0.25,-90,0,-90,-180,1
7166,14,0,108.662,0,90,1,0.25,2,9,0.0,1.0,6,48.0,20.0,9,0.763,0.0,109.264,0.0,0,2019-07-24 08:39:28.000,308,2019-07-24 08:41:16.662,0.25,90,0,-90,0,1
7401,1,0,159.755,0,60,1,0.25,2,9,0.0,1.0,7,48.0,20.0,9,0.763,1.0,160.37,0.15,1,2019-07-25 16:19:26.000,219,2019-07-25 16:22:05.755,0.25,-90,-30,-90,-150,1
7402,2,0,166.085,0,60,1,0.25,2,3,0.0,1.0,1,48.0,20.0,3,0.701,0.0,167.25400000000005,0.15,1,2019-07-25 16:19:26.000,219,2019-07-25 16:22:12.085,0.25,90,150,90,30,1
7403,3,0,171.115,0,60,1,0.25,2,3,0.0,1.0,1,48.0,20.0,3,0.826,0.0,171.61,0.15,1,2019-07-25 16:19:26.000,219,2019-07-25 16:22:17.115,0.25,90,150,90,30,1
7404,4,0,197.475,0,60,1,0.25,2,3,0.0,1.0,1,48.0,20.0,3,0.888,0.0,197.322,0.15,1,2019-07-25 16:19:26.000,219,2019-07-25 16:22:43.475,0.25,90,150,90,30,1
7405,5,0,209.035,0,60,1,0.25,2,3,0.0,1.0,1,48.0,20.0,3,0.951,0.0,210.061,0.15,1,2019-07-25 16:19:26.000,219,2019-07-25 16:22:55.035,0.25,90,150,90,30,1
7406,6,0,216.566,0,60,1,0.25,2,3,0.0,1.0,1,48.0,20.0,3,0.763,0.0,217.417,0.15,1,2019-07-25 16:19:26.000,219,2019-07-25 16:23:02.566,0.25,90,150,90,30,1
7407,7,0,222.374,0,60,1,0.25,2,3,0.0,1.0,1,48.0,20.0,3,0.888,0.0,223.289,0.15,1,2019-07-25 16:19:26.000,219,2019-07-25 16:23:08.374,0.25,90,150,90,30,1
7408,8,0,227.836,0,60,1,0.25,2,9,0.0,1.0,7,48.0,20.0,9,0.826,1.0,229.145,0.15,1,2019-07-25 16:19:26.000,219,2019-07-25 16:23:13.836,0.25,-90,-30,-90,-150,1
7409,9,0,233.987,0,60,1,0.25,2,9,0.0,1.0,7,48.0,20.0,9,0.701,1.0,236.127,0.15,1,2019-07-25 16:19:26.000,219,2019-07-25 16:23:19.987,0.25,-90,-30,-90,-150,1
7410,10,0,240.414,0,60,1,0.25,2,3,0.0,1.0,1,48.0,20.0,3,0.951,0.0,241.101,0.15,1,2019-07-25 16:19:26.000,219,2019-07-25 16:23:26.414,0.25,90,150,90,30,1
7503,1,0,54.49,0,30,1,0.25,2,3,0.0,1.0,2,48.0,20.0,3,0.763,0.0,55.242,0.15,1,2019-07-26 09:14:13.000,266,2019-07-26 09:15:07.490,0.25,90,120,90,60,1
7504,2,0,58.53,0,30,1,0.25,2,9,0.0,1.0,8,48.0,20.0,9,0.826,1.0,58.949,0.15,1,2019-07-26 09:14:13.000,266,2019-07-26 09:15:11.530,0.25,-90,-60,-90,-120,1
7505,3,0,68.50399999999999,1,30,1,0.25,2,3,0.0,1.0,2,48.0,20.0,3,0.701,1.0,71.89399999999998,0.0,0,2019-07-26 09:14:13.000,266,2019-07-26 09:15:21.504,0.25,-90,120,90,-120,1
7506,5,0,79.354,0,30,1,0.25,2,3,0.0,1.0,2,48.0,20.0,3,0.888,1.0,81.30199999999998,0.0,0,2019-07-26 09:14:13.000,266,2019-07-26 09:15:32.354,0.25,-90,120,90,-120,1
7507,7,0,88.537,0,30,1,0.25,2,3,0.0,1.0,2,48.0,20.0,3,0.951,1.0,89.735,0.0,0,2019-07-26 09:14:13.000,266,2019-07-26 09:15:41.537,0.25,-90,120,90,-120,1
7508,9,0,95.717,0,30,1,0.25,2,3,0.0,1.0,2,48.0,20.0,3,0.763,0.0,96.707,0.15,1,2019-07-26 09:14:13.000,266,2019-07-26 09:15:48.717,0.25,90,120,90,60,1
7509,10,0,100.145,0,30,1,0.25,2,9,0.0,1.0,8,48.0,20.0,9,0.826,1.0,102.04,0.15,1,2019-07-26 09:14:13.000,266,2019-07-26 09:15:53.145,0.25,-90,-60,-90,-120,1
7510,11,0,106.857,0,30,1,0.25,2,3,0.0,1.0,2,48.0,20.0,3,0.701,1.0,109.178,0.0,0,2019-07-26 09:14:13.000,266,2019-07-26 09:15:59.857,0.25,-90,120,90,-120,1
7512,14,0,119.125,0,30,1,0.25,2,9,0.0,1.0,8,48.0,20.0,9,0.888,0.0,119.496,0.0,0,2019-07-26 09:14:13.000,266,2019-07-26 09:16:12.125,0.25,90,-60,-90,60,1
7514,17,0,129.194,1,30,1,0.25,2,3,0.0,1.0,2,48.0,20.0,3,0.701,1.0,136.24200000000002,0.0,0,2019-07-26 09:14:13.000,266,2019-07-26 09:16:22.194,0.25,-90,120,90,-120,1
7681,1,0,42.935,0,0,1,0.25,2,9,0.0,1.0,9,48.0,20.0,9,0.951,0.0,43.743,0.0,0,2019-07-29 14:54:51.000,331,2019-07-29 14:55:33.935,0.25,90,-90,-90,90,1
7682,3,0,54.36,0,0,1,0.25,2,9,0.0,1.0,9,48.0,20.0,9,0.826,1.0,55.109,0.15,1,2019-07-29 14:54:51.000,331,2019-07-29 14:55:45.360,0.25,-90,-90,-90,-90,1
7683,4,0,60.853,0,0,1,0.25,2,3,0.0,1.0,3,48.0,20.0,3,0.888,0.0,61.129,0.15,1,2019-07-29 14:54:51.000,331,2019-07-29 14:55:51.853,0.25,90,90,90,90,1
7684,5,0,64.665,0,0,1,0.25,2,9,0.0,1.0,9,48.0,20.0,9,0.763,1.0,65.061,0.15,1,2019-07-29 14:54:51.000,331,2019-07-29 14:55:55.665,0.25,-90,-90,-90,-90,1
7685,6,0,68.884,0,0,1,0.25,2,9,0.0,1.0,9,48.0,20.0,9,0.951,1.0,69.83800000000001,0.15,1,2019-07-29 14:54:51.000,331,2019-07-29 14:55:59.884,0.25,-90,-90,-90,-90,1
7686,7,0,80.274,0,0,1,0.25,2,9,0.0,1.0,9,48.0,20.0,9,0.826,1.0,81.333,0.15,1,2019-07-29 14:54:51.000,331,2019-07-29 14:56:11.274,0.25,-90,-90,-90,-90,1
7687,8,0,84.762,0,0,1,0.25,2,9,0.0,1.0,9,48.0,20.0,9,0.763,1.0,85.789,0.15,1,2019-07-29 14:54:51.000,331,2019-07-29 14:56:15.762,0.25,-90,-90,-90,-90,1
7688,9,0,92.71,0,0,1,0.25,2,9,0.0,1.0,9,48.0,20.0,9,0.888,1.0,93.006,0.15,1,2019-07-29 14:54:51.000,331,2019-07-29 14:56:23.710,0.25,-90,-90,-90,-90,1
7689,10,0,96.486,0,0,1,0.25,2,9,0.0,1.0,9,48.0,20.0,9,0.701,0.0,97.592,0.0,0,2019-07-29 14:54:51.000,331,2019-07-29 14:56:27.486,0.25,90,-90,-90,90,1
7690,12,0,103.719,1,0,1,0.25,2,9,0.0,1.0,9,48.0,20.0,9,0.701,1.0,107.248,0.15,1,2019-07-29 14:54:51.000,331,2019-07-29 14:56:34.719,0.25,-90,-90,-90,-90,1
7933,1,0,27.908,0,-90,1,0.25,2,3,0.0,1.0,6,48.0,20.0,3,0.826,0.0,28.213,0.15,1,2019-08-02 10:11:36.000,286,2019-08-02 10:12:03.908,0.25,90,0,90,-180,1
7934,2,0,32.178000000000004,0,-90,1,0.25,2,3,0.0,1.0,6,48.0,20.0,3,0.888,0.0,33.052,0.15,1,2019-08-02 10:11:36.000,286,2019-08-02 10:12:08.178,0.25,90,0,90,-180,1
7935,3,0,36.807,0,-90,1,0.25,2,3,0.0,1.0,6,48.0,20.0,3,0.951,0.0,37.527,0.15,1,2019-08-02 10:11:36.000,286,2019-08-02 10:12:12.807,0.25,90,0,90,-180,1
7936,4,0,40.553,0,-90,1,0.25,2,3,0.0,1.0,6,48.0,20.0,3,0.701,0.0,41.032,0.15,1,2019-08-02 10:11:36.000,286,2019-08-02 10:12:16.553,0.25,90,0,90,-180,1
7937,5,0,45.007,1,-90,1,0.25,2,3,0.0,1.0,6,48.0,20.0,3,0.763,1.0,45.99,0.0,0,2019-08-02 10:11:36.000,286,2019-08-02 10:12:21.007,0.25,-90,0,90,0,1
7938,7,0,52.989,0,-90,1,0.25,2,3,0.0,1.0,6,48.0,20.0,3,0.951,1.0,54.33,0.0,0,2019-08-02 10:11:36.000,286,2019-08-02 10:12:28.989,0.25,-90,0,90,0,1
7939,9,0,60.997,0,-90,1,0.25,2,3,0.0,1.0,6,48.0,20.0,3,0.826,0.0,61.789,0.15,1,2019-08-02 10:11:36.000,286,2019-08-02 10:12:36.997,0.25,90,0,90,-180,1
7940,10,0,65.291,0,-90,1,0.25,2,3,0.0,1.0,6,48.0,20.0,3,0.763,0.0,66.113,0.15,1,2019-08-02 10:11:36.000,286,2019-08-02 10:12:41.291,0.25,90,0,90,-180,1
7941,11,0,69.094,1,-90,1,0.25,2,3,0.0,1.0,6,48.0,20.0,3,0.888,0.0,72.935,0.15,1,2019-08-02 10:11:36.000,286,2019-08-02 10:12:45.094,0.25,90,0,90,-180,1
7942,12,0,77.295,1,-90,1,0.25,2,3,0.0,1.0,6,48.0,20.0,3,0.701,0.0,78.182,0.15,1,2019-08-02 10:11:36.000,286,2019-08-02 10:12:53.295,0.25,90,0,90,-180,1
8056,1,0,43.514,0,-30,1,0.25,2,3,0.0,1.0,4,48.0,20.0,3,0.763,0.0,43.87600000000001,0.15,1,2019-08-02 15:38:59.000,238,2019-08-02 15:39:42.514,0.25,90,60,90,120,1
8057,2,0,48.512,0,-30,1,0.25,2,9,0.0,1.0,10,48.0,20.0,9,0.888,1.0,49.102,0.15,1,2019-08-02 15:38:59.000,238,2019-08-02 15:39:47.512,0.25,-90,-120,-90,-60,1
8058,3,0,52.529,0,-30,1,0.25,2,3,0.0,1.0,4,48.0,20.0,3,0.951,0.0,52.78,0.15,1,2019-08-02 15:38:59.000,238,2019-08-02 15:39:51.529,0.25,90,60,90,120,1
8059,4,0,55.61,0,-30,1,0.25,2,9,0.0,1.0,10,48.0,20.0,9,0.701,1.0,55.782,0.15,1,2019-08-02 15:38:59.000,238,2019-08-02 15:39:54.610,0.25,-90,-120,-90,-60,1
8060,5,0,60.01,0,-30,1,0.25,2,9,0.0,1.0,10,48.0,20.0,9,0.826,1.0,60.508,0.15,1,2019-08-02 15:38:59.000,238,2019-08-02 15:39:59.010,0.25,-90,-120,-90,-60,1
8061,6,0,71.742,0,-30,1,0.25,2,9,0.0,1.0,10,48.0,20.0,9,0.826,0.0,73.081,0.0,0,2019-08-02 15:38:59.000,238,2019-08-02 15:40:10.742,0.25,90,-120,-90,120,1
8062,8,0,80.757,0,-30,1,0.25,2,9,0.0,1.0,10,48.0,20.0,9,0.701,1.0,81.708,0.15,1,2019-08-02 15:38:59.000,238,2019-08-02 15:40:19.757,0.25,-90,-120,-90,-60,1
8063,9,0,85.75,0,-30,1,0.25,2,9,0.0,1.0,10,48.0,20.0,9,0.951,1.0,86.43299999999998,0.15,1,2019-08-02 15:38:59.000,238,2019-08-02 15:40:24.750,0.25,-90,-120,-90,-60,1
8064,10,0,93.807,0,-30,1,0.25,2,3,0.0,1.0,4,48.0,20.0,3,0.888,0.0,94.233,0.15,1,2019-08-02 15:38:59.000,238,2019-08-02 15:40:32.807,0.25,90,60,90,120,1
8065,11,0,98.805,0,-30,1,0.25,2,9,0.0,1.0,10,48.0,20.0,9,0.951,1.0,99.238,0.15,1,2019-08-02 15:38:59.000,238,2019-08-02 15:40:37.805,0.25,-90,-120,-90,-60,1
8238,1,0,34.665,0,-120,1,0.25,2,9,0.0,1.0,1,48.0,20.0,9,0.826,0.0,36.206,0.0,0,2019-08-06 09:07:02.000,234,2019-08-06 09:07:36.665,0.25,90,150,-90,-150,1
8239,3,0,51.484,0,-120,1,0.25,2,3,0.0,1.0,7,48.0,20.0,3,0.951,0.0,52.563,0.15,1,2019-08-06 09:07:02.000,234,2019-08-06 09:07:53.484,0.25,90,-30,90,-150,1
8240,4,0,55.502,0,-120,1,0.25,2,3,0.0,1.0,7,48.0,20.0,3,0.763,0.0,55.559,0.15,1,2019-08-06 09:07:02.000,234,2019-08-06 09:07:57.502,0.25,90,-30,90,-150,1
8241,5,0,60.404,1,-120,1,0.25,2,9,0.0,1.0,1,48.0,20.0,9,0.888,1.0,61.238,0.15,1,2019-08-06 09:07:02.000,234,2019-08-06 09:08:02.404,0.25,-90,150,-90,30,1
8242,6,0,65.226,0,-120,1,0.25,2,9,0.0,1.0,1,48.0,20.0,9,0.951,0.0,66.021,0.0,0,2019-08-06 09:07:02.000,234,2019-08-06 09:08:07.226,0.25,90,150,-90,-150,1
8243,9,0,83.243,0,-120,1,0.25,2,9,0.0,1.0,1,48.0,20.0,9,0.763,1.0,84.124,0.15,1,2019-08-06 09:07:02.000,234,2019-08-06 09:08:25.243,0.25,-90,150,-90,30,1
8244,10,0,88.37299999999998,0,-120,1,0.25,2,3,0.0,1.0,7,48.0,20.0,3,0.701,1.0,89.316,0.0,0,2019-08-06 09:07:02.000,234,2019-08-06 09:08:30.373,0.25,-90,-30,90,30,1
8245,12,0,97.766,1,-120,1,0.25,2,9,0.0,1.0,1,48.0,20.0,9,0.763,1.0,98.997,0.15,1,2019-08-06 09:07:02.000,234,2019-08-06 09:08:39.766,0.25,-90,150,-90,30,1
8246,13,0,105.055,0,-120,1,0.25,2,3,0.0,1.0,7,48.0,20.0,3,0.888,0.0,105.037,0.15,1,2019-08-06 09:07:02.000,234,2019-08-06 09:08:47.055,0.25,90,-30,90,-150,1
8247,14,0,111.361,1,-120,1,0.25,2,3,0.0,1.0,7,48.0,20.0,3,0.701,0.0,112.272,0.15,1,2019-08-06 09:07:02.000,234,2019-08-06 09:08:53.361,0.25,90,-30,90,-150,1
8394,1,0,21.755,0,-150,1,0.25,2,3,0.0,1.0,8,48.0,20.0,3,0.826,0.0,22.388,0.15,1,2019-08-07 09:36:40.000,306,2019-08-07 09:37:01.755,0.25,90,-60,90,-120,1
8395,2,0,25.486,0,-150,1,0.25,2,9,0.0,1.0,2,48.0,20.0,9,0.763,1.0,25.91,0.15,1,2019-08-07 09:36:40.000,306,2019-08-07 09:37:05.486,0.25,-90,120,-90,60,1
8396,3,0,33.957,0,-150,1,0.25,2,9,0.0,1.0,2,48.0,20.0,9,0.951,1.0,34.258,0.15,1,2019-08-07 09:36:40.000,306,2019-08-07 09:37:13.957,0.25,-90,120,-90,60,1
8397,4,0,38.457,0,-150,1,0.25,2,3,0.0,1.0,8,48.0,20.0,3,0.888,0.0,38.841,0.15,1,2019-08-07 09:36:40.000,306,2019-08-07 09:37:18.457,0.25,90,-60,90,-120,1
8398,5,0,42.008,0,-150,1,0.25,2,9,0.0,1.0,2,48.0,20.0,9,0.701,1.0,42.27,0.15,1,2019-08-07 09:36:40.000,306,2019-08-07 09:37:22.008,0.25,-90,120,-90,60,1
8399,6,0,46.178,0,-150,1,0.25,2,3,0.0,1.0,8,48.0,20.0,3,0.701,0.0,47.022,0.15,1,2019-08-07 09:36:40.000,306,2019-08-07 09:37:26.178,0.25,90,-60,90,-120,1
8400,7,0,50.537,0,-150,1,0.25,2,9,0.0,1.0,2,48.0,20.0,9,0.826,1.0,51.088,0.15,1,2019-08-07 09:36:40.000,306,2019-08-07 09:37:30.537,0.25,-90,120,-90,60,1
8401,8,0,55.95399999999999,0,-150,1,0.25,2,9,0.0,1.0,2,48.0,20.0,9,0.888,1.0,56.82100000000001,0.15,1,2019-08-07 09:36:40.000,306,2019-08-07 09:37:35.954,0.25,-90,120,-90,60,1
8402,9,0,61.179,0,-150,1,0.25,2,9,0.0,1.0,2,48.0,20.0,9,0.763,1.0,62.059,0.15,1,2019-08-07 09:36:40.000,306,2019-08-07 09:37:41.179,0.25,-90,120,-90,60,1
8403,10,0,71.135,0,-150,1,0.25,2,9,0.0,1.0,2,48.0,20.0,9,0.951,1.0,72.366,0.15,1,2019-08-07 09:36:40.000,306,2019-08-07 09:37:51.135,0.25,-90,120,-90,60,1
8612,1,0,55.18899999999999,0,120,1,0.25,2,9,0.0,1.0,5,48.0,20.0,9,0.826,0.0,55.609,0.0,0,2019-08-08 09:14:16.000,325,2019-08-08 09:15:11.189,0.25,90,30,-90,-30,1
8613,3,0,69.226,0,120,1,0.25,2,9,0.0,1.0,5,48.0,20.0,9,0.888,1.0,69.495,0.15,1,2019-08-08 09:14:16.000,325,2019-08-08 09:15:25.226,0.25,-90,30,-90,150,1
8614,4,0,76.48899999999998,0,120,1,0.25,2,3,0.0,1.0,11,48.0,20.0,3,0.951,0.0,76.683,0.15,1,2019-08-08 09:14:16.000,325,2019-08-08 09:15:32.489,0.25,90,-150,90,-30,1
8615,5,0,80.67399999999998,0,120,1,0.25,2,9,0.0,1.0,5,48.0,20.0,9,0.701,1.0,80.893,0.15,1,2019-08-08 09:14:16.000,325,2019-08-08 09:15:36.674,0.25,-90,30,-90,150,1
8616,6,0,84.98100000000002,0,120,1,0.25,2,9,0.0,1.0,5,48.0,20.0,9,0.701,1.0,85.484,0.15,1,2019-08-08 09:14:16.000,325,2019-08-08 09:15:40.981,0.25,-90,30,-90,150,1
8617,7,0,88.80799999999998,0,120,1,0.25,2,3,0.0,1.0,11,48.0,20.0,3,0.888,0.0,89.47200000000002,0.15,1,2019-08-08 09:14:16.000,325,2019-08-08 09:15:44.808,0.25,90,-150,90,-30,1
8618,8,0,92.965,0,120,1,0.25,2,3,0.0,1.0,11,48.0,20.0,3,0.763,0.0,93.672,0.15,1,2019-08-08 09:14:16.000,325,2019-08-08 09:15:48.965,0.25,90,-150,90,-30,1
8619,9,0,97.058,0,120,1,0.25,2,9,0.0,1.0,5,48.0,20.0,9,0.951,1.0,97.386,0.15,1,2019-08-08 09:14:16.000,325,2019-08-08 09:15:53.058,0.25,-90,30,-90,150,1
8620,10,0,103.611,0,120,1,0.25,2,9,0.0,1.0,5,48.0,20.0,9,0.826,1.0,104.105,0.15,1,2019-08-08 09:14:16.000,325,2019-08-08 09:15:59.611,0.25,-90,30,-90,150,1
8621,11,0,109.349,0,120,1,0.25,2,3,0.0,1.0,11,48.0,20.0,3,0.951,0.0,109.659,0.15,1,2019-08-08 09:14:16.000,325,2019-08-08 09:16:05.349,0.25,90,-150,90,-30,1
8827,1,0,37.809,1,30,1,0.25,2,3,0.0,1.0,2,48.0,20.0,3,0.888,0.0,41.094,0.15,1,2019-08-09 09:20:30.000,260,2019-08-09 09:21:07.809,0.25,90,120,90,60,1
8828,2,0,44.31100000000001,0,30,1,0.25,2,9,0.0,1.0,8,48.0,20.0,9,0.951,1.0,45.036,0.15,1,2019-08-09 09:20:30.000,260,2019-08-09 09:21:14.311,0.25,-90,-60,-90,-120,1
8829,3,0,47.476000000000006,0,30,1,0.25,2,9,0.0,1.0,8,48.0,20.0,9,0.826,1.0,47.995,0.15,1,2019-08-09 09:20:30.000,260,2019-08-09 09:21:17.476,0.25,-90,-60,-90,-120,1
8830,4,0,51.486,0,30,1,0.25,2,3,0.0,1.0,2,48.0,20.0,3,0.701,0.0,52.386,0.15,1,2019-08-09 09:20:30.000,260,2019-08-09 09:21:21.486,0.25,90,120,90,60,1
8831,5,0,55.142,0,30,1,0.25,2,3,0.0,1.0,2,48.0,20.0,3,0.763,0.0,55.554,0.15,1,2019-08-09 09:20:30.000,260,2019-08-09 09:21:25.142,0.25,90,120,90,60,1
8832,6,0,58.855,0,30,1,0.25,2,9,0.0,1.0,8,48.0,20.0,9,0.763,1.0,59.24100000000001,0.15,1,2019-08-09 09:20:30.000,260,2019-08-09 09:21:28.855,0.25,-90,-60,-90,-120,1
8833,7,0,65.553,1,30,1,0.25,2,9,0.0,1.0,8,48.0,20.0,9,0.951,1.0,66.22800000000001,0.15,1,2019-08-09 09:20:30.000,260,2019-08-09 09:21:35.553,0.25,-90,-60,-90,-120,1
8834,8,0,67.354,0,30,1,0.25,2,3,0.0,1.0,2,48.0,20.0,3,0.701,1.0,69.421,0.0,0,2019-08-09 09:20:30.000,260,2019-08-09 09:21:37.354,0.25,-90,120,90,-120,1
8835,10,0,77.76899999999998,0,30,1,0.25,2,9,0.0,1.0,8,48.0,20.0,9,0.826,1.0,78.687,0.15,1,2019-08-09 09:20:30.000,260,2019-08-09 09:21:47.769,0.25,-90,-60,-90,-120,1
8836,11,0,84.48100000000002,0,30,1,0.25,2,9,0.0,1.0,8,48.0,20.0,9,0.951,0.0,85.175,0.0,0,2019-08-09 09:20:30.000,260,2019-08-09 09:21:54.481,0.25,90,-60,-90,60,1
8913,1,0,59.078,0,-60,1,0.25,2,3,0.0,1.0,5,48.0,20.0,3,0.763,0.0,60.158,0.15,1,2019-08-09 14:45:54.000,272,2019-08-09 14:46:53.078,0.25,90,30,90,150,1
8914,2,0,66.60600000000001,0,-60,1,0.25,2,3,0.0,1.0,5,48.0,20.0,3,0.951,0.0,66.74600000000001,0.15,1,2019-08-09 14:45:54.000,272,2019-08-09 14:47:00.606,0.25,90,30,90,150,1
8915,3,0,70.161,0,-60,1,0.25,2,3,0.0,1.0,5,48.0,20.0,3,0.888,0.0,70.615,0.15,1,2019-08-09 14:45:54.000,272,2019-08-09 14:47:04.161,0.25,90,30,90,150,1
8916,4,0,73.245,0,-60,1,0.25,2,9,0.0,1.0,11,48.0,20.0,9,0.701,1.0,73.917,0.15,1,2019-08-09 14:45:54.000,272,2019-08-09 14:47:07.245,0.25,-90,-150,-90,-30,1
8917,5,0,77.422,0,-60,1,0.25,2,3,0.0,1.0,5,48.0,20.0,3,0.826,0.0,78.685,0.15,1,2019-08-09 14:45:54.000,272,2019-08-09 14:47:11.422,0.25,90,30,90,150,1
8918,6,0,81.833,0,-60,1,0.25,2,9,0.0,1.0,11,48.0,20.0,9,0.951,1.0,82.507,0.15,1,2019-08-09 14:45:54.000,272,2019-08-09 14:47:15.833,0.25,-90,-150,-90,-30,1
8919,7,0,86.257,0,-60,1,0.25,2,9,0.0,1.0,11,48.0,20.0,9,0.826,1.0,86.566,0.15,1,2019-08-09 14:45:54.000,272,2019-08-09 14:47:20.257,0.25,-90,-150,-90,-30,1
8920,8,0,90.135,0,-60,1,0.25,2,3,0.0,1.0,5,48.0,20.0,3,0.763,0.0,91.843,0.15,1,2019-08-09 14:45:54.000,272,2019-08-09 14:47:24.135,0.25,90,30,90,150,1
8921,9,0,95.165,0,-60,1,0.25,2,3,0.0,1.0,5,48.0,20.0,3,0.701,1.0,96.096,0.0,0,2019-08-09 14:45:54.000,272,2019-08-09 14:47:29.165,0.25,-90,30,90,-30,1
8922,11,0,101.19,0,-60,1,0.25,2,9,0.0,1.0,11,48.0,20.0,9,0.763,1.0,101.565,0.15,1,2019-08-09 14:45:54.000,272,2019-08-09 14:47:35.190,0.25,-90,-150,-90,-30,1
9128,1,0,15.263,0,180,1,0.25,2,9,0.0,1.0,3,48.0,20.0,9,0.826,1.0,15.708,0.15,1,2019-08-13 08:08:03.000,252,2019-08-13 08:08:18.263,0.25,-90,90,-90,90,1
9129,2,0,19.327,1,180,1,0.25,2,3,0.0,1.0,9,48.0,20.0,3,0.701,0.0,19.709,0.15,1,2019-08-13 08:08:03.000,252,2019-08-13 08:08:22.327,0.25,90,-90,90,-90,1
9130,3,0,22.484,0,180,1,0.25,2,9,0.0,1.0,3,48.0,20.0,9,0.888,1.0,23.673,0.15,1,2019-08-13 08:08:03.000,252,2019-08-13 08:08:25.484,0.25,-90,90,-90,90,1
9131,4,0,27.709,0,180,1,0.25,2,3,0.0,1.0,9,48.0,20.0,3,0.763,1.0,28.632,0.0,0,2019-08-13 08:08:03.000,252,2019-08-13 08:08:30.709,0.25,-90,-90,90,90,1
9132,6,0,34.122,0,180,1,0.25,2,3,0.0,1.0,9,48.0,20.0,3,0.826,1.0,35.001999999999995,0.0,0,2019-08-13 08:08:03.000,252,2019-08-13 08:08:37.122,0.25,-90,-90,90,90,1
9133,8,0,40.45,0,180,1,0.25,2,9,0.0,1.0,3,48.0,20.0,9,0.951,1.0,41.179,0.15,1,2019-08-13 08:08:03.000,252,2019-08-13 08:08:43.450,0.25,-90,90,-90,90,1
9134,9,0,51.783,1,180,1,0.25,2,3,0.0,1.0,9,48.0,20.0,3,0.763,1.0,54.59,0.0,0,2019-08-13 08:08:03.000,252,2019-08-13 08:08:54.783,0.25,-90,-90,90,90,1
9137,14,0,74.626,0,180,1,0.25,2,3,0.0,1.0,9,48.0,20.0,3,0.826,0.0,75.593,0.15,1,2019-08-13 08:08:03.000,252,2019-08-13 08:09:17.626,0.25,90,-90,90,-90,1
9138,15,0,78.657,0,180,1,0.25,2,3,0.0,1.0,9,48.0,20.0,3,0.763,1.0,79.846,0.0,0,2019-08-13 08:08:03.000,252,2019-08-13 08:09:21.657,0.25,-90,-90,90,90,1
9139,17,0,84.993,0,180,1,0.25,2,9,0.0,1.0,3,48.0,20.0,9,0.701,0.0,86.075,0.0,0,2019-08-13 08:08:03.000,252,2019-08-13 08:09:27.993,0.25,90,90,-90,-90,1
9310,1,0,16.207,1,-150,1,0.25,2,3,0.0,1.0,8,48.0,20.0,3,0.763,1.0,18.962,0.0,0,2019-08-14 08:59:27.000,309,2019-08-14 08:59:43.207,0.25,-90,-60,90,60,1
9311,3,0,24.832,0,-150,1,0.25,2,9,0.0,1.0,2,48.0,20.0,9,0.701,1.0,25.809,0.15,1,2019-08-14 08:59:27.000,309,2019-08-14 08:59:51.832,0.25,-90,120,-90,60,1
9312,4,0,30.116,1,-150,1,0.25,2,3,0.0,1.0,8,48.0,20.0,3,0.951,0.0,33.84,0.15,1,2019-08-14 08:59:27.000,309,2019-08-14 08:59:57.116,0.25,90,-60,90,-120,1
9313,5,0,36.805,0,-150,1,0.25,2,3,0.0,1.0,8,48.0,20.0,3,0.826,1.0,37.872,0.0,0,2019-08-14 08:59:27.000,309,2019-08-14 09:00:03.805,0.25,-90,-60,90,60,1
9314,7,0,43.942,0,-150,1,0.25,2,3,0.0,1.0,8,48.0,20.0,3,0.951,1.0,44.925,0.0,0,2019-08-14 08:59:27.000,309,2019-08-14 09:00:10.942,0.25,-90,-60,90,60,1
9315,9,0,52.087,0,-150,1,0.25,2,3,0.0,1.0,8,48.0,20.0,3,0.826,0.0,52.378,0.15,1,2019-08-14 08:59:27.000,309,2019-08-14 09:00:19.087,0.25,90,-60,90,-120,1
9316,10,0,56.331,0,-150,1,0.25,2,3,0.0,1.0,8,48.0,20.0,3,0.763,0.0,57.35,0.15,1,2019-08-14 08:59:27.000,309,2019-08-14 09:00:23.331,0.25,90,-60,90,-120,1
9317,11,0,63.254,0,-150,1,0.25,2,3,0.0,1.0,8,48.0,20.0,3,0.763,0.0,64.312,0.15,1,2019-08-14 08:59:27.000,309,2019-08-14 09:00:30.254,0.25,90,-60,90,-120,1
9318,12,0,67.368,0,-150,1,0.25,2,9,0.0,1.0,2,48.0,20.0,9,0.826,1.0,67.993,0.15,1,2019-08-14 08:59:27.000,309,2019-08-14 09:00:34.368,0.25,-90,120,-90,60,1
9319,13,0,71.311,0,-150,1,0.25,2,9,0.0,1.0,2,48.0,20.0,9,0.701,1.0,72.425,0.15,1,2019-08-14 08:59:27.000,309,2019-08-14 09:00:38.311,0.25,-90,120,-90,60,1
9518,1,0,27.074,0,-90,1,0.25,2,3,0.0,1.0,6,48.0,20.0,3,0.888,0.0,27.82,0.15,1,2019-08-15 08:42:40.000,233,2019-08-15 08:43:07.074,0.25,90,0,90,-180,1
9519,2,0,30.82,0,-90,1,0.25,2,9,0.0,1.0,12,48.0,20.0,9,0.826,1.0,31.255,0.15,1,2019-08-15 08:42:40.000,233,2019-08-15 08:43:10.820,0.25,-90,-180,-90,0,1
9520,3,0,34.29,0,-90,1,0.25,2,9,0.0,1.0,12,48.0,20.0,9,0.951,1.0,34.668,0.15,1,2019-08-15 08:42:40.000,233,2019-08-15 08:43:14.290,0.25,-90,-180,-90,0,1
9521,4,0,38.047,0,-90,1,0.25,2,3,0.0,1.0,6,48.0,20.0,3,0.701,0.0,39.393,0.15,1,2019-08-15 08:42:40.000,233,2019-08-15 08:43:18.047,0.25,90,0,90,-180,1
9522,5,0,42.332,0,-90,1,0.25,2,9,0.0,1.0,12,48.0,20.0,9,0.763,1.0,43.032,0.15,1,2019-08-15 08:42:40.000,233,2019-08-15 08:43:22.332,0.25,-90,-180,-90,0,1
9523,6,0,46.57,0,-90,1,0.25,2,9,0.0,1.0,12,48.0,20.0,9,0.951,0.0,47.402,0.0,0,2019-08-15 08:42:40.000,233,2019-08-15 08:43:26.570,0.25,90,-180,-90,-180,1
9524,8,0,53.003,0,-90,1,0.25,2,3,0.0,1.0,6,48.0,20.0,3,0.888,0.0,54.0,0.15,1,2019-08-15 08:42:40.000,233,2019-08-15 08:43:33.003,0.25,90,0,90,-180,1
9525,9,0,57.64100000000001,1,-90,1,0.25,2,9,0.0,1.0,12,48.0,20.0,9,0.701,1.0,60.337,0.15,1,2019-08-15 08:42:40.000,233,2019-08-15 08:43:37.641,0.25,-90,-180,-90,0,1
9526,10,0,64.079,0,-90,1,0.25,2,3,0.0,1.0,6,48.0,20.0,3,0.763,0.0,64.73,0.15,1,2019-08-15 08:42:40.000,233,2019-08-15 08:43:44.079,0.25,90,0,90,-180,1
9527,11,0,68.182,0,-90,1,0.25,2,9,0.0,1.0,12,48.0,20.0,9,0.951,1.0,68.553,0.15,1,2019-08-15 08:42:40.000,233,2019-08-15 08:43:48.182,0.25,-90,-180,-90,0,1
9593,1,0,69.153,0,180,1,0.25,2,9,0.0,1.0,3,48.0,20.0,9,0.701,1.0,69.715,0.15,1,2019-08-15 14:27:01.000,264,2019-08-15 14:28:10.153,0.25,-90,90,-90,90,1
9594,2,0,72.862,0,180,1,0.25,2,9,0.0,1.0,3,48.0,20.0,9,0.763,1.0,75.411,0.15,1,2019-08-15 14:27:01.000,264,2019-08-15 14:28:13.862,0.25,-90,90,-90,90,1
9595,3,0,79.165,0,180,1,0.25,2,3,0.0,1.0,9,48.0,20.0,3,0.826,1.0,80.44,0.0,0,2019-08-15 14:27:01.000,264,2019-08-15 14:28:20.165,0.25,-90,-90,90,90,1
9596,6,0,92.302,0,180,1,0.25,2,9,0.0,1.0,3,48.0,20.0,9,0.701,1.0,92.977,0.15,1,2019-08-15 14:27:01.000,264,2019-08-15 14:28:33.302,0.25,-90,90,-90,90,1
9597,7,0,96.107,0,180,1,0.25,2,3,0.0,1.0,9,48.0,20.0,3,0.826,0.0,96.845,0.15,1,2019-08-15 14:27:01.000,264,2019-08-15 14:28:37.107,0.25,90,-90,90,-90,1
9598,8,0,100.185,0,180,1,0.25,2,3,0.0,1.0,9,48.0,20.0,3,0.763,1.0,101.227,0.0,0,2019-08-15 14:27:01.000,264,2019-08-15 14:28:41.185,0.25,-90,-90,90,90,1
9599,10,0,110.469,0,180,1,0.25,2,3,0.0,1.0,9,48.0,20.0,3,0.951,0.0,111.337,0.15,1,2019-08-15 14:27:01.000,264,2019-08-15 14:28:51.469,0.25,90,-90,90,-90,1
9602,13,0,127.231,0,180,1,0.25,2,3,0.0,1.0,9,48.0,20.0,3,0.826,0.0,127.194,0.15,1,2019-08-15 14:27:01.000,264,2019-08-15 14:29:08.231,0.25,90,-90,90,-90,1
9603,14,0,131.907,0,180,1,0.25,2,3,0.0,1.0,9,48.0,20.0,3,0.888,1.0,132.816,0.0,0,2019-08-15 14:27:01.000,264,2019-08-15 14:29:12.907,0.25,-90,-90,90,90,1
9604,16,0,138.468,0,180,1,0.25,2,3,0.0,1.0,9,48.0,20.0,3,0.701,0.0,139.349,0.15,1,2019-08-15 14:27:01.000,264,2019-08-15 14:29:19.468,0.25,90,-90,90,-90,1
9940,1,0,87.395,1,-30,1,0.25,2,3,0.0,1.0,4,48.0,20.0,3,0.888,0.0,92.025,0.15,1,2019-08-30 14:38:38.000,246,2019-08-30 14:40:05.395,0.25,90,60,90,120,1
9941,2,0,94.535,1,-30,1,0.25,2,9,0.0,1.0,10,48.0,20.0,9,0.701,1.0,97.073,0.15,1,2019-08-30 14:38:38.000,246,2019-08-30 14:40:12.535,0.25,-90,-120,-90,-60,1
9942,3,0,100.916,1,-30,1,0.25,2,3,0.0,1.0,4,48.0,20.0,3,0.763,0.0,102.886,0.15,1,2019-08-30 14:38:38.000,246,2019-08-30 14:40:18.916,0.25,90,60,90,120,1
9943,4,0,105.044,1,-30,1,0.25,2,3,0.0,1.0,4,48.0,20.0,3,0.951,0.0,106.973,0.15,1,2019-08-30 14:38:38.000,246,2019-08-30 14:40:23.044,0.25,90,60,90,120,1
9944,5,0,111.362,1,-30,1,0.25,2,3,0.0,1.0,4,48.0,20.0,3,0.826,1.0,113.457,0.0,0,2019-08-30 14:38:38.000,246,2019-08-30 14:40:29.362,0.25,-90,60,90,-60,1
9945,7,0,119.075,1,-30,1,0.25,2,3,0.0,1.0,4,48.0,20.0,3,0.826,1.0,122.161,0.0,0,2019-08-30 14:38:38.000,246,2019-08-30 14:40:37.075,0.25,-90,60,90,-60,1
9946,10,0,138.622,1,-30,1,0.25,2,9,0.0,1.0,10,48.0,20.0,9,0.763,1.0,140.475,0.15,1,2019-08-30 14:38:38.000,246,2019-08-30 14:40:56.622,0.25,-90,-120,-90,-60,1
9947,11,0,142.24,1,-30,1,0.25,2,3,0.0,1.0,4,48.0,20.0,3,0.826,0.0,144.16,0.15,1,2019-08-30 14:38:38.000,246,2019-08-30 14:41:00.240,0.25,90,60,90,120,1
9948,12,0,147.671,1,-30,1,0.25,2,9,0.0,1.0,10,48.0,20.0,9,0.951,1.0,150.031,0.15,1,2019-08-30 14:38:38.000,246,2019-08-30 14:41:05.671,0.25,-90,-120,-90,-60,1
9949,13,0,154.66,1,-30,1,0.25,2,3,0.0,1.0,4,48.0,20.0,3,0.888,1.0,156.966,0.0,0,2019-08-30 14:38:38.000,246,2019-08-30 14:41:12.660,0.25,-90,60,90,-60,1
10001,1,0,55.032,1,0,1,0.25,2,3,0.0,1.0,3,48.0,20.0,3,0.763,1.0,57.981,0.0,0,2019-09-16 10:19:44.000,257,2019-09-16 10:20:39.032,0.25,-90,90,90,-90,1
10002,4,0,79.976,1,0,1,0.25,2,3,0.0,1.0,3,48.0,20.0,3,0.951,0.0,84.391,0.15,1,2019-09-16 10:19:44.000,257,2019-09-16 10:21:03.976,0.25,90,90,90,90,1
10003,5,0,88.059,1,0,1,0.25,2,3,0.0,1.0,3,48.0,20.0,3,0.701,0.0,90.61,0.15,1,2019-09-16 10:19:44.000,257,2019-09-16 10:21:12.059,0.25,90,90,90,90,1
10004,6,0,92.627,1,0,1,0.25,2,9,0.0,1.0,9,48.0,20.0,9,0.763,0.0,100.038,0.0,0,2019-09-16 10:19:44.000,257,2019-09-16 10:21:16.627,0.25,90,-90,-90,90,1
10005,18,0,190.944,1,0,1,0.25,2,3,0.0,1.0,3,48.0,20.0,3,0.951,0.0,196.614,0.15,1,2019-09-16 10:19:44.000,257,2019-09-16 10:22:54.944,0.25,90,90,90,90,1
10006,19,0,201.006,1,0,1,0.25,2,9,0.0,1.0,9,48.0,20.0,9,0.888,0.0,203.55900000000003,0.0,0,2019-09-16 10:19:44.000,257,2019-09-16 10:23:05.006,0.25,90,-90,-90,90,1
10007,22,0,219.26,1,0,1,0.25,2,9,0.0,1.0,9,48.0,20.0,9,0.701,0.0,225.029,0.0,0,2019-09-16 10:19:44.000,257,2019-09-16 10:23:23.260,0.25,90,-90,-90,90,1
10008,26,0,244.704,1,0,1,0.25,2,3,0.0,1.0,3,48.0,20.0,3,0.763,0.0,248.353,0.15,1,2019-09-16 10:19:44.000,257,2019-09-16 10:23:48.704,0.25,90,90,90,90,1
10009,27,0,252.197,1,0,1,0.25,2,3,0.0,1.0,3,48.0,20.0,3,0.951,1.0,255.283,0.0,0,2019-09-16 10:19:44.000,257,2019-09-16 10:23:56.197,0.25,-90,90,90,-90,1
10010,31,0,273.008,1,0,1,0.25,2,9,0.0,1.0,9,48.0,20.0,9,0.826,0.0,276.33,0.0,0,2019-09-16 10:19:44.000,257,2019-09-16 10:24:17.008,0.25,90,-90,-90,90,1
10130,1,0,54.794,0,60,1,0.25,2,3,0.0,1.0,1,48.0,20.0,3,0.763,0.0,55.701,0.15,1,2019-09-18 08:44:16.000,320,2019-09-18 08:45:10.794,0.25,90,150,90,30,1
10131,2,0,65.607,0,60,1,0.25,2,3,0.0,1.0,1,48.0,20.0,3,0.701,0.0,66.493,0.15,1,2019-09-18 08:44:16.000,320,2019-09-18 08:45:21.607,0.25,90,150,90,30,1
10132,3,0,69.911,0,60,1,0.25,2,9,0.0,1.0,7,48.0,20.0,9,0.888,0.0,70.61,0.0,0,2019-09-18 08:44:16.000,320,2019-09-18 08:45:25.911,0.25,90,-30,-90,30,1
10133,5,0,83.63600000000002,1,60,1,0.25,2,9,0.0,1.0,7,48.0,20.0,9,0.826,1.0,85.51700000000002,0.15,1,2019-09-18 08:44:16.000,320,2019-09-18 08:45:39.636,0.25,-90,-30,-90,-150,1
10134,6,0,89.32,1,60,1,0.25,2,3,0.0,1.0,1,48.0,20.0,3,0.826,0.0,91.547,0.15,1,2019-09-18 08:44:16.000,320,2019-09-18 08:45:45.320,0.25,90,150,90,30,1
10135,7,0,106.424,1,60,1,0.25,2,9,0.0,1.0,7,48.0,20.0,9,0.888,0.0,108.857,0.0,0,2019-09-18 08:44:16.000,320,2019-09-18 08:46:02.424,0.25,90,-30,-90,30,1
10136,9,0,119.726,0,60,1,0.25,2,9,0.0,1.0,7,48.0,20.0,9,0.763,1.0,120.356,0.15,1,2019-09-18 08:44:16.000,320,2019-09-18 08:46:15.726,0.25,-90,-30,-90,-150,1
10137,10,0,123.678,0,60,1,0.25,2,3,0.0,1.0,1,48.0,20.0,3,0.701,0.0,124.582,0.15,1,2019-09-18 08:44:16.000,320,2019-09-18 08:46:19.678,0.25,90,150,90,30,1
10138,11,0,128.232,0,60,1,0.25,2,3,0.0,1.0,1,48.0,20.0,3,0.888,0.0,128.786,0.15,1,2019-09-18 08:44:16.000,320,2019-09-18 08:46:24.232,0.25,90,150,90,30,1
10139,12,0,134.66899999999998,0,60,1,0.25,2,3,0.0,1.0,1,48.0,20.0,3,0.701,1.0,135.773,0.0,0,2019-09-18 08:44:16.000,320,2019-09-18 08:46:30.669,0.25,-90,150,90,-150,1
10294,1,0,49.635,1,-90,1,0.25,2,9,0.0,1.0,12,48.0,20.0,9,0.763,1.0,50.228,0.15,1,2019-09-19 08:46:41.000,299,2019-09-19 08:47:30.635,0.25,-90,-180,-90,0,1
10295,2,0,57.383,1,-90,1,0.25,2,9,0.0,1.0,12,48.0,20.0,9,0.888,1.0,59.437,0.15,1,2019-09-19 08:46:41.000,299,2019-09-19 08:47:38.383,0.25,-90,-180,-90,0,1
10296,3,0,66.217,0,-90,1,0.25,2,9,0.0,1.0,12,48.0,20.0,9,0.701,1.0,66.86399999999999,0.15,1,2019-09-19 08:46:41.000,299,2019-09-19 08:47:47.217,0.25,-90,-180,-90,0,1
10297,4,0,70.52600000000002,0,-90,1,0.25,2,9,0.0,1.0,12,48.0,20.0,9,0.826,1.0,71.179,0.15,1,2019-09-19 08:46:41.000,299,2019-09-19 08:47:51.526,0.25,-90,-180,-90,0,1
10298,5,0,76.122,0,-90,1,0.25,2,3,0.0,1.0,6,48.0,20.0,3,0.951,1.0,76.717,0.0,0,2019-09-19 08:46:41.000,299,2019-09-19 08:47:57.122,0.25,-90,0,90,0,1
10299,8,0,89.0,1,-90,1,0.25,2,3,0.0,1.0,6,48.0,20.0,3,0.951,1.0,92.087,0.0,0,2019-09-19 08:46:41.000,299,2019-09-19 08:48:10.000,0.25,-90,0,90,0,1
10300,10,0,97.917,0,-90,1,0.25,2,3,0.0,1.0,6,48.0,20.0,3,0.888,0.0,98.186,0.15,1,2019-09-19 08:46:41.000,299,2019-09-19 08:48:18.917,0.25,90,0,90,-180,1
10301,11,0,101.735,1,-90,1,0.25,2,3,0.0,1.0,6,48.0,20.0,3,0.888,0.0,105.096,0.15,1,2019-09-19 08:46:41.000,299,2019-09-19 08:48:22.735,0.25,90,0,90,-180,1
10302,12,0,108.36,1,-90,1,0.25,2,9,0.0,1.0,12,48.0,20.0,9,0.701,1.0,111.142,0.15,1,2019-09-19 08:46:41.000,299,2019-09-19 08:48:29.360,0.25,-90,-180,-90,0,1
10303,13,0,117.617,0,-90,1,0.25,2,3,0.0,1.0,6,48.0,20.0,3,0.826,1.0,118.51,0.0,0,2019-09-19 08:46:41.000,299,2019-09-19 08:48:38.617,0.25,-90,0,90,0,1
10386,1,0,36.967,1,90,1,0.25,2,9,0.0,1.0,6,48.0,20.0,9,0.951,0.0,40.128,0.0,0,2019-09-20 09:04:43.000,328,2019-09-20 09:05:19.967,0.25,90,0,-90,0,1
10387,3,0,47.728,1,90,1,0.25,2,3,0.0,1.0,12,48.0,20.0,3,0.763,0.0,50.865,0.15,1,2019-09-20 09:04:43.000,328,2019-09-20 09:05:30.728,0.25,90,-180,90,0,1
10388,4,0,54.972,0,90,1,0.25,2,9,0.0,1.0,6,48.0,20.0,9,0.826,1.0,55.675,0.15,1,2019-09-20 09:04:43.000,328,2019-09-20 09:05:37.972,0.25,-90,0,-90,-180,1
10389,5,0,61.64,1,90,1,0.25,2,9,0.0,1.0,6,48.0,20.0,9,0.701,0.0,64.347,0.0,0,2019-09-20 09:04:43.000,328,2019-09-20 09:05:44.640,0.25,90,0,-90,0,1
10390,8,0,81.343,1,90,1,0.25,2,9,0.0,1.0,6,48.0,20.0,9,0.763,0.0,84.149,0.0,0,2019-09-20 09:04:43.000,328,2019-09-20 09:06:04.343,0.25,90,0,-90,0,1
10391,10,0,91.62,0,90,1,0.25,2,9,0.0,1.0,6,48.0,20.0,9,0.888,1.0,92.554,0.15,1,2019-09-20 09:04:43.000,328,2019-09-20 09:06:14.620,0.25,-90,0,-90,-180,1
10392,11,0,96.399,1,90,1,0.25,2,3,0.0,1.0,12,48.0,20.0,3,0.701,0.0,99.25,0.15,1,2019-09-20 09:04:43.000,328,2019-09-20 09:06:19.399,0.25,90,-180,90,0,1
10393,12,0,102.658,1,90,1,0.25,2,9,0.0,1.0,6,48.0,20.0,9,0.951,0.0,105.652,0.0,0,2019-09-20 09:04:43.000,328,2019-09-20 09:06:25.658,0.25,90,0,-90,0,1
10394,14,0,112.743,1,90,1,0.25,2,3,0.0,1.0,12,48.0,20.0,3,0.888,0.0,115.352,0.15,1,2019-09-20 09:04:43.000,328,2019-09-20 09:06:35.743,0.25,90,-180,90,0,1
10395,15,0,118.663,1,90,1,0.25,2,3,0.0,1.0,12,48.0,20.0,3,0.826,0.0,120.869,0.15,1,2019-09-20 09:04:43.000,328,2019-09-20 09:06:41.663,0.25,90,-180,90,0,1
10594,1,0,28.554,1,0,1,0.25,2,3,0.0,1.0,3,48.0,20.0,3,0.888,1.0,31.974,0.0,0,2019-09-23 09:08:48.000,305,2019-09-23 09:09:16.554,0.25,-90,90,90,-90,1
10595,3,0,45.162,0,0,1,0.25,2,3,0.0,1.0,3,48.0,20.0,3,0.701,1.0,46.75100000000001,0.0,0,2019-09-23 09:08:48.000,305,2019-09-23 09:09:33.162,0.25,-90,90,90,-90,1
10596,5,0,56.125,1,0,1,0.25,2,9,0.0,1.0,9,48.0,20.0,9,0.951,1.0,59.456,0.15,1,2019-09-23 09:08:48.000,305,2019-09-23 09:09:44.125,0.25,-90,-90,-90,-90,1
10597,6,0,68.238,0,0,1,0.25,2,9,0.0,1.0,9,48.0,20.0,9,0.763,1.0,69.025,0.15,1,2019-09-23 09:08:48.000,305,2019-09-23 09:09:56.238,0.25,-90,-90,-90,-90,1
10598,7,0,84.81,0,0,1,0.25,2,3,0.0,1.0,3,48.0,20.0,3,0.951,0.0,85.37899999999998,0.15,1,2019-09-23 09:08:48.000,305,2019-09-23 09:10:12.810,0.25,90,90,90,90,1
10599,8,0,89.11,0,0,1,0.25,2,3,0.0,1.0,3,48.0,20.0,3,0.888,1.0,89.795,0.0,0,2019-09-23 09:08:48.000,305,2019-09-23 09:10:17.110,0.25,-90,90,90,-90,1
10600,10,0,99.949,0,0,1,0.25,2,3,0.0,1.0,3,48.0,20.0,3,0.701,1.0,100.773,0.0,0,2019-09-23 09:08:48.000,305,2019-09-23 09:10:27.949,0.25,-90,90,90,-90,1
10601,12,0,112.339,1,0,1,0.25,2,9,0.0,1.0,9,48.0,20.0,9,0.701,0.0,114.99,0.0,0,2019-09-23 09:08:48.000,305,2019-09-23 09:10:40.339,0.25,90,-90,-90,90,1
10602,14,0,121.681,0,0,1,0.25,2,9,0.0,1.0,9,48.0,20.0,9,0.763,1.0,122.42,0.15,1,2019-09-23 09:08:48.000,305,2019-09-23 09:10:49.681,0.25,-90,-90,-90,-90,1
10603,15,0,130.942,1,0,1,0.25,2,3,0.0,1.0,3,48.0,20.0,3,0.888,0.0,134.235,0.15,1,2019-09-23 09:08:48.000,305,2019-09-23 09:10:58.942,0.25,90,90,90,90,1
10745,1,0,23.469,0,-120,1,0.25,2,3,0.0,1.0,7,48.0,20.0,3,0.701,1.0,24.298,0.0,0,2019-09-24 10:08:35.000,213,2019-09-24 10:08:58.469,0.25,-90,-30,90,30,1
10746,3,0,35.764,1,-120,1,0.25,2,9,0.0,1.0,1,48.0,20.0,9,0.826,0.0,36.487,0.0,0,2019-09-24 10:08:35.000,213,2019-09-24 10:09:10.764,0.25,90,150,-90,-150,1
10747,5,0,53.974,0,-120,1,0.25,2,9,0.0,1.0,1,48.0,20.0,9,0.763,1.0,55.104,0.15,1,2019-09-24 10:08:35.000,213,2019-09-24 10:09:28.974,0.25,-90,150,-90,30,1
10748,6,0,61.178,0,-120,1,0.25,2,3,0.0,1.0,7,48.0,20.0,3,0.951,1.0,62.219,0.0,0,2019-09-24 10:08:35.000,213,2019-09-24 10:09:36.178,0.25,-90,-30,90,30,1
10749,8,0,69.101,0,-120,1,0.25,2,3,0.0,1.0,7,48.0,20.0,3,0.701,1.0,70.054,0.0,0,2019-09-24 10:08:35.000,213,2019-09-24 10:09:44.101,0.25,-90,-30,90,30,1
10750,10,0,77.50399999999998,0,-120,1,0.25,2,3,0.0,1.0,7,48.0,20.0,3,0.888,1.0,78.91,0.0,0,2019-09-24 10:08:35.000,213,2019-09-24 10:09:52.504,0.25,-90,-30,90,30,1
10751,12,0,90.086,0,-120,1,0.25,2,3,0.0,1.0,7,48.0,20.0,3,0.763,1.0,91.144,0.0,0,2019-09-24 10:08:35.000,213,2019-09-24 10:10:05.086,0.25,-90,-30,90,30,1
10752,14,0,97.207,0,-120,1,0.25,2,9,0.0,1.0,1,48.0,20.0,9,0.888,1.0,98.099,0.15,1,2019-09-24 10:08:35.000,213,2019-09-24 10:10:12.207,0.25,-90,150,-90,30,1
10753,15,0,103.21,1,-120,1,0.25,2,3,0.0,1.0,7,48.0,20.0,3,0.826,0.0,104.185,0.15,1,2019-09-24 10:08:35.000,213,2019-09-24 10:10:18.210,0.25,90,-30,90,-150,1
10754,16,0,115.352,0,-120,1,0.25,2,3,0.0,1.0,7,48.0,20.0,3,0.826,0.0,115.968,0.15,1,2019-09-24 10:08:35.000,213,2019-09-24 10:10:30.352,0.25,90,-30,90,-150,1
10983,1,0,25.507,0,120,1,0.25,2,9,0.0,1.0,5,48.0,20.0,9,0.826,0.0,26.858,0.0,0,2019-09-25 09:18:09.000,215,2019-09-25 09:18:34.507,0.25,90,30,-90,-30,1
10984,4,0,62.43899999999999,1,120,1,0.25,2,9,0.0,1.0,5,48.0,20.0,9,0.763,1.0,65.043,0.15,1,2019-09-25 09:18:09.000,215,2019-09-25 09:19:11.439,0.25,-90,30,-90,150,1
10985,5,0,69.046,0,120,1,0.25,2,3,0.0,1.0,11,48.0,20.0,3,0.888,0.0,69.686,0.15,1,2019-09-25 09:18:09.000,215,2019-09-25 09:19:18.046,0.25,90,-150,90,-30,1
10986,6,0,76.278,0,120,1,0.25,2,3,0.0,1.0,11,48.0,20.0,3,0.951,1.0,76.637,0.0,0,2019-09-25 09:18:09.000,215,2019-09-25 09:19:25.278,0.25,-90,-150,90,150,1
10987,8,0,83.35799999999998,0,120,1,0.25,2,9,0.0,1.0,5,48.0,20.0,9,0.763,1.0,84.081,0.15,1,2019-09-25 09:18:09.000,215,2019-09-25 09:19:32.358,0.25,-90,30,-90,150,1
10988,9,0,96.192,0,120,1,0.25,2,9,0.0,1.0,5,48.0,20.0,9,0.701,1.0,97.051,0.15,1,2019-09-25 09:18:09.000,215,2019-09-25 09:19:45.192,0.25,-90,30,-90,150,1
10989,10,0,101.522,0,120,1,0.25,2,3,0.0,1.0,11,48.0,20.0,3,0.888,0.0,102.163,0.15,1,2019-09-25 09:18:09.000,215,2019-09-25 09:19:50.522,0.25,90,-150,90,-30,1
10990,11,0,106.074,0,120,1,0.25,2,3,0.0,1.0,11,48.0,20.0,3,0.951,0.0,106.276,0.15,1,2019-09-25 09:18:09.000,215,2019-09-25 09:19:55.074,0.25,90,-150,90,-30,1
10991,12,0,110.904,0,120,1,0.25,2,9,0.0,1.0,5,48.0,20.0,9,0.888,1.0,111.542,0.15,1,2019-09-25 09:18:09.000,215,2019-09-25 09:19:59.904,0.25,-90,30,-90,150,1
10992,13,0,115.87,0,120,1,0.25,2,3,0.0,1.0,11,48.0,20.0,3,0.701,0.0,116.048,0.15,1,2019-09-25 09:18:09.000,215,2019-09-25 09:20:04.870,0.25,90,-150,90,-30,1
11157,1,0,17.886,1,180,1,0.25,2,9,0.0,1.0,3,48.0,20.0,9,0.888,0.0,20.526,0.0,0,2019-09-26 09:24:19.000,229,2019-09-26 09:24:36.886,0.25,90,90,-90,-90,1
11158,3,0,25.889,1,180,1,0.25,2,9,0.0,1.0,3,48.0,20.0,9,0.763,0.0,29.222,0.0,0,2019-09-26 09:24:19.000,229,2019-09-26 09:24:44.889,0.25,90,90,-90,-90,1
11159,5,0,38.137,1,180,1,0.25,2,3,0.0,1.0,9,48.0,20.0,3,0.826,0.0,40.878,0.15,1,2019-09-26 09:24:19.000,229,2019-09-26 09:24:57.137,0.25,90,-90,90,-90,1
11160,6,0,44.02,1,180,1,0.25,2,3,0.0,1.0,9,48.0,20.0,3,0.701,0.0,49.573,0.15,1,2019-09-26 09:24:19.000,229,2019-09-26 09:25:03.020,0.25,90,-90,90,-90,1
11161,7,0,53.552,0,180,1,0.25,2,3,0.0,1.0,9,48.0,20.0,3,0.951,0.0,54.166,0.15,1,2019-09-26 09:24:19.000,229,2019-09-26 09:25:12.552,0.25,90,-90,90,-90,1
11162,8,0,57.309,0,180,1,0.25,2,9,0.0,1.0,3,48.0,20.0,9,0.826,0.0,64.173,0.0,0,2019-09-26 09:24:19.000,229,2019-09-26 09:25:16.309,0.25,90,90,-90,-90,1
11163,10,0,74.182,0,180,1,0.25,2,9,0.0,1.0,3,48.0,20.0,9,0.763,1.0,75.265,0.15,1,2019-09-26 09:24:19.000,229,2019-09-26 09:25:33.182,0.25,-90,90,-90,90,1
11164,11,0,81.38600000000002,0,180,1,0.25,2,3,0.0,1.0,9,48.0,20.0,3,0.826,0.0,82.08,0.15,1,2019-09-26 09:24:19.000,229,2019-09-26 09:25:40.386,0.25,90,-90,90,-90,1
11165,12,0,98.224,0,180,1,0.25,2,9,0.0,1.0,3,48.0,20.0,9,0.888,1.0,99.043,0.15,1,2019-09-26 09:24:19.000,229,2019-09-26 09:25:57.224,0.25,-90,90,-90,90,1
11166,13,0,108.853,0,180,1,0.25,2,9,0.0,1.0,3,48.0,20.0,9,0.951,0.0,109.383,0.0,0,2019-09-26 09:24:19.000,229,2019-09-26 09:26:07.853,0.25,90,90,-90,-90,1
11238,1,0,36.495,0,30,1,0.25,2,9,0.0,1.0,8,48.0,20.0,9,0.888,1.0,37.149,0.15,1,2019-09-26 14:50:47.000,230,2019-09-26 14:51:23.495,0.25,-90,-60,-90,-120,1
11239,2,0,41.392,0,30,1,0.25,2,3,0.0,1.0,2,48.0,20.0,3,0.763,1.0,42.026,0.0,0,2019-09-26 14:50:47.000,230,2019-09-26 14:51:28.392,0.25,-90,120,90,-120,1
11240,4,0,48.112,1,30,1,0.25,2,9,0.0,1.0,8,48.0,20.0,9,0.951,0.0,49.98,0.0,0,2019-09-26 14:50:47.000,230,2019-09-26 14:51:35.112,0.25,90,-60,-90,60,1
11241,8,0,66.558,0,30,1,0.25,2,3,0.0,1.0,2,48.0,20.0,3,0.701,0.0,67.609,0.15,1,2019-09-26 14:50:47.000,230,2019-09-26 14:51:53.558,0.25,90,120,90,60,1
11242,9,0,70.87899999999998,0,30,1,0.25,2,9,0.0,1.0,8,48.0,20.0,9,0.826,0.0,71.743,0.0,0,2019-09-26 14:50:47.000,230,2019-09-26 14:51:57.879,0.25,90,-60,-90,60,1
11243,11,0,77.61399999999998,1,30,1,0.25,2,9,0.0,1.0,8,48.0,20.0,9,0.826,0.0,80.816,0.0,0,2019-09-26 14:50:47.000,230,2019-09-26 14:52:04.614,0.25,90,-60,-90,60,1
11244,13,0,89.458,0,30,1,0.25,2,9,0.0,1.0,8,48.0,20.0,9,0.763,1.0,90.44,0.15,1,2019-09-26 14:50:47.000,230,2019-09-26 14:52:16.458,0.25,-90,-60,-90,-120,1
11246,15,0,105.689,1,30,1,0.25,2,3,0.0,1.0,2,48.0,20.0,3,0.888,0.0,108.904,0.15,1,2019-09-26 14:50:47.000,230,2019-09-26 14:52:32.689,0.25,90,120,90,60,1
11247,16,0,114.7,0,30,1,0.25,2,9,0.0,1.0,8,48.0,20.0,9,0.763,1.0,116.377,0.15,1,2019-09-26 14:50:47.000,230,2019-09-26 14:52:41.700,0.25,-90,-60,-90,-120,1
11248,17,0,121.16,0,30,1,0.25,2,3,0.0,1.0,2,48.0,20.0,3,0.888,0.0,122.064,0.15,1,2019-09-26 14:50:47.000,230,2019-09-26 14:52:48.160,0.25,90,120,90,60,1
11549,1,0,20.318,1,0,1,0.25,2,3,0.0,1.0,3,48.0,20.0,3,0.763,1.0,23.831,0.0,0,2019-09-30 15:29:39.000,289,2019-09-30 15:29:59.318,0.25,-90,90,90,-90,1
11550,3,0,32.513000000000005,0,0,1,0.25,2,3,0.0,1.0,3,48.0,20.0,3,0.701,0.0,33.806999999999995,0.15,1,2019-09-30 15:29:39.000,289,2019-09-30 15:30:11.513,0.25,90,90,90,90,1
11551,4,0,38.504,1,0,1,0.25,2,9,0.0,1.0,9,48.0,20.0,9,0.951,0.0,40.968,0.0,0,2019-09-30 15:29:39.000,289,2019-09-30 15:30:17.504,0.25,90,-90,-90,90,1
11552,8,0,55.362,0,0,1,0.25,2,3,0.0,1.0,3,48.0,20.0,3,0.951,0.0,55.967,0.15,1,2019-09-30 15:29:39.000,289,2019-09-30 15:30:34.362,0.25,90,90,90,90,1
11553,9,0,59.70399999999999,1,0,1,0.25,2,3,0.0,1.0,3,48.0,20.0,3,0.888,1.0,62.542,0.0,0,2019-09-30 15:29:39.000,289,2019-09-30 15:30:38.704,0.25,-90,90,90,-90,1
11554,11,0,69.471,0,0,1,0.25,2,9,0.0,1.0,9,48.0,20.0,9,0.701,0.0,70.893,0.0,0,2019-09-30 15:29:39.000,289,2019-09-30 15:30:48.471,0.25,90,-90,-90,90,1
11555,13,0,83.39299999999999,1,0,1,0.25,2,9,0.0,1.0,9,48.0,20.0,9,0.763,1.0,86.279,0.15,1,2019-09-30 15:29:39.000,289,2019-09-30 15:31:02.393,0.25,-90,-90,-90,-90,1
11556,14,0,91.451,1,0,1,0.25,2,9,0.0,1.0,9,48.0,20.0,9,0.888,1.0,95.376,0.15,1,2019-09-30 15:29:39.000,289,2019-09-30 15:31:10.451,0.25,-90,-90,-90,-90,1
11557,15,0,104.048,0,0,1,0.25,2,3,0.0,1.0,3,48.0,20.0,3,0.951,1.0,105.104,0.0,0,2019-09-30 15:29:39.000,289,2019-09-30 15:31:23.048,0.25,-90,90,90,-90,1
11558,20,0,135.105,0,0,1,0.25,2,3,0.0,1.0,3,48.0,20.0,3,0.826,0.0,135.77,0.15,1,2019-09-30 15:29:39.000,289,2019-09-30 15:31:54.105,0.25,90,90,90,90,1
11632,1,0,17.928,1,-120,1,0.25,2,9,0.0,1.0,1,48.0,20.0,9,0.763,0.0,22.735,0.0,0,2019-10-01 09:29:57.000,281,2019-10-01 09:30:14.928,0.25,90,150,-90,-150,1
11633,4,0,34.206,0,-120,1,0.25,2,9,0.0,1.0,1,48.0,20.0,9,0.826,1.0,35.946,0.15,1,2019-10-01 09:29:57.000,281,2019-10-01 09:30:31.206,0.25,-90,150,-90,30,1
11634,5,0,40.497,0,-120,1,0.25,2,9,0.0,1.0,1,48.0,20.0,9,0.701,1.0,42.705,0.15,1,2019-10-01 09:29:57.000,281,2019-10-01 09:30:37.497,0.25,-90,150,-90,30,1
11635,6,0,46.687,1,-120,1,0.25,2,9,0.0,1.0,1,48.0,20.0,9,0.826,1.0,52.637,0.15,1,2019-10-01 09:29:57.000,281,2019-10-01 09:30:43.687,0.25,-90,150,-90,30,1
11636,7,0,56.932,1,-120,1,0.25,2,3,0.0,1.0,7,48.0,20.0,3,0.888,0.0,59.258,0.15,1,2019-10-01 09:29:57.000,281,2019-10-01 09:30:53.932,0.25,90,-30,90,-150,1
11637,8,0,62.852,1,-120,1,0.25,2,3,0.0,1.0,7,48.0,20.0,3,0.951,1.0,67.722,0.0,0,2019-10-01 09:29:57.000,281,2019-10-01 09:30:59.852,0.25,-90,-30,90,30,1
11638,11,0,79.67399999999998,0,-120,1,0.25,2,3,0.0,1.0,7,48.0,20.0,3,0.701,1.0,81.078,0.0,0,2019-10-01 09:29:57.000,281,2019-10-01 09:31:16.674,0.25,-90,-30,90,30,1
11639,13,0,90.193,1,-120,1,0.25,2,3,0.0,1.0,7,48.0,20.0,3,0.951,0.0,94.593,0.15,1,2019-10-01 09:29:57.000,281,2019-10-01 09:31:27.193,0.25,90,-30,90,-150,1
11640,14,0,100.507,0,-120,1,0.25,2,3,0.0,1.0,7,48.0,20.0,3,0.888,0.0,104.003,0.15,1,2019-10-01 09:29:57.000,281,2019-10-01 09:31:37.507,0.25,90,-30,90,-150,1
11641,15,0,105.632,1,-120,1,0.25,2,3,0.0,1.0,7,48.0,20.0,3,0.826,1.0,108.418,0.0,0,2019-10-01 09:29:57.000,281,2019-10-01 09:31:42.632,0.25,-90,-30,90,30,1
11707,1,0,22.469,1,-30,1,0.25,2,9,0.0,1.0,10,48.0,20.0,9,0.763,1.0,26.447,0.15,1,2019-10-01 15:05:16.000,302,2019-10-01 15:05:38.469,0.25,-90,-120,-90,-60,1
11708,2,0,32.713,0,-30,1,0.25,2,3,0.0,1.0,4,48.0,20.0,3,0.951,1.0,33.679,0.0,0,2019-10-01 15:05:16.000,302,2019-10-01 15:05:48.713,0.25,-90,60,90,-60,1
11709,4,0,39.598,0,-30,1,0.25,2,9,0.0,1.0,10,48.0,20.0,9,0.888,1.0,39.881,0.15,1,2019-10-01 15:05:16.000,302,2019-10-01 15:05:55.598,0.25,-90,-120,-90,-60,1
11710,5,0,45.094,0,-30,1,0.25,2,3,0.0,1.0,4,48.0,20.0,3,0.826,1.0,45.967,0.0,0,2019-10-01 15:05:16.000,302,2019-10-01 15:06:01.094,0.25,-90,60,90,-60,1
11711,7,0,52.917,0,-30,1,0.25,2,9,0.0,1.0,10,48.0,20.0,9,0.701,1.0,53.79,0.15,1,2019-10-01 15:05:16.000,302,2019-10-01 15:06:08.917,0.25,-90,-120,-90,-60,1
11712,8,0,58.324,0,-30,1,0.25,2,3,0.0,1.0,4,48.0,20.0,3,0.888,1.0,58.819,0.0,0,2019-10-01 15:05:16.000,302,2019-10-01 15:06:14.324,0.25,-90,60,90,-60,1
11713,10,0,67.707,0,-30,1,0.25,2,3,0.0,1.0,4,48.0,20.0,3,0.763,1.0,68.423,0.0,0,2019-10-01 15:05:16.000,302,2019-10-01 15:06:23.707,0.25,-90,60,90,-60,1
11714,13,0,83.751,0,-30,1,0.25,2,9,0.0,1.0,10,48.0,20.0,9,0.826,1.0,84.598,0.15,1,2019-10-01 15:05:16.000,302,2019-10-01 15:06:39.751,0.25,-90,-120,-90,-60,1
11715,14,0,88.977,0,-30,1,0.25,2,9,0.0,1.0,10,48.0,20.0,9,0.701,1.0,89.45200000000001,0.15,1,2019-10-01 15:05:16.000,302,2019-10-01 15:06:44.977,0.25,-90,-120,-90,-60,1
11716,15,0,95.598,1,-30,1,0.25,2,9,0.0,1.0,10,48.0,20.0,9,0.888,1.0,99.082,0.15,1,2019-10-01 15:05:16.000,302,2019-10-01 15:06:51.598,0.25,-90,-120,-90,-60,1
11788,1,0,65.605,0,60,1,0.25,2,9,0.0,1.0,7,48.0,20.0,9,0.763,1.0,66.608,0.15,1,2019-10-02 09:53:24.000,267,2019-10-02 09:54:29.605,0.25,-90,-30,-90,-150,1
11789,2,0,71.53399999999998,0,60,1,0.25,2,3,0.0,1.0,1,48.0,20.0,3,0.888,0.0,72.061,0.15,1,2019-10-02 09:53:24.000,267,2019-10-02 09:54:35.534,0.25,90,150,90,30,1
11790,3,0,76.006,0,60,1,0.25,2,9,0.0,1.0,7,48.0,20.0,9,0.826,1.0,78.303,0.15,1,2019-10-02 09:53:24.000,267,2019-10-02 09:54:40.006,0.25,-90,-30,-90,-150,1
11791,4,0,83.38,0,60,1,0.25,2,9,0.0,1.0,7,48.0,20.0,9,0.701,1.0,83.958,0.15,1,2019-10-02 09:53:24.000,267,2019-10-02 09:54:47.380,0.25,-90,-30,-90,-150,1
11792,5,0,89.41,1,60,1,0.25,2,3,0.0,1.0,1,48.0,20.0,3,0.951,0.0,89.65,0.15,1,2019-10-02 09:53:24.000,267,2019-10-02 09:54:53.410,0.25,90,150,90,30,1
11793,6,0,91.695,0,60,1,0.25,2,3,0.0,1.0,1,48.0,20.0,3,0.763,1.0,93.608,0.0,0,2019-10-02 09:53:24.000,267,2019-10-02 09:54:55.695,0.25,-90,150,90,-150,1
11794,9,0,107.07,1,60,1,0.25,2,9,0.0,1.0,7,48.0,20.0,9,0.826,0.0,111.78,0.0,0,2019-10-02 09:53:24.000,267,2019-10-02 09:55:11.070,0.25,90,-30,-90,30,1
11795,11,0,118.509,0,60,1,0.25,2,9,0.0,1.0,7,48.0,20.0,9,0.888,0.0,119.703,0.0,0,2019-10-02 09:53:24.000,267,2019-10-02 09:55:22.509,0.25,90,-30,-90,30,1
11797,14,0,134.167,0,60,1,0.25,2,9,0.0,1.0,7,48.0,20.0,9,0.826,1.0,134.644,0.15,1,2019-10-02 09:53:24.000,267,2019-10-02 09:55:38.167,0.25,-90,-30,-90,-150,1
11798,15,0,147.87,0,60,1,0.25,2,3,0.0,1.0,1,48.0,20.0,3,0.951,1.0,148.765,0.0,0,2019-10-02 09:53:24.000,267,2019-10-02 09:55:51.870,0.25,-90,150,90,-150,1
11910,1,0,21.033,0,120,1,0.25,2,3,0.0,1.0,11,48.0,20.0,3,0.888,1.0,23.603,0.0,0,2019-10-02 14:43:38.000,330,2019-10-02 14:43:59.033,0.25,-90,-150,90,150,1
11911,3,0,28.607,1,120,1,0.25,2,9,0.0,1.0,5,48.0,20.0,9,0.763,1.0,31.553,0.15,1,2019-10-02 14:43:38.000,330,2019-10-02 14:44:06.607,0.25,-90,30,-90,150,1
11912,4,0,33.771,0,120,1,0.25,2,9,0.0,1.0,5,48.0,20.0,9,0.701,0.0,34.604,0.0,0,2019-10-02 14:43:38.000,330,2019-10-02 14:44:11.771,0.25,90,30,-90,-30,1
11913,6,0,45.94600000000001,1,120,1,0.25,2,9,0.0,1.0,5,48.0,20.0,9,0.888,1.0,48.846,0.15,1,2019-10-02 14:43:38.000,330,2019-10-02 14:44:23.946,0.25,-90,30,-90,150,1
11914,7,0,53.237,0,120,1,0.25,2,3,0.0,1.0,11,48.0,20.0,3,0.951,0.0,54.039,0.15,1,2019-10-02 14:43:38.000,330,2019-10-02 14:44:31.237,0.25,90,-150,90,-30,1
11915,8,0,57.399,1,120,1,0.25,2,9,0.0,1.0,5,48.0,20.0,9,0.701,1.0,60.988,0.15,1,2019-10-02 14:43:38.000,330,2019-10-02 14:44:35.399,0.25,-90,30,-90,150,1
11916,9,0,65.866,0,120,1,0.25,2,9,0.0,1.0,5,48.0,20.0,9,0.826,1.0,66.704,0.15,1,2019-10-02 14:43:38.000,330,2019-10-02 14:44:43.866,0.25,-90,30,-90,150,1
11917,10,0,70.587,1,120,1,0.25,2,9,0.0,1.0,5,48.0,20.0,9,0.763,1.0,74.077,0.15,1,2019-10-02 14:43:38.000,330,2019-10-02 14:44:48.587,0.25,-90,30,-90,150,1
11918,11,0,78.66,0,120,1,0.25,2,3,0.0,1.0,11,48.0,20.0,3,0.763,0.0,80.932,0.15,1,2019-10-02 14:43:38.000,330,2019-10-02 14:44:56.660,0.25,90,-150,90,-30,1
11919,12,0,84.055,1,120,1,0.25,2,3,0.0,1.0,11,48.0,20.0,3,0.701,0.0,87.725,0.15,1,2019-10-02 14:43:38.000,330,2019-10-02 14:45:02.055,0.25,90,-150,90,-30,1
12017,1,0,21.469,0,-150,1,0.25,2,3,0.0,1.0,8,48.0,20.0,3,0.763,1.0,22.323,0.0,0,2019-10-03 09:31:16.000,287,2019-10-03 09:31:37.469,0.25,-90,-60,90,60,1
12018,4,0,35.209,0,-150,1,0.25,2,3,0.0,1.0,8,48.0,20.0,3,0.701,0.0,36.327,0.15,1,2019-10-03 09:31:16.000,287,2019-10-03 09:31:51.209,0.25,90,-60,90,-120,1
12019,5,0,39.841,1,-150,1,0.25,2,9,0.0,1.0,2,48.0,20.0,9,0.888,1.0,40.438,0.15,1,2019-10-03 09:31:16.000,287,2019-10-03 09:31:55.841,0.25,-90,120,-90,60,1
12020,6,0,45.776,0,-150,1,0.25,2,3,0.0,1.0,8,48.0,20.0,3,0.888,0.0,48.21100000000001,0.15,1,2019-10-03 09:31:16.000,287,2019-10-03 09:32:01.776,0.25,90,-60,90,-120,1
12021,7,0,52.18600000000001,0,-150,1,0.25,2,9,0.0,1.0,2,48.0,20.0,9,0.701,1.0,53.328,0.15,1,2019-10-03 09:31:16.000,287,2019-10-03 09:32:08.186,0.25,-90,120,-90,60,1
12022,8,0,57.536,1,-150,1,0.25,2,9,0.0,1.0,2,48.0,20.0,9,0.826,1.0,60.806,0.15,1,2019-10-03 09:31:16.000,287,2019-10-03 09:32:13.536,0.25,-90,120,-90,60,1
12023,9,0,65.038,0,-150,1,0.25,2,9,0.0,1.0,2,48.0,20.0,9,0.763,1.0,66.016,0.15,1,2019-10-03 09:31:16.000,287,2019-10-03 09:32:21.038,0.25,-90,120,-90,60,1
12024,10,0,69.883,0,-150,1,0.25,2,3,0.0,1.0,8,48.0,20.0,3,0.951,0.0,70.516,0.15,1,2019-10-03 09:31:16.000,287,2019-10-03 09:32:25.883,0.25,90,-60,90,-120,1
12025,11,0,73.084,0,-150,1,0.25,2,3,0.0,1.0,8,48.0,20.0,3,0.701,1.0,75.457,0.0,0,2019-10-03 09:31:16.000,287,2019-10-03 09:32:29.084,0.25,-90,-60,90,60,1
12026,13,0,81.668,0,-150,1,0.25,2,3,0.0,1.0,8,48.0,20.0,3,0.826,0.0,82.979,0.15,1,2019-10-03 09:31:16.000,287,2019-10-03 09:32:37.668,0.25,90,-60,90,-120,1
12168,1,0,41.691,0,-60,1,0.25,2,9,0.0,1.0,11,48.0,20.0,9,0.888,1.0,43.049,0.15,1,2019-10-04 09:30:13.000,214,2019-10-04 09:30:54.691,0.25,-90,-150,-90,-30,1
12169,2,0,47.04,1,-60,1,0.25,2,3,0.0,1.0,5,48.0,20.0,3,0.951,1.0,50.458,0.0,0,2019-10-04 09:30:13.000,214,2019-10-04 09:31:00.040,0.25,-90,30,90,-30,1
12170,4,0,57.168,0,-60,1,0.25,2,3,0.0,1.0,5,48.0,20.0,3,0.826,1.0,59.198,0.0,0,2019-10-04 09:30:13.000,214,2019-10-04 09:31:10.168,0.25,-90,30,90,-30,1
12171,6,0,67.73100000000001,0,-60,1,0.25,2,9,0.0,1.0,11,48.0,20.0,9,0.888,1.0,69.625,0.15,1,2019-10-04 09:30:13.000,214,2019-10-04 09:31:20.731,0.25,-90,-150,-90,-30,1
12172,7,0,73.816,0,-60,1,0.25,2,9,0.0,1.0,11,48.0,20.0,9,0.826,0.0,74.578,0.0,0,2019-10-04 09:30:13.000,214,2019-10-04 09:31:26.816,0.25,90,-150,-90,150,1
12173,9,0,82.39200000000002,0,-60,1,0.25,2,9,0.0,1.0,11,48.0,20.0,9,0.951,1.0,83.335,0.15,1,2019-10-04 09:30:13.000,214,2019-10-04 09:31:35.392,0.25,-90,-150,-90,-30,1
12174,10,0,88.07600000000002,0,-60,1,0.25,2,3,0.0,1.0,5,48.0,20.0,3,0.701,0.0,88.777,0.15,1,2019-10-04 09:30:13.000,214,2019-10-04 09:31:41.076,0.25,90,30,90,150,1
12175,11,0,93.252,0,-60,1,0.25,2,3,0.0,1.0,5,48.0,20.0,3,0.763,1.0,94.131,0.0,0,2019-10-04 09:30:13.000,214,2019-10-04 09:31:46.252,0.25,-90,30,90,-30,1
12176,13,0,103.226,0,-60,1,0.25,2,3,0.0,1.0,5,48.0,20.0,3,0.826,0.0,104.301,0.15,1,2019-10-04 09:30:13.000,214,2019-10-04 09:31:56.226,0.25,90,30,90,150,1
12177,14,0,108.808,0,-60,1,0.25,2,3,0.0,1.0,5,48.0,20.0,3,0.888,1.0,109.986,0.0,0,2019-10-04 09:30:13.000,214,2019-10-04 09:32:01.808,0.25,-90,30,90,-30,1
12343,1,0,17.111,0,60,1,0.25,2,3,0.0,1.0,1,48.0,20.0,3,0.701,1.0,18.352,0.0,0,2019-10-04 15:07:14.000,232,2019-10-04 15:07:31.111,0.25,-90,150,90,-150,1
