,Trial,CorrectionTrial,StartTime,CenterReward,CenterSpoutRotation,nStimReps,Duration,Modality,LED Location,LED_trial_V,LED_bgnd_V,Speaker Location,Speaker_trial_V,Speaker_bgnd_V,TargetSpout,HoldTime,Response,RespTime,ValveTime,Correct,SessionDate,SessionID,StartDateTime,StimulusTotalDuration,response_angle_world,speaker_angle_world,speaker_angle_platform,response_angle_platform,not_probe
180,1,0,51.172,0,180,1,0.25,2,9,0.0,1.0,6,45.0,20.0,9,0.551,1.0,52.733,0.15,1,2019-11-26 15:04:52.000,84,2019-11-26 15:05:43.172,0.25,-90,0,-180,90,1
181,2,0,74.766,0,180,1,0.25,2,9,0.0,1.0,6,45.0,20.0,9,0.701,1.0,76.365,0.15,1,2019-11-26 15:04:52.000,84,2019-11-26 15:06:06.766,0.25,-90,0,-180,90,1
182,3,0,88.01799999999999,0,180,1,0.25,2,3,0.0,1.0,12,45.0,20.0,3,0.501,0.0,0.0,0.15,1,2019-11-26 15:04:52.000,84,2019-11-26 15:06:20.018,0.25,90,-180,0,-90,1
183,4,0,95.789,0,180,1,0.25,2,9,0.0,1.0,6,45.0,20.0,9,0.601,1.0,97.685,0.15,1,2019-11-26 15:04:52.000,84,2019-11-26 15:06:27.789,0.25,-90,0,-180,90,1
184,5,0,105.464,0,180,1,0.25,2,3,0.0,1.0,12,45.0,20.0,3,0.6509999999999999,0.0,0.0,0.15,1,2019-11-26 15:04:52.000,84,2019-11-26 15:06:37.464,0.25,90,-180,0,-90,1
185,6,0,113.455,0,180,1,0.25,2,9,0.0,1.0,6,45.0,20.0,9,0.551,1.0,115.412,0.15,1,2019-11-26 15:04:52.000,84,2019-11-26 15:06:45.455,0.25,-90,0,-180,90,1
186,7,0,124.041,0,180,1,0.25,2,3,0.0,1.0,12,45.0,20.0,3,0.501,1.0,125.594,0.0,0,2019-11-26 15:04:52.000,84,2019-11-26 15:06:56.041,0.25,-90,-180,0,90,1
187,9,0,140.88,0,180,1,0.25,2,3,0.0,1.0,12,45.0,20.0,3,0.701,1.0,142.799,0.0,0,2019-11-26 15:04:52.000,84,2019-11-26 15:07:12.880,0.25,-90,-180,0,90,1
188,11,0,163.417,0,180,1,0.25,2,9,0.0,1.0,6,45.0,20.0,9,0.6509999999999999,1.0,165.658,0.15,1,2019-11-26 15:04:52.000,84,2019-11-26 15:07:35.417,0.25,-90,0,-180,90,1
189,12,0,173.92700000000005,0,180,1,0.25,2,9,0.0,1.0,6,45.0,20.0,9,0.601,1.0,175.532,0.15,1,2019-11-26 15:04:52.000,84,2019-11-26 15:07:45.927,0.25,-90,0,-180,90,1
300,1,0,21.78,0,0,1,0.25,2,9,0.0,1.0,6,45.0,20.0,9,0.551,0.0,0.0,0.0,0,2019-11-27 09:48:30.000,25,2019-11-27 09:48:51.780,0.25,90,0,0,90,1
301,3,0,52.38399999999999,0,0,1,0.25,2,3,0.0,1.0,12,45.0,20.0,3,0.501,0.0,0.0,0.15,1,2019-11-27 09:48:30.000,25,2019-11-27 09:49:22.384,0.25,90,-180,-180,90,1
302,4,0,60.04600000000001,0,0,1,0.25,2,9,0.0,1.0,6,45.0,20.0,9,0.6509999999999999,0.0,0.0,0.0,0,2019-11-27 09:48:30.000,25,2019-11-27 09:49:30.046,0.25,90,0,0,90,1
303,6,0,73.268,0,0,1,0.25,2,3,0.0,1.0,12,45.0,20.0,3,0.601,0.0,0.0,0.15,1,2019-11-27 09:48:30.000,25,2019-11-27 09:49:43.268,0.25,90,-180,-180,90,1
304,7,0,80.15100000000002,0,0,1,0.25,2,9,0.0,1.0,6,45.0,20.0,9,0.701,0.0,0.0,0.0,0,2019-11-27 09:48:30.000,25,2019-11-27 09:49:50.151,0.25,90,0,0,90,1
305,13,0,163.001,0,0,1,0.25,2,3,0.0,1.0,12,45.0,20.0,3,0.6509999999999999,0.0,0.0,0.15,1,2019-11-27 09:48:30.000,25,2019-11-27 09:51:13.001,0.25,90,-180,-180,90,1
306,14,0,170.368,0,0,1,0.25,2,9,0.0,1.0,6,45.0,20.0,9,0.701,0.0,0.0,0.0,0,2019-11-27 09:48:30.000,25,2019-11-27 09:51:20.368,0.25,90,0,0,90,1
307,17,0,208.747,0,0,1,0.25,2,3,0.0,1.0,12,45.0,20.0,3,0.601,0.0,0.0,0.15,1,2019-11-27 09:48:30.000,25,2019-11-27 09:51:58.747,0.25,90,-180,-180,90,1
308,18,0,217.472,0,0,1,0.25,2,3,0.0,1.0,12,45.0,20.0,3,0.501,0.0,0.0,0.15,1,2019-11-27 09:48:30.000,25,2019-11-27 09:52:07.472,0.25,90,-180,-180,90,1
309,19,0,224.177,1,0,1,0.25,2,9,0.0,1.0,6,45.0,20.0,9,0.551,0.0,0.0,0.0,0,2019-11-27 09:48:30.000,25,2019-11-27 09:52:14.177,0.25,90,0,0,90,1
375,1,0,120.363,0,60,1,0.25,2,9,0.0,1.0,6,45.0,20.0,9,0.501,1.0,122.148,0.15,1,2019-11-27 15:26:14.000,13,2019-11-27 15:28:14.363,0.25,-90,0,-60,-150,1
376,2,0,125.568,0,60,1,0.25,2,9,0.0,1.0,6,45.0,20.0,9,0.6509999999999999,1.0,127.175,0.15,1,2019-11-27 15:26:14.000,13,2019-11-27 15:28:19.568,0.25,-90,0,-60,-150,1
377,3,0,152.286,0,60,1,0.25,2,9,0.0,1.0,6,45.0,20.0,9,0.551,1.0,154.261,0.15,1,2019-11-27 15:26:14.000,13,2019-11-27 15:28:46.286,0.25,-90,0,-60,-150,1
378,4,0,170.924,0,60,1,0.25,2,3,0.0,1.0,12,45.0,20.0,3,0.701,0.0,0.0,0.15,1,2019-11-27 15:26:14.000,13,2019-11-27 15:29:04.924,0.25,90,-180,120,30,1
379,5,0,181.924,0,60,1,0.25,2,3,0.0,1.0,12,45.0,20.0,3,0.601,0.0,0.0,0.15,1,2019-11-27 15:26:14.000,13,2019-11-27 15:29:15.924,0.25,90,-180,120,30,1
380,6,0,191.094,0,60,1,0.25,2,3,0.0,1.0,12,45.0,20.0,3,0.551,0.0,0.0,0.15,1,2019-11-27 15:26:14.000,13,2019-11-27 15:29:25.094,0.25,90,-180,120,30,1
381,7,0,198.208,0,60,1,0.25,2,3,0.0,1.0,12,45.0,20.0,3,0.601,0.0,0.0,0.15,1,2019-11-27 15:26:14.000,13,2019-11-27 15:29:32.208,0.25,90,-180,120,30,1
382,8,0,214.833,0,60,1,0.25,2,3,0.0,1.0,12,45.0,20.0,3,0.6509999999999999,0.0,0.0,0.15,1,2019-11-27 15:26:14.000,13,2019-11-27 15:29:48.833,0.25,90,-180,120,30,1
383,9,0,222.622,0,60,1,0.25,2,9,0.0,1.0,6,45.0,20.0,9,0.501,1.0,224.501,0.15,1,2019-11-27 15:26:14.000,13,2019-11-27 15:29:56.622,0.25,-90,0,-60,-150,1
384,10,0,235.887,0,60,1,0.25,2,3,0.0,1.0,12,45.0,20.0,3,0.701,0.0,0.0,0.15,1,2019-11-27 15:26:14.000,13,2019-11-27 15:30:09.887,0.25,90,-180,120,30,1
435,1,0,29.338,0,0,1,0.25,2,9,0.0,1.0,6,45.0,20.0,9,0.501,0.0,0.0,0.0,0,2019-11-28 09:23:03.000,21,2019-11-28 09:23:32.338,0.25,90,0,0,90,1
436,5,0,96.908,0,0,1,0.25,2,3,0.0,1.0,12,45.0,20.0,3,0.551,0.0,0.0,0.15,1,2019-11-28 09:23:03.000,21,2019-11-28 09:24:39.908,0.25,90,-180,-180,90,1
437,6,0,103.819,0,0,1,0.25,2,9,0.0,1.0,6,45.0,20.0,9,0.701,0.0,0.0,0.0,0,2019-11-28 09:23:03.000,21,2019-11-28 09:24:46.819,0.25,90,0,0,90,1
438,11,0,177.445,0,0,1,0.25,2,9,0.0,1.0,6,45.0,20.0,9,0.6509999999999999,0.0,0.0,0.0,0,2019-11-28 09:23:03.000,21,2019-11-28 09:26:00.445,0.25,90,0,0,90,1
439,14,0,222.199,0,0,1,0.25,2,3,0.0,1.0,12,45.0,20.0,3,0.601,0.0,0.0,0.15,1,2019-11-28 09:23:03.000,21,2019-11-28 09:26:45.199,0.25,90,-180,-180,90,1
440,15,0,229.336,0,0,1,0.25,2,3,0.0,1.0,12,45.0,20.0,3,0.701,0.0,0.0,0.15,1,2019-11-28 09:23:03.000,21,2019-11-28 09:26:52.336,0.25,90,-180,-180,90,1
441,16,0,236.442,0,0,1,0.25,2,9,0.0,1.0,6,45.0,20.0,9,0.601,0.0,0.0,0.0,0,2019-11-28 09:23:03.000,21,2019-11-28 09:26:59.442,0.25,90,0,0,90,1
442,18,0,280.932,0,0,1,0.25,2,9,0.0,1.0,6,45.0,20.0,9,0.501,0.0,0.0,0.0,0,2019-11-28 09:23:03.000,21,2019-11-28 09:27:43.932,0.25,90,0,0,90,1
443,20,0,309.325,0,0,1,0.25,2,3,0.0,1.0,12,45.0,20.0,3,0.551,0.0,0.0,0.15,1,2019-11-28 09:23:03.000,21,2019-11-28 09:28:12.325,0.25,90,-180,-180,90,1
444,21,0,315.684,0,0,1,0.25,2,9,0.0,1.0,6,45.0,20.0,9,0.6509999999999999,1.0,317.4290000000001,0.15,1,2019-11-28 09:23:03.000,21,2019-11-28 09:28:18.684,0.25,-90,0,0,-90,1
620,1,0,62.72,0,-60,1,0.25,2,3,0.0,1.0,12,45.0,20.0,3,0.601,0.0,0.0,0.15,1,2019-11-29 14:54:08.000,53,2019-11-29 14:55:10.720,0.25,90,-180,-120,150,1
621,2,0,104.782,0,-60,1,0.25,2,3,0.0,1.0,12,45.0,20.0,3,0.501,0.0,0.0,0.15,1,2019-11-29 14:54:08.000,53,2019-11-29 14:55:52.782,0.25,90,-180,-120,150,1
622,3,0,114.359,0,-60,1,0.25,2,3,0.0,1.0,12,45.0,20.0,3,0.551,0.0,0.0,0.15,1,2019-11-29 14:54:08.000,53,2019-11-29 14:56:02.359,0.25,90,-180,-120,150,1
623,4,0,122.219,0,-60,1,0.25,2,3,0.0,1.0,12,45.0,20.0,3,0.701,0.0,0.0,0.15,1,2019-11-29 14:54:08.000,53,2019-11-29 14:56:10.219,0.25,90,-180,-120,150,1
624,5,0,130.47899999999998,0,-60,1,0.25,2,3,0.0,1.0,12,45.0,20.0,3,0.6509999999999999,0.0,0.0,0.15,1,2019-11-29 14:54:08.000,53,2019-11-29 14:56:18.479,0.25,90,-180,-120,150,1
625,6,0,146.868,0,-60,1,0.25,2,9,0.0,1.0,6,45.0,20.0,9,0.701,0.0,0.0,0.0,0,2019-11-29 14:54:08.000,53,2019-11-29 14:56:34.868,0.25,90,0,60,150,1
626,10,0,203.224,0,-60,1,0.25,2,3,0.0,1.0,12,45.0,20.0,3,0.6509999999999999,0.0,0.0,0.15,1,2019-11-29 14:54:08.000,53,2019-11-29 14:57:31.224,0.25,90,-180,-120,150,1
627,11,0,213.82,1,-60,1,0.25,2,9,0.0,1.0,6,45.0,20.0,9,0.551,0.0,0.0,0.0,0,2019-11-29 14:54:08.000,53,2019-11-29 14:57:41.820,0.25,90,0,60,150,1
628,13,0,261.42400000000004,0,-60,1,0.25,2,9,0.0,1.0,6,45.0,20.0,9,0.501,1.0,263.825,0.15,1,2019-11-29 14:54:08.000,53,2019-11-29 14:58:29.424,0.25,-90,0,60,-30,1
629,14,0,273.47,0,-60,1,0.25,2,3,0.0,1.0,12,45.0,20.0,3,0.601,0.0,0.0,0.15,1,2019-11-29 14:54:08.000,53,2019-11-29 14:58:41.470,0.25,90,-180,-120,150,1
671,1,0,50.075,0,0,1,0.25,2,9,0.0,1.0,6,45.0,20.0,9,0.551,0.0,0.0,0.0,0,2019-12-09 09:14:39.000,39,2019-12-09 09:15:29.075,0.25,90,0,0,90,1
672,3,0,94.667,0,0,1,0.25,2,3,0.0,1.0,12,45.0,20.0,3,0.701,0.0,0.0,0.15,1,2019-12-09 09:14:39.000,39,2019-12-09 09:16:13.667,0.25,90,-180,-180,90,1
673,4,0,103.92,0,0,1,0.25,2,9,0.0,1.0,6,45.0,20.0,9,0.501,1.0,106.27,0.15,1,2019-12-09 09:14:39.000,39,2019-12-09 09:16:22.920,0.25,-90,0,0,-90,1
674,5,0,113.317,0,0,1,0.25,2,3,0.0,1.0,12,45.0,20.0,3,0.601,0.0,0.0,0.15,1,2019-12-09 09:14:39.000,39,2019-12-09 09:16:32.317,0.25,90,-180,-180,90,1
675,6,0,120.823,0,0,1,0.25,2,3,0.0,1.0,12,45.0,20.0,3,0.6509999999999999,0.0,0.0,0.15,1,2019-12-09 09:14:39.000,39,2019-12-09 09:16:39.823,0.25,90,-180,-180,90,1
676,7,0,126.81,0,0,1,0.25,2,3,0.0,1.0,12,45.0,20.0,3,0.601,0.0,0.0,0.15,1,2019-12-09 09:14:39.000,39,2019-12-09 09:16:45.810,0.25,90,-180,-180,90,1
677,8,0,133.39,0,0,1,0.25,2,3,0.0,1.0,12,45.0,20.0,3,0.551,0.0,0.0,0.15,1,2019-12-09 09:14:39.000,39,2019-12-09 09:16:52.390,0.25,90,-180,-180,90,1
678,9,0,143.793,0,0,1,0.25,2,3,0.0,1.0,12,45.0,20.0,3,0.501,1.0,146.029,0.0,0,2019-12-09 09:14:39.000,39,2019-12-09 09:17:02.793,0.25,-90,-180,-180,-90,1
679,11,0,172.72799999999995,0,0,1,0.25,2,3,0.0,1.0,12,45.0,20.0,3,0.701,0.0,0.0,0.15,1,2019-12-09 09:14:39.000,39,2019-12-09 09:17:31.728,0.25,90,-180,-180,90,1
680,12,0,179.821,0,0,1,0.25,2,9,0.0,1.0,6,45.0,20.0,9,0.6509999999999999,1.0,181.54,0.15,1,2019-12-09 09:14:39.000,39,2019-12-09 09:17:38.821,0.25,-90,0,0,-90,1
1134,1,0,30.612,0,-30,1,0.25,2,3,0.0,1.0,12,45.0,20.0,3,0.551,0.0,0.0,0.15,1,2019-12-12 15:26:54.000,63,2019-12-12 15:27:24.612,0.25,90,-180,-150,120,1
1135,2,0,47.29600000000001,0,-30,1,0.25,2,3,0.0,1.0,12,45.0,20.0,3,0.701,0.0,0.0,0.15,1,2019-12-12 15:26:54.000,63,2019-12-12 15:27:41.296,0.25,90,-180,-150,120,1
1136,3,0,60.087,0,-30,1,0.25,2,9,0.0,1.0,6,45.0,20.0,9,0.601,0.0,0.0,0.0,0,2019-12-12 15:26:54.000,63,2019-12-12 15:27:54.087,0.25,90,0,30,120,1
1137,6,0,114.598,0,-30,1,0.25,2,3,0.0,1.0,12,45.0,20.0,3,0.501,0.0,0.0,0.15,1,2019-12-12 15:26:54.000,63,2019-12-12 15:28:48.598,0.25,90,-180,-150,120,1
1138,7,0,122.418,0,-30,1,0.25,2,3,0.0,1.0,12,45.0,20.0,3,0.6509999999999999,0.0,0.0,0.15,1,2019-12-12 15:26:54.000,63,2019-12-12 15:28:56.418,0.25,90,-180,-150,120,1
1139,8,0,129.19299999999998,0,-30,1,0.25,2,9,0.0,1.0,6,45.0,20.0,9,0.6509999999999999,0.0,0.0,0.0,0,2019-12-12 15:26:54.000,63,2019-12-12 15:29:03.193,0.25,90,0,30,120,1
1140,10,0,152.488,0,-30,1,0.25,2,9,0.0,1.0,6,45.0,20.0,9,0.551,1.0,155.591,0.15,1,2019-12-12 15:26:54.000,63,2019-12-12 15:29:26.488,0.25,-90,0,30,-60,1
1141,11,0,172.511,0,-30,1,0.25,2,3,0.0,1.0,12,45.0,20.0,3,0.701,0.0,0.0,0.15,1,2019-12-12 15:26:54.000,63,2019-12-12 15:29:46.511,0.25,90,-180,-150,120,1
1142,12,0,180.181,0,-30,1,0.25,2,9,0.0,1.0,6,45.0,20.0,9,0.501,0.0,0.0,0.0,0,2019-12-12 15:26:54.000,63,2019-12-12 15:29:54.181,0.25,90,0,30,120,1
1143,14,0,207.575,1,-30,1,0.25,2,3,0.0,1.0,12,45.0,20.0,3,0.601,1.0,215.68,0.0,0,2019-12-12 15:26:54.000,63,2019-12-12 15:30:21.575,0.25,-90,-180,-150,-60,1
1225,1,0,35.596,0,30,1,0.25,2,9,0.0,1.0,6,45.0,20.0,9,0.501,1.0,38.159,0.15,1,2019-12-13 09:42:21.000,70,2019-12-13 09:42:56.596,0.25,-90,0,-30,-120,1
1226,2,0,58.12600000000001,0,30,1,0.25,2,9,0.0,1.0,6,45.0,20.0,9,0.601,1.0,61.426,0.15,1,2019-12-13 09:42:21.000,70,2019-12-13 09:43:19.126,0.25,-90,0,-30,-120,1
1227,3,0,65.078,0,30,1,0.25,2,3,0.0,1.0,12,45.0,20.0,3,0.701,0.0,0.0,0.13,1,2019-12-13 09:42:21.000,70,2019-12-13 09:43:26.078,0.25,90,-180,150,60,1
1228,4,0,91.985,0,30,1,0.25,2,9,0.0,1.0,6,45.0,20.0,9,0.6509999999999999,0.0,0.0,0.0,0,2019-12-13 09:42:21.000,70,2019-12-13 09:43:52.985,0.25,90,0,-30,60,1
1229,6,0,117.108,1,30,1,0.25,2,9,0.0,1.0,6,45.0,20.0,9,0.551,0.0,0.0,0.0,0,2019-12-13 09:42:21.000,70,2019-12-13 09:44:18.108,0.25,90,0,-30,60,1
1230,9,0,174.368,0,30,1,0.25,2,9,0.0,1.0,6,45.0,20.0,9,0.601,1.0,176.735,0.15,1,2019-12-13 09:42:21.000,70,2019-12-13 09:45:15.368,0.25,-90,0,-30,-120,1
1231,10,0,187.52,0,30,1,0.25,2,9,0.0,1.0,6,45.0,20.0,9,0.551,0.0,0.0,0.0,0,2019-12-13 09:42:21.000,70,2019-12-13 09:45:28.520,0.25,90,0,-30,60,1
1232,12,0,214.697,0,30,1,0.25,2,9,0.0,1.0,6,45.0,20.0,9,0.501,0.0,0.0,0.0,0,2019-12-13 09:42:21.000,70,2019-12-13 09:45:55.697,0.25,90,0,-30,60,1
1233,14,0,238.102,0,30,1,0.25,2,9,0.0,1.0,6,45.0,20.0,9,0.6509999999999999,1.0,240.874,0.15,1,2019-12-13 09:42:21.000,70,2019-12-13 09:46:19.102,0.25,-90,0,-30,-120,1
1234,15,0,262.10200000000003,0,30,1,0.25,2,3,0.0,1.0,12,45.0,20.0,3,0.701,0.0,0.0,0.1,1,2019-12-13 09:42:21.000,70,2019-12-13 09:46:43.102,0.25,90,-180,150,60,1
1274,1,0,32.285,0,0,1,0.25,2,3,0.0,1.0,12,45.0,20.0,3,0.501,0.0,0.0,0.15,1,2019-12-13 14:43:01.000,74,2019-12-13 14:43:33.285,0.25,90,-180,-180,90,1
1275,2,0,54.726000000000006,0,0,1,0.25,2,9,0.0,1.0,6,45.0,20.0,9,0.701,1.0,58.405,0.15,1,2019-12-13 14:43:01.000,74,2019-12-13 14:43:55.726,0.25,-90,0,0,-90,1
1276,3,0,85.75299999999999,0,0,1,0.25,2,3,0.0,1.0,12,45.0,20.0,3,0.601,0.0,0.0,0.15,1,2019-12-13 14:43:01.000,74,2019-12-13 14:44:26.753,0.25,90,-180,-180,90,1
1277,4,0,93.305,0,0,1,0.25,2,3,0.0,1.0,12,45.0,20.0,3,0.551,0.0,0.0,0.15,1,2019-12-13 14:43:01.000,74,2019-12-13 14:44:34.305,0.25,90,-180,-180,90,1
1278,5,0,100.983,0,0,1,0.25,2,3,0.0,1.0,12,45.0,20.0,3,0.6509999999999999,0.0,0.0,0.15,1,2019-12-13 14:43:01.000,74,2019-12-13 14:44:41.983,0.25,90,-180,-180,90,1
1279,6,0,108.926,0,0,1,0.25,2,9,0.0,1.0,6,45.0,20.0,9,0.701,0.0,0.0,0.0,0,2019-12-13 14:43:01.000,74,2019-12-13 14:44:49.926,0.25,90,0,0,90,1
1280,8,0,139.588,0,0,1,0.25,2,9,0.0,1.0,6,45.0,20.0,9,0.6509999999999999,1.0,141.256,0.15,1,2019-12-13 14:43:01.000,74,2019-12-13 14:45:20.588,0.25,-90,0,0,-90,1
1281,9,0,150.917,0,0,1,0.25,2,3,0.0,1.0,12,45.0,20.0,3,0.601,0.0,0.0,0.15,1,2019-12-13 14:43:01.000,74,2019-12-13 14:45:31.917,0.25,90,-180,-180,90,1
1282,10,0,160.72,0,0,1,0.25,2,9,0.0,1.0,6,45.0,20.0,9,0.501,1.0,162.8,0.15,1,2019-12-13 14:43:01.000,74,2019-12-13 14:45:41.720,0.25,-90,0,0,-90,1
1283,11,0,173.32299999999995,0,0,1,0.25,2,3,0.0,1.0,12,45.0,20.0,3,0.551,0.0,0.0,0.15,1,2019-12-13 14:43:01.000,74,2019-12-13 14:45:54.323,0.25,90,-180,-180,90,1
1655,1,0,52.495,0,-150,1,0.25,2,9,0.0,1.0,6,45.0,20.0,9,0.701,1.0,56.785,0.15,1,2019-12-18 14:50:40.000,83,2019-12-18 14:51:32.495,0.25,-90,0,150,60,1
1656,2,0,66.737,1,-150,1,0.25,2,3,0.0,1.0,12,45.0,20.0,3,0.551,0.0,0.0,0.15,1,2019-12-18 14:50:40.000,83,2019-12-18 14:51:46.737,0.25,90,-180,-30,-120,1
1657,3,0,83.052,0,-150,1,0.25,2,3,0.0,1.0,12,45.0,20.0,3,0.6509999999999999,1.0,90.666,0.0,0,2019-12-18 14:50:40.000,83,2019-12-18 14:52:03.052,0.25,-90,-180,-30,60,1
1658,5,0,107.516,0,-150,1,0.25,2,3,0.0,1.0,12,45.0,20.0,3,0.501,0.0,0.0,0.15,1,2019-12-18 14:50:40.000,83,2019-12-18 14:52:27.516,0.25,90,-180,-30,-120,1
1659,6,0,120.666,0,-150,1,0.25,2,9,0.0,1.0,6,45.0,20.0,9,0.601,1.0,126.891,0.15,1,2019-12-18 14:50:40.000,83,2019-12-18 14:52:40.666,0.25,-90,0,150,60,1
1660,7,0,137.558,0,-150,1,0.25,2,3,0.0,1.0,12,45.0,20.0,3,0.701,0.0,0.0,0.15,1,2019-12-18 14:50:40.000,83,2019-12-18 14:52:57.558,0.25,90,-180,-30,-120,1
1661,8,0,145.355,0,-150,1,0.25,2,9,0.0,1.0,6,45.0,20.0,9,0.601,0.0,0.0,0.0,0,2019-12-18 14:50:40.000,83,2019-12-18 14:53:05.355,0.25,90,0,150,-120,1
1662,10,0,172.403,0,-150,1,0.25,2,3,0.0,1.0,12,45.0,20.0,3,0.501,0.0,0.0,0.15,1,2019-12-18 14:50:40.000,83,2019-12-18 14:53:32.403,0.25,90,-180,-30,-120,1
1663,11,0,181.058,0,-150,1,0.25,2,9,0.0,1.0,6,45.0,20.0,9,0.551,1.0,183.612,0.15,1,2019-12-18 14:50:40.000,83,2019-12-18 14:53:41.058,0.25,-90,0,150,60,1
1664,12,0,189.823,0,-150,1,0.25,2,3,0.0,1.0,12,45.0,20.0,3,0.6509999999999999,0.0,0.0,0.15,1,2019-12-18 14:50:40.000,83,2019-12-18 14:53:49.823,0.25,90,-180,-30,-120,1
1723,1,0,14.746,0,0,1,0.25,2,3,0.0,1.0,12,45.0,20.0,3,0.551,0.0,0.0,0.15,1,2019-12-19 09:29:53.000,67,2019-12-19 09:30:07.746,0.25,90,-180,-180,90,1
1724,2,0,35.078,0,0,1,0.25,2,3,0.0,1.0,12,45.0,20.0,3,0.601,0.0,0.0,0.15,1,2019-12-19 09:29:53.000,67,2019-12-19 09:30:28.078,0.25,90,-180,-180,90,1
1725,3,0,56.804,0,0,1,0.25,2,9,0.0,1.0,6,45.0,20.0,9,0.501,1.0,59.322,0.15,1,2019-12-19 09:29:53.000,67,2019-12-19 09:30:49.804,0.25,-90,0,0,-90,1
1726,4,0,62.45399999999999,0,0,1,0.25,2,9,0.0,1.0,6,45.0,20.0,9,0.701,0.0,0.0,0.0,0,2019-12-19 09:29:53.000,67,2019-12-19 09:30:55.454,0.25,90,0,0,90,1
1727,6,0,94.81,0,0,1,0.25,2,3,0.0,1.0,12,45.0,20.0,3,0.6509999999999999,0.0,0.0,0.15,1,2019-12-19 09:29:53.000,67,2019-12-19 09:31:27.810,0.25,90,-180,-180,90,1
1728,7,0,102.206,0,0,1,0.25,2,3,0.0,1.0,12,45.0,20.0,3,0.6509999999999999,0.0,0.0,0.15,1,2019-12-19 09:29:53.000,67,2019-12-19 09:31:35.206,0.25,90,-180,-180,90,1
1729,8,0,121.836,0,0,1,0.25,2,9,0.0,1.0,6,45.0,20.0,9,0.551,1.0,123.931,0.15,1,2019-12-19 09:29:53.000,67,2019-12-19 09:31:54.836,0.25,-90,0,0,-90,1
1730,9,0,140.83,0,0,1,0.25,2,3,0.0,1.0,12,45.0,20.0,3,0.501,0.0,0.0,0.15,1,2019-12-19 09:29:53.000,67,2019-12-19 09:32:13.830,0.25,90,-180,-180,90,1
1731,10,0,153.494,0,0,1,0.25,2,3,0.0,1.0,12,45.0,20.0,3,0.701,0.0,0.0,0.15,1,2019-12-19 09:29:53.000,67,2019-12-19 09:32:26.494,0.25,90,-180,-180,90,1
1732,11,0,161.11,0,0,1,0.25,2,3,0.0,1.0,12,45.0,20.0,3,0.601,0.0,0.0,0.15,1,2019-12-19 09:29:53.000,67,2019-12-19 09:32:34.110,0.25,90,-180,-180,90,1
1770,1,0,75.675,0,150,1,0.25,2,9,0.0,1.0,6,45.0,20.0,9,0.701,0.0,0.0,0.0,0,2019-12-19 15:01:44.000,78,2019-12-19 15:02:59.675,0.25,90,0,-150,-60,1
1771,3,0,105.111,0,150,1,0.25,2,9,0.0,1.0,6,45.0,20.0,9,0.551,1.0,106.602,0.15,1,2019-12-19 15:01:44.000,78,2019-12-19 15:03:29.111,0.25,-90,0,-150,120,1
1772,4,0,117.414,0,150,1,0.25,2,9,0.0,1.0,6,45.0,20.0,9,0.6509999999999999,1.0,119.254,0.15,1,2019-12-19 15:01:44.000,78,2019-12-19 15:03:41.414,0.25,-90,0,-150,120,1
1773,5,0,164.565,0,150,1,0.25,2,3,0.0,1.0,12,45.0,20.0,3,0.501,0.0,0.0,0.15,1,2019-12-19 15:01:44.000,78,2019-12-19 15:04:28.565,0.25,90,-180,30,-60,1
1774,6,0,173.322,0,150,1,0.25,2,3,0.0,1.0,12,45.0,20.0,3,0.601,0.0,0.0,0.15,1,2019-12-19 15:01:44.000,78,2019-12-19 15:04:37.322,0.25,90,-180,30,-60,1
1775,7,0,190.814,0,150,1,0.25,2,9,0.0,1.0,6,45.0,20.0,9,0.701,0.0,0.0,0.0,0,2019-12-19 15:01:44.000,78,2019-12-19 15:04:54.814,0.25,90,0,-150,-60,1
1776,12,0,294.7990000000001,0,150,1,0.25,2,9,0.0,1.0,6,45.0,20.0,9,0.551,1.0,296.441,0.15,1,2019-12-19 15:01:44.000,78,2019-12-19 15:06:38.799,0.25,-90,0,-150,120,1
1777,13,0,305.507,0,150,1,0.25,2,9,0.0,1.0,6,45.0,20.0,9,0.6509999999999999,0.0,0.0,0.0,0,2019-12-19 15:01:44.000,78,2019-12-19 15:06:49.507,0.25,90,0,-150,-60,1
1778,15,0,343.264,0,150,1,0.25,2,9,0.0,1.0,6,45.0,20.0,9,0.501,1.0,344.839,0.15,1,2019-12-19 15:01:44.000,78,2019-12-19 15:07:27.264,0.25,-90,0,-150,120,1
1779,16,0,353.838,0,150,1,0.25,2,9,0.0,1.0,6,45.0,20.0,9,0.601,1.0,355.19699999999995,0.15,1,2019-12-19 15:01:44.000,78,2019-12-19 15:07:37.838,0.25,-90,0,-150,120,1
1807,1,0,23.537,0,0,1,0.25,2,9,0.0,1.0,6,45.0,20.0,9,0.501,1.0,27.002,0.15,1,2019-12-20 08:57:03.000,22,2019-12-20 08:57:26.537,0.25,-90,0,0,-90,1
1808,2,0,37.517,0,0,1,0.25,2,9,0.0,1.0,6,45.0,20.0,9,0.6509999999999999,0.0,0.0,0.0,0,2019-12-20 08:57:03.000,22,2019-12-20 08:57:40.517,0.25,90,0,0,90,1
1809,4,0,72.456,0,0,1,0.25,2,3,0.0,1.0,12,45.0,20.0,3,0.601,0.0,0.0,0.15,1,2019-12-20 08:57:03.000,22,2019-12-20 08:58:15.456,0.25,90,-180,-180,90,1
1810,5,0,79.051,0,0,1,0.25,2,9,0.0,1.0,6,45.0,20.0,9,0.551,0.0,0.0,0.0,0,2019-12-20 08:57:03.000,22,2019-12-20 08:58:22.051,0.25,90,0,0,90,1
1811,7,0,101.857,0,0,1,0.25,2,9,0.0,1.0,6,45.0,20.0,9,0.701,0.0,0.0,0.0,0,2019-12-20 08:57:03.000,22,2019-12-20 08:58:44.857,0.25,90,0,0,90,1
1812,10,0,177.73,0,0,1,0.25,2,9,0.0,1.0,6,45.0,20.0,9,0.601,0.0,0.0,0.0,0,2019-12-20 08:57:03.000,22,2019-12-20 09:00:00.730,0.25,90,0,0,90,1
1813,13,0,239.501,0,0,1,0.25,2,9,0.0,1.0,6,45.0,20.0,9,0.551,0.0,0.0,0.0,0,2019-12-20 08:57:03.000,22,2019-12-20 09:01:02.501,0.25,90,0,0,90,1
1814,15,0,262.237,0,0,1,0.25,2,3,0.0,1.0,12,45.0,20.0,3,0.701,0.0,0.0,0.15,1,2019-12-20 08:57:03.000,22,2019-12-20 09:01:25.237,0.25,90,-180,-180,90,1
1815,16,0,268.048,0,0,1,0.25,2,3,0.0,1.0,12,45.0,20.0,3,0.501,0.0,0.0,0.15,1,2019-12-20 08:57:03.000,22,2019-12-20 09:01:31.048,0.25,90,-180,-180,90,1
1816,17,0,275.32,0,0,1,0.25,2,9,0.0,1.0,6,45.0,20.0,9,0.6509999999999999,1.0,277.108,0.15,1,2019-12-20 08:57:03.000,22,2019-12-20 09:01:38.320,0.25,-90,0,0,-90,1
3889,1,0,16.597,0,-30,1,0.25,2,9,0.0,1.0,6,45.0,20.0,9,0.5379999999999999,0.0,0.0,0.0,0,2020-02-21 15:15:43.000,15,2020-02-21 15:15:59.597,0.25,90,0,30,120,1
3890,4,0,70.934,0,-30,1,0.25,2,9,0.0,1.0,6,45.0,20.0,9,0.614,1.0,74.725,0.15,1,2020-02-21 15:15:43.000,15,2020-02-21 15:16:53.934,0.25,-90,0,30,-60,1
3891,5,0,80.513,0,-30,1,0.25,2,3,0.0,1.0,12,45.0,20.0,3,0.501,0.0,0.0,0.15,1,2020-02-21 15:15:43.000,15,2020-02-21 15:17:03.513,0.25,90,-180,-150,120,1
3892,6,0,96.659,0,-30,1,0.25,2,3,0.0,1.0,12,45.0,20.0,3,0.5760000000000001,0.0,0.0,0.15,1,2020-02-21 15:15:43.000,15,2020-02-21 15:17:19.659,0.25,90,-180,-150,120,1
3893,7,0,112.322,0,-30,1,0.25,2,3,0.0,1.0,12,45.0,20.0,3,0.6509999999999999,1.0,114.695,0.0,0,2020-02-21 15:15:43.000,15,2020-02-21 15:17:35.322,0.25,-90,-180,-150,-60,1
3894,9,0,143.0,0,-30,1,0.25,2,9,0.0,1.0,6,45.0,20.0,9,0.5379999999999999,1.0,145.089,0.15,1,2020-02-21 15:15:43.000,15,2020-02-21 15:18:06.000,0.25,-90,0,30,-60,1
3895,10,0,149.28,0,-30,1,0.25,2,3,0.0,1.0,12,45.0,20.0,3,0.501,0.0,0.0,0.15,1,2020-02-21 15:15:43.000,15,2020-02-21 15:18:12.280,0.25,90,-180,-150,120,1
3896,11,0,163.435,1,-30,1,0.25,2,3,0.0,1.0,12,45.0,20.0,3,0.5760000000000001,1.0,169.438,0.0,0,2020-02-21 15:15:43.000,15,2020-02-21 15:18:26.435,0.25,-90,-180,-150,-60,1
3897,13,0,186.063,0,-30,1,0.25,2,3,0.0,1.0,12,45.0,20.0,3,0.6509999999999999,0.0,0.0,0.15,1,2020-02-21 15:15:43.000,15,2020-02-21 15:18:49.063,0.25,90,-180,-150,120,1
3898,14,0,192.62,0,-30,1,0.25,2,3,0.0,1.0,12,45.0,20.0,3,0.614,1.0,194.801,0.0,0,2020-02-21 15:15:43.000,15,2020-02-21 15:18:55.620,0.25,-90,-180,-150,-60,1
3958,1,0,25.78,0,0,1,0.25,2,3,0.0,1.0,12,45.0,20.0,3,0.5379999999999999,0.0,0.0,0.15,1,2020-03-02 10:01:42.000,79,2020-03-02 10:02:07.780,0.25,90,-180,-180,90,1
3959,2,0,54.022,1,0,1,0.25,2,3,0.0,1.0,12,45.0,20.0,3,0.614,0.0,0.0,0.15,1,2020-03-02 10:01:42.000,79,2020-03-02 10:02:36.022,0.25,90,-180,-180,90,1
3960,3,0,100.661,1,0,1,0.25,2,3,0.0,1.0,12,45.0,20.0,3,0.5760000000000001,0.0,0.0,0.15,1,2020-03-02 10:01:42.000,79,2020-03-02 10:03:22.661,0.25,90,-180,-180,90,1
3961,4,0,114.047,0,0,1,0.25,2,3,0.0,1.0,12,45.0,20.0,3,0.6509999999999999,0.0,0.0,0.15,1,2020-03-02 10:01:42.000,79,2020-03-02 10:03:36.047,0.25,90,-180,-180,90,1
3962,5,0,124.005,1,0,1,0.25,2,3,0.0,1.0,12,45.0,20.0,3,0.501,0.0,0.0,0.15,1,2020-03-02 10:01:42.000,79,2020-03-02 10:03:46.005,0.25,90,-180,-180,90,1
3963,6,0,147.44799999999995,0,0,1,0.25,2,9,0.0,1.0,6,45.0,20.0,9,0.614,1.0,150.17,0.15,1,2020-03-02 10:01:42.000,79,2020-03-02 10:04:09.448,0.25,-90,0,0,-90,1
3964,7,0,153.859,1,0,1,0.25,2,9,0.0,1.0,6,45.0,20.0,9,0.6509999999999999,1.0,159.662,0.15,1,2020-03-02 10:01:42.000,79,2020-03-02 10:04:15.859,0.25,-90,0,0,-90,1
3965,8,0,163.642,1,0,1,0.25,2,9,0.0,1.0,6,45.0,20.0,9,0.5379999999999999,1.0,167.922,0.15,1,2020-03-02 10:01:42.000,79,2020-03-02 10:04:25.642,0.25,-90,0,0,-90,1
3966,9,0,177.725,0,0,1,0.25,2,3,0.0,1.0,12,45.0,20.0,3,0.501,1.0,181.437,0.0,0,2020-03-02 10:01:42.000,79,2020-03-02 10:04:39.725,0.25,-90,-180,-180,-90,1
3967,11,0,196.939,1,0,1,0.25,2,3,0.0,1.0,12,45.0,20.0,3,0.5760000000000001,0.0,0.0,0.15,1,2020-03-02 10:01:42.000,79,2020-03-02 10:04:58.939,0.25,90,-180,-180,90,1
4282,1,0,94.684,1,-120,1,0.25,2,9,0.0,1.0,6,45.0,20.0,9,0.6509999999999999,1.0,105.137,0.15,1,2020-03-05 17:13:48.000,88,2020-03-05 17:15:22.684,0.25,-90,0,120,30,1
4283,2,0,131.69899999999998,0,-120,1,0.25,2,9,0.0,1.0,6,45.0,20.0,9,0.501,1.0,134.48,0.15,1,2020-03-05 17:13:48.000,88,2020-03-05 17:15:59.699,0.25,-90,0,120,30,1
4284,3,0,150.645,0,-120,1,0.25,2,9,0.0,1.0,6,45.0,20.0,9,0.5760000000000001,1.0,152.66299999999995,0.15,1,2020-03-05 17:13:48.000,88,2020-03-05 17:16:18.645,0.25,-90,0,120,30,1
4285,4,0,175.64,0,-120,1,0.25,2,3,0.0,1.0,12,45.0,20.0,3,0.614,0.0,0.0,0.15,1,2020-03-05 17:13:48.000,88,2020-03-05 17:16:43.640,0.25,90,-180,-60,-150,1
4286,5,0,202.132,0,-120,1,0.25,2,3,0.0,1.0,12,45.0,20.0,3,0.5379999999999999,1.0,207.854,0.0,0,2020-03-05 17:13:48.000,88,2020-03-05 17:17:10.132,0.25,-90,-180,-60,30,1
4287,7,0,261.741,0,-120,1,0.25,2,9,0.0,1.0,6,45.0,20.0,9,0.501,0.0,0.0,0.0,0,2020-03-05 17:13:48.000,88,2020-03-05 17:18:09.741,0.25,90,0,120,-150,1
4288,10,0,307.164,0,-120,1,0.25,2,3,0.0,1.0,12,45.0,20.0,3,0.6509999999999999,0.0,0.0,0.15,1,2020-03-05 17:13:48.000,88,2020-03-05 17:18:55.164,0.25,90,-180,-60,-150,1
4289,11,0,326.321,0,-120,1,0.25,2,3,0.0,1.0,12,45.0,20.0,3,0.614,0.0,0.0,0.15,1,2020-03-05 17:13:48.000,88,2020-03-05 17:19:14.321,0.25,90,-180,-60,-150,1
4290,12,0,336.932,1,-120,1,0.25,2,3,0.0,1.0,12,45.0,20.0,3,0.5760000000000001,0.0,0.0,0.15,1,2020-03-05 17:13:48.000,88,2020-03-05 17:19:24.932,0.25,90,-180,-60,-150,1
4291,13,0,378.393,0,-120,1,0.25,2,3,0.0,1.0,12,45.0,20.0,3,0.5379999999999999,0.0,0.0,0.15,1,2020-03-05 17:13:48.000,88,2020-03-05 17:20:06.393,0.25,90,-180,-60,-150,1
4342,1,0,30.457,0,0,1,0.25,2,3,0.0,1.0,12,45.0,20.0,3,0.5379999999999999,0.0,0.0,0.15,1,2020-03-06 11:06:00.000,52,2020-03-06 11:06:30.457,0.25,90,-180,-180,90,1
4343,2,0,45.603,0,0,1,0.25,2,9,0.0,1.0,6,45.0,20.0,9,0.501,1.0,47.992,0.15,1,2020-03-06 11:06:00.000,52,2020-03-06 11:06:45.603,0.25,-90,0,0,-90,1
4344,3,0,76.658,0,0,1,0.25,2,9,0.0,1.0,6,45.0,20.0,9,0.614,0.0,0.0,0.0,0,2020-03-06 11:06:00.000,52,2020-03-06 11:07:16.658,0.25,90,0,0,90,1
4345,5,0,102.973,0,0,1,0.25,2,9,0.0,1.0,6,45.0,20.0,9,0.5760000000000001,1.0,104.88,0.15,1,2020-03-06 11:06:00.000,52,2020-03-06 11:07:42.973,0.25,-90,0,0,-90,1
4346,6,0,148.686,0,0,1,0.25,2,3,0.0,1.0,12,45.0,20.0,3,0.6509999999999999,0.0,0.0,0.15,1,2020-03-06 11:06:00.000,52,2020-03-06 11:08:28.686,0.25,90,-180,-180,90,1
4347,7,0,165.545,0,0,1,0.25,2,3,0.0,1.0,12,45.0,20.0,3,0.614,0.0,0.0,0.15,1,2020-03-06 11:06:00.000,52,2020-03-06 11:08:45.545,0.25,90,-180,-180,90,1
4348,8,0,173.465,0,0,1,0.25,2,9,0.0,1.0,6,45.0,20.0,9,0.5379999999999999,1.0,175.708,0.15,1,2020-03-06 11:06:00.000,52,2020-03-06 11:08:53.465,0.25,-90,0,0,-90,1
4349,9,0,179.195,0,0,1,0.25,2,3,0.0,1.0,12,45.0,20.0,3,0.501,0.0,0.0,0.15,1,2020-03-06 11:06:00.000,52,2020-03-06 11:08:59.195,0.25,90,-180,-180,90,1
4350,10,0,204.176,1,0,1,0.25,2,3,0.0,1.0,12,45.0,20.0,3,0.6509999999999999,0.0,0.0,0.15,1,2020-03-06 11:06:00.000,52,2020-03-06 11:09:24.176,0.25,90,-180,-180,90,1
4351,11,0,216.25,0,0,1,0.25,2,3,0.0,1.0,12,45.0,20.0,3,0.5760000000000001,0.0,0.0,0.15,1,2020-03-06 11:06:00.000,52,2020-03-06 11:09:36.250,0.25,90,-180,-180,90,1
4396,1,0,68.295,1,-60,1,0.25,2,3,0.0,1.0,12,45.0,20.0,3,0.614,0.0,0.0,0.15,1,2020-03-06 16:48:07.000,95,2020-03-06 16:49:15.295,0.25,90,-180,-120,150,1
4397,2,0,84.696,0,-60,1,0.25,2,3,0.0,1.0,12,45.0,20.0,3,0.5760000000000001,0.0,0.0,0.15,1,2020-03-06 16:48:07.000,95,2020-03-06 16:49:31.696,0.25,90,-180,-120,150,1
4398,3,0,93.718,0,-60,1,0.25,2,9,0.0,1.0,6,45.0,20.0,9,0.5379999999999999,1.0,95.68,0.15,1,2020-03-06 16:48:07.000,95,2020-03-06 16:49:40.718,0.25,-90,0,60,-30,1
4399,4,0,102.443,0,-60,1,0.25,2,9,0.0,1.0,6,45.0,20.0,9,0.6509999999999999,1.0,104.106,0.15,1,2020-03-06 16:48:07.000,95,2020-03-06 16:49:49.443,0.25,-90,0,60,-30,1
4400,5,0,108.705,0,-60,1,0.25,2,9,0.0,1.0,6,45.0,20.0,9,0.501,0.0,0.0,0.0,0,2020-03-06 16:48:07.000,95,2020-03-06 16:49:55.705,0.25,90,0,60,150,1
4401,7,0,141.982,0,-60,1,0.25,2,9,0.0,1.0,6,45.0,20.0,9,0.501,1.0,149.002,0.15,1,2020-03-06 16:48:07.000,95,2020-03-06 16:50:28.982,0.25,-90,0,60,-30,1
4402,8,0,157.22799999999995,0,-60,1,0.25,2,3,0.0,1.0,12,45.0,20.0,3,0.5379999999999999,0.0,0.0,0.15,1,2020-03-06 16:48:07.000,95,2020-03-06 16:50:44.228,0.25,90,-180,-120,150,1
4403,9,0,215.505,0,-60,1,0.25,2,3,0.0,1.0,12,45.0,20.0,3,0.614,0.0,0.0,0.15,1,2020-03-06 16:48:07.000,95,2020-03-06 16:51:42.505,0.25,90,-180,-120,150,1
4404,10,0,248.828,0,-60,1,0.25,2,3,0.0,1.0,12,45.0,20.0,3,0.5760000000000001,0.0,0.0,0.15,1,2020-03-06 16:48:07.000,95,2020-03-06 16:52:15.828,0.25,90,-180,-120,150,1
4405,11,0,257.449,0,-60,1,0.25,2,3,0.0,1.0,12,45.0,20.0,3,0.6509999999999999,0.0,0.0,0.15,1,2020-03-06 16:48:07.000,95,2020-03-06 16:52:24.449,0.25,90,-180,-120,150,1
4413,1,0,27.685,0,0,1,0.25,2,9,0.0,1.0,6,45.0,20.0,9,0.501,1.0,29.465,0.15,1,2020-03-16 10:23:48.000,27,2020-03-16 10:24:15.685,0.25,-90,0,0,-90,1
4414,2,0,41.718,0,0,1,0.25,2,9,0.0,1.0,6,45.0,20.0,9,0.5379999999999999,1.0,43.856,0.15,1,2020-03-16 10:23:48.000,27,2020-03-16 10:24:29.718,0.25,-90,0,0,-90,1
4415,3,0,83.391,0,0,1,0.25,2,3,0.0,1.0,12,45.0,20.0,3,0.5760000000000001,0.0,0.0,0.15,1,2020-03-16 10:23:48.000,27,2020-03-16 10:25:11.391,0.25,90,-180,-180,90,1
4416,4,0,95.511,0,0,1,0.25,2,3,0.0,1.0,12,45.0,20.0,3,0.614,0.0,0.0,0.15,1,2020-03-16 10:23:48.000,27,2020-03-16 10:25:23.511,0.25,90,-180,-180,90,1
4417,5,0,101.359,0,0,1,0.25,2,9,0.0,1.0,6,45.0,20.0,9,0.6509999999999999,1.0,103.723,0.15,1,2020-03-16 10:23:48.000,27,2020-03-16 10:25:29.359,0.25,-90,0,0,-90,1
4418,6,0,131.145,0,0,1,0.25,2,9,0.0,1.0,6,45.0,20.0,9,0.501,1.0,133.043,0.15,1,2020-03-16 10:23:48.000,27,2020-03-16 10:25:59.145,0.25,-90,0,0,-90,1
4419,7,0,166.116,0,0,1,0.25,2,3,0.0,1.0,12,45.0,20.0,3,0.614,0.0,0.0,0.15,1,2020-03-16 10:23:48.000,27,2020-03-16 10:26:34.116,0.25,90,-180,-180,90,1
4420,8,0,174.47799999999995,0,0,1,0.25,2,9,0.0,1.0,6,45.0,20.0,9,0.5379999999999999,1.0,179.817,0.15,1,2020-03-16 10:23:48.000,27,2020-03-16 10:26:42.478,0.25,-90,0,0,-90,1
4421,9,0,199.86900000000003,0,0,1,0.25,2,3,0.0,1.0,12,45.0,20.0,3,0.5760000000000001,1.0,201.969,0.0,0,2020-03-16 10:23:48.000,27,2020-03-16 10:27:07.869,0.25,-90,-180,-180,-90,1
4422,11,0,217.489,0,0,1,0.25,2,9,0.0,1.0,6,45.0,20.0,9,0.6509999999999999,1.0,219.34,0.15,1,2020-03-16 10:23:48.000,27,2020-03-16 10:27:25.489,0.25,-90,0,0,-90,1
4453,1,0,61.264,0,0,1,0.25,2,3,0.0,1.0,12,45.0,20.0,3,0.5760000000000001,0.0,0.0,0.15,1,2020-03-17 10:40:55.000,65,2020-03-17 10:41:56.264,0.25,90,-180,-180,90,1
4454,2,0,85.529,0,0,1,0.25,2,3,0.0,1.0,12,45.0,20.0,3,0.6509999999999999,0.0,0.0,0.15,1,2020-03-17 10:40:55.000,65,2020-03-17 10:42:20.529,0.25,90,-180,-180,90,1
4455,3,0,93.958,0,0,1,0.25,2,9,0.0,1.0,6,45.0,20.0,9,0.501,0.0,0.0,0.0,0,2020-03-17 10:40:55.000,65,2020-03-17 10:42:28.958,0.25,90,0,0,90,1
4456,5,0,107.18,0,0,1,0.25,2,9,0.0,1.0,6,45.0,20.0,9,0.5379999999999999,1.0,109.05,0.15,1,2020-03-17 10:40:55.000,65,2020-03-17 10:42:42.180,0.25,-90,0,0,-90,1
4457,6,0,158.947,0,0,1,0.25,2,3,0.0,1.0,12,45.0,20.0,3,0.614,0.0,0.0,0.15,1,2020-03-17 10:40:55.000,65,2020-03-17 10:43:33.947,0.25,90,-180,-180,90,1
4458,7,0,166.00400000000005,0,0,1,0.25,2,3,0.0,1.0,12,45.0,20.0,3,0.501,0.0,0.0,0.15,1,2020-03-17 10:40:55.000,65,2020-03-17 10:43:41.004,0.25,90,-180,-180,90,1
4459,8,0,186.16,0,0,1,0.25,2,9,0.0,1.0,6,45.0,20.0,9,0.5760000000000001,1.0,187.881,0.15,1,2020-03-17 10:40:55.000,65,2020-03-17 10:44:01.160,0.25,-90,0,0,-90,1
4460,9,0,193.997,0,0,1,0.25,2,9,0.0,1.0,6,45.0,20.0,9,0.614,1.0,195.483,0.15,1,2020-03-17 10:40:55.000,65,2020-03-17 10:44:08.997,0.25,-90,0,0,-90,1
4461,10,0,224.073,1,0,1,0.25,2,3,0.0,1.0,12,45.0,20.0,3,0.5379999999999999,0.0,0.0,0.15,1,2020-03-17 10:40:55.000,65,2020-03-17 10:44:39.073,0.25,90,-180,-180,90,1
4462,11,0,245.13,0,0,1,0.25,2,9,0.0,1.0,6,45.0,20.0,9,0.6509999999999999,0.0,0.0,0.0,0,2020-03-17 10:40:55.000,65,2020-03-17 10:45:00.130,0.25,90,0,0,90,1
4520,1,0,57.743,0,120,1,0.25,2,9,0.0,1.0,6,45.0,20.0,9,0.614,1.0,61.614,0.15,1,2020-03-17 15:35:05.000,34,2020-03-17 15:36:02.743,0.25,-90,0,-120,150,1
4521,2,0,73.723,0,120,1,0.25,2,3,0.0,1.0,12,45.0,20.0,3,0.5379999999999999,1.0,75.865,0.0,0,2020-03-17 15:35:05.000,34,2020-03-17 15:36:18.723,0.25,-90,-180,60,150,1
4522,4,0,93.922,0,120,1,0.25,2,9,0.0,1.0,6,45.0,20.0,9,0.501,1.0,97.966,0.15,1,2020-03-17 15:35:05.000,34,2020-03-17 15:36:38.922,0.25,-90,0,-120,150,1
4523,5,0,115.764,1,120,1,0.25,2,3,0.0,1.0,12,45.0,20.0,3,0.6509999999999999,0.0,0.0,0.15,1,2020-03-17 15:35:05.000,34,2020-03-17 15:37:00.764,0.25,90,-180,60,-30,1
4524,6,0,130.47299999999998,0,120,1,0.25,2,3,0.0,1.0,12,45.0,20.0,3,0.5760000000000001,0.0,0.0,0.15,1,2020-03-17 15:35:05.000,34,2020-03-17 15:37:15.473,0.25,90,-180,60,-30,1
4525,7,0,138.15,0,120,1,0.25,2,3,0.0,1.0,12,45.0,20.0,3,0.614,0.0,0.0,0.15,1,2020-03-17 15:35:05.000,34,2020-03-17 15:37:23.150,0.25,90,-180,60,-30,1
4526,8,0,146.858,0,120,1,0.25,2,3,0.0,1.0,12,45.0,20.0,3,0.5760000000000001,0.0,0.0,0.15,1,2020-03-17 15:35:05.000,34,2020-03-17 15:37:31.858,0.25,90,-180,60,-30,1
4527,9,0,153.993,0,120,1,0.25,2,9,0.0,1.0,6,45.0,20.0,9,0.5379999999999999,1.0,156.44899999999996,0.15,1,2020-03-17 15:35:05.000,34,2020-03-17 15:37:38.993,0.25,-90,0,-120,150,1
4528,10,0,168.842,0,120,1,0.25,2,3,0.0,1.0,12,45.0,20.0,3,0.501,1.0,176.55200000000005,0.0,0,2020-03-17 15:35:05.000,34,2020-03-17 15:37:53.842,0.25,-90,-180,60,150,1
4529,14,0,216.356,1,120,1,0.25,2,3,0.0,1.0,12,45.0,20.0,3,0.6509999999999999,0.0,0.0,0.15,1,2020-03-17 15:35:05.000,34,2020-03-17 15:38:41.356,0.25,90,-180,60,-30,1
4579,1,0,71.105,0,0,1,0.25,2,3,0.0,1.0,12,45.0,20.0,3,0.5379999999999999,0.0,0.0,0.15,1,2020-03-18 10:01:31.000,100,2020-03-18 10:02:42.105,0.25,90,-180,-180,90,1
4580,2,0,77.57600000000002,0,0,1,0.25,2,3,0.0,1.0,12,45.0,20.0,3,0.5760000000000001,0.0,0.0,0.15,1,2020-03-18 10:01:31.000,100,2020-03-18 10:02:48.576,0.25,90,-180,-180,90,1
4581,3,0,94.095,0,0,1,0.25,2,9,0.0,1.0,6,45.0,20.0,9,0.614,1.0,95.878,0.15,1,2020-03-18 10:01:31.000,100,2020-03-18 10:03:05.095,0.25,-90,0,0,-90,1
4582,4,0,115.403,0,0,1,0.25,2,3,0.0,1.0,12,45.0,20.0,3,0.501,0.0,0.0,0.15,1,2020-03-18 10:01:31.000,100,2020-03-18 10:03:26.403,0.25,90,-180,-180,90,1
4583,5,0,122.349,0,0,1,0.25,2,9,0.0,1.0,6,45.0,20.0,9,0.6509999999999999,0.0,0.0,0.0,0,2020-03-18 10:01:31.000,100,2020-03-18 10:03:33.349,0.25,90,0,0,90,1
4584,7,0,195.539,0,0,1,0.25,2,9,0.0,1.0,6,45.0,20.0,9,0.501,0.0,0.0,0.0,0,2020-03-18 10:01:31.000,100,2020-03-18 10:04:46.539,0.25,90,0,0,90,1
4585,9,0,234.311,0,0,1,0.25,2,3,0.0,1.0,12,45.0,20.0,3,0.5379999999999999,0.0,0.0,0.15,1,2020-03-18 10:01:31.000,100,2020-03-18 10:05:25.311,0.25,90,-180,-180,90,1
4586,10,0,256.084,0,0,1,0.25,2,3,0.0,1.0,12,45.0,20.0,3,0.614,0.0,0.0,0.15,1,2020-03-18 10:01:31.000,100,2020-03-18 10:05:47.084,0.25,90,-180,-180,90,1
4587,11,0,269.125,0,0,1,0.25,2,9,0.0,1.0,6,45.0,20.0,9,0.5760000000000001,1.0,271.18,0.15,1,2020-03-18 10:01:31.000,100,2020-03-18 10:06:00.125,0.25,-90,0,0,-90,1
4588,12,0,303.448,0,0,1,0.25,2,3,0.0,1.0,12,45.0,20.0,3,0.6509999999999999,0.0,0.0,0.15,1,2020-03-18 10:01:31.000,100,2020-03-18 10:06:34.448,0.25,90,-180,-180,90,1
4630,1,0,68.89399999999999,1,-60,1,0.25,2,9,0.0,1.0,6,45.0,20.0,9,0.6509999999999999,1.0,71.318,0.15,1,2020-03-18 16:20:16.000,23,2020-03-18 16:21:24.894,0.25,-90,0,60,-30,1
4631,2,0,81.238,0,-60,1,0.25,2,9,0.0,1.0,6,45.0,20.0,9,0.5760000000000001,1.0,85.906,0.15,1,2020-03-18 16:20:16.000,23,2020-03-18 16:21:37.238,0.25,-90,0,60,-30,1
4632,3,0,93.953,0,-60,1,0.25,2,9,0.0,1.0,6,45.0,20.0,9,0.5379999999999999,1.0,95.959,0.15,1,2020-03-18 16:20:16.000,23,2020-03-18 16:21:49.953,0.25,-90,0,60,-30,1
4633,4,0,114.589,0,-60,1,0.25,2,3,0.0,1.0,12,45.0,20.0,3,0.614,0.0,0.0,0.15,1,2020-03-18 16:20:16.000,23,2020-03-18 16:22:10.589,0.25,90,-180,-120,150,1
4634,5,0,121.196,0,-60,1,0.25,2,9,0.0,1.0,6,45.0,20.0,9,0.501,1.0,123.241,0.15,1,2020-03-18 16:20:16.000,23,2020-03-18 16:22:17.196,0.25,-90,0,60,-30,1
4635,6,0,133.85,0,-60,1,0.25,2,9,0.0,1.0,6,45.0,20.0,9,0.5760000000000001,0.0,0.0,0.0,0,2020-03-18 16:20:16.000,23,2020-03-18 16:22:29.850,0.25,90,0,60,150,1
4636,8,0,155.384,0,-60,1,0.25,2,3,0.0,1.0,12,45.0,20.0,3,0.6509999999999999,0.0,0.0,0.15,1,2020-03-18 16:20:16.000,23,2020-03-18 16:22:51.384,0.25,90,-180,-120,150,1
4637,9,0,164.767,0,-60,1,0.25,2,3,0.0,1.0,12,45.0,20.0,3,0.614,0.0,0.0,0.15,1,2020-03-18 16:20:16.000,23,2020-03-18 16:23:00.767,0.25,90,-180,-120,150,1
4638,10,0,178.80900000000003,0,-60,1,0.25,2,9,0.0,1.0,6,45.0,20.0,9,0.501,1.0,180.683,0.15,1,2020-03-18 16:20:16.000,23,2020-03-18 16:23:14.809,0.25,-90,0,60,-30,1
4639,11,0,194.439,0,-60,1,0.25,2,3,0.0,1.0,12,45.0,20.0,3,0.5379999999999999,0.0,0.0,0.15,1,2020-03-18 16:20:16.000,23,2020-03-18 16:23:30.439,0.25,90,-180,-120,150,1
4701,1,0,70.383,0,-90,1,0.25,2,9,0.0,1.0,6,45.0,20.0,9,0.5379999999999999,1.0,72.233,0.15,1,2020-03-19 10:14:00.000,26,2020-03-19 10:15:10.383,0.25,-90,0,90,0,1
4702,2,0,81.173,0,-90,1,0.25,2,9,0.0,1.0,6,45.0,20.0,9,0.501,1.0,84.16799999999998,0.15,1,2020-03-19 10:14:00.000,26,2020-03-19 10:15:21.173,0.25,-90,0,90,0,1
4703,3,0,132.088,0,-90,1,0.25,2,3,0.0,1.0,12,45.0,20.0,3,0.5760000000000001,1.0,138.547,0.0,0,2020-03-19 10:14:00.000,26,2020-03-19 10:16:12.088,0.25,-90,-180,-90,0,1
4704,5,0,196.472,0,-90,1,0.25,2,3,0.0,1.0,12,45.0,20.0,3,0.6509999999999999,0.0,0.0,0.15,1,2020-03-19 10:14:00.000,26,2020-03-19 10:17:16.472,0.25,90,-180,-90,-180,1
4705,6,0,220.147,0,-90,1,0.25,2,9,0.0,1.0,6,45.0,20.0,9,0.614,1.0,222.269,0.15,1,2020-03-19 10:14:00.000,26,2020-03-19 10:17:40.147,0.25,-90,0,90,0,1
4706,7,0,246.382,0,-90,1,0.25,2,3,0.0,1.0,12,45.0,20.0,3,0.501,0.0,0.0,0.15,1,2020-03-19 10:14:00.000,26,2020-03-19 10:18:06.382,0.25,90,-180,-90,-180,1
4707,8,0,274.611,0,-90,1,0.25,2,3,0.0,1.0,12,45.0,20.0,3,0.614,0.0,0.0,0.15,1,2020-03-19 10:14:00.000,26,2020-03-19 10:18:34.611,0.25,90,-180,-90,-180,1
4708,9,0,311.575,0,-90,1,0.25,2,3,0.0,1.0,12,45.0,20.0,3,0.6509999999999999,0.0,0.0,0.15,1,2020-03-19 10:14:00.000,26,2020-03-19 10:19:11.575,0.25,90,-180,-90,-180,1
4709,10,0,351.9430000000001,0,-90,1,0.25,2,3,0.0,1.0,12,45.0,20.0,3,0.5760000000000001,0.0,0.0,0.15,1,2020-03-19 10:14:00.000,26,2020-03-19 10:19:51.943,0.25,90,-180,-90,-180,1
4710,11,0,361.776,0,-90,1,0.25,2,9,0.0,1.0,6,45.0,20.0,9,0.5379999999999999,1.0,363.439,0.15,1,2020-03-19 10:14:00.000,26,2020-03-19 10:20:01.776,0.25,-90,0,90,0,1
4756,1,0,70.459,0,150,1,0.25,2,3,0.0,1.0,12,45.0,20.0,3,0.6509999999999999,1.0,73.711,0.0,0,2020-03-19 17:25:09.000,94,2020-03-19 17:26:19.459,0.25,-90,-180,30,120,1
4757,3,0,104.063,0,150,1,0.25,2,9,0.0,1.0,6,45.0,20.0,9,0.5760000000000001,1.0,106.281,0.15,1,2020-03-19 17:25:09.000,94,2020-03-19 17:26:53.063,0.25,-90,0,-150,120,1
4758,4,0,131.553,0,150,1,0.25,2,3,0.0,1.0,12,45.0,20.0,3,0.5379999999999999,0.0,0.0,0.15,1,2020-03-19 17:25:09.000,94,2020-03-19 17:27:20.553,0.25,90,-180,30,-60,1
4759,5,0,140.97899999999996,0,150,1,0.25,2,3,0.0,1.0,12,45.0,20.0,3,0.614,0.0,0.0,0.15,1,2020-03-19 17:25:09.000,94,2020-03-19 17:27:29.979,0.25,90,-180,30,-60,1
4760,6,0,150.30100000000004,0,150,1,0.25,2,9,0.0,1.0,6,45.0,20.0,9,0.501,1.0,153.003,0.15,1,2020-03-19 17:25:09.000,94,2020-03-19 17:27:39.301,0.25,-90,0,-150,120,1
4761,7,0,186.362,0,150,1,0.25,2,3,0.0,1.0,12,45.0,20.0,3,0.614,0.0,0.0,0.15,1,2020-03-19 17:25:09.000,94,2020-03-19 17:28:15.362,0.25,90,-180,30,-60,1
4762,8,0,194.174,0,150,1,0.25,2,3,0.0,1.0,12,45.0,20.0,3,0.5379999999999999,0.0,0.0,0.15,1,2020-03-19 17:25:09.000,94,2020-03-19 17:28:23.174,0.25,90,-180,30,-60,1
4763,9,0,202.495,0,150,1,0.25,2,9,0.0,1.0,6,45.0,20.0,9,0.5760000000000001,1.0,204.563,0.15,1,2020-03-19 17:25:09.000,94,2020-03-19 17:28:31.495,0.25,-90,0,-150,120,1
4764,10,0,213.099,0,150,1,0.25,2,3,0.0,1.0,12,45.0,20.0,3,0.501,0.0,0.0,0.15,1,2020-03-19 17:25:09.000,94,2020-03-19 17:28:42.099,0.25,90,-180,30,-60,1
4765,11,0,220.912,0,150,1,0.25,2,3,0.0,1.0,12,45.0,20.0,3,0.6509999999999999,0.0,0.0,0.15,1,2020-03-19 17:25:09.000,94,2020-03-19 17:28:49.912,0.25,90,-180,30,-60,1
4847,1,0,21.758000000000006,0,60,1,0.25,2,3,0.0,1.0,12,45.0,20.0,3,0.501,1.0,23.609,0.0,0,2020-03-20 11:18:25.000,80,2020-03-20 11:18:46.758,0.25,-90,-180,120,-150,1
4848,3,0,66.95,0,60,1,0.25,2,9,0.0,1.0,6,45.0,20.0,9,0.614,0.0,0.0,0.0,0,2020-03-20 11:18:25.000,80,2020-03-20 11:19:31.950,0.25,90,0,-60,30,1
4849,6,0,127.528,0,60,1,0.25,2,9,0.0,1.0,6,45.0,20.0,9,0.5379999999999999,1.0,130.305,0.15,1,2020-03-20 11:18:25.000,80,2020-03-20 11:20:32.528,0.25,-90,0,-60,-150,1
4850,7,0,163.731,0,60,1,0.25,2,9,0.0,1.0,6,45.0,20.0,9,0.6509999999999999,1.0,165.737,0.15,1,2020-03-20 11:18:25.000,80,2020-03-20 11:21:08.731,0.25,-90,0,-60,-150,1
4851,8,0,182.366,0,60,1,0.25,2,3,0.0,1.0,12,45.0,20.0,3,0.5760000000000001,0.0,0.0,0.15,1,2020-03-20 11:18:25.000,80,2020-03-20 11:21:27.366,0.25,90,-180,120,30,1
4852,9,0,197.484,0,60,1,0.25,2,9,0.0,1.0,6,45.0,20.0,9,0.501,1.0,199.292,0.15,1,2020-03-20 11:18:25.000,80,2020-03-20 11:21:42.484,0.25,-90,0,-60,-150,1
4853,10,0,235.395,0,60,1,0.25,2,9,0.0,1.0,6,45.0,20.0,9,0.614,1.0,238.386,0.15,1,2020-03-20 11:18:25.000,80,2020-03-20 11:22:20.395,0.25,-90,0,-60,-150,1
4854,11,0,254.83900000000003,1,60,1,0.25,2,9,0.0,1.0,6,45.0,20.0,9,0.5379999999999999,0.0,0.0,0.0,0,2020-03-20 11:18:25.000,80,2020-03-20 11:22:39.839,0.25,90,0,-60,30,1
4855,13,0,292.131,0,60,1,0.25,2,3,0.0,1.0,12,45.0,20.0,3,0.6509999999999999,0.0,0.0,0.15,1,2020-03-20 11:18:25.000,80,2020-03-20 11:23:17.131,0.25,90,-180,120,30,1
4856,14,0,301.277,0,60,1,0.25,2,9,0.0,1.0,6,45.0,20.0,9,0.5760000000000001,1.0,309.706,0.15,1,2020-03-20 11:18:25.000,80,2020-03-20 11:23:26.277,0.25,-90,0,-60,-150,1
4911,1,0,134.584,0,90,1,0.25,2,9,0.0,1.0,6,45.0,20.0,9,0.6509999999999999,1.0,136.365,0.15,1,2020-03-20 16:08:13.000,93,2020-03-20 16:10:27.584,0.25,-90,0,-90,-180,1
4912,2,0,145.298,0,90,1,0.25,2,9,0.0,1.0,6,45.0,20.0,9,0.614,0.0,0.0,0.0,0,2020-03-20 16:08:13.000,93,2020-03-20 16:10:38.298,0.25,90,0,-90,0,1
4913,4,0,181.892,0,90,1,0.25,2,3,0.0,1.0,12,45.0,20.0,3,0.5760000000000001,0.0,0.0,0.15,1,2020-03-20 16:08:13.000,93,2020-03-20 16:11:14.892,0.25,90,-180,90,0,1
4914,5,0,188.76,0,90,1,0.25,2,3,0.0,1.0,12,45.0,20.0,3,0.501,0.0,0.0,0.15,1,2020-03-20 16:08:13.000,93,2020-03-20 16:11:21.760,0.25,90,-180,90,0,1
4915,6,0,196.285,0,90,1,0.25,2,9,0.0,1.0,6,45.0,20.0,9,0.5379999999999999,1.0,198.856,0.15,1,2020-03-20 16:08:13.000,93,2020-03-20 16:11:29.285,0.25,-90,0,-90,-180,1
4916,7,0,212.463,0,90,1,0.25,2,3,0.0,1.0,12,45.0,20.0,3,0.501,0.0,0.0,0.15,1,2020-03-20 16:08:13.000,93,2020-03-20 16:11:45.463,0.25,90,-180,90,0,1
4917,8,0,219.944,0,90,1,0.25,2,9,0.0,1.0,6,45.0,20.0,9,0.614,1.0,222.077,0.15,1,2020-03-20 16:08:13.000,93,2020-03-20 16:11:52.944,0.25,-90,0,-90,-180,1
4918,9,0,231.409,0,90,1,0.25,2,9,0.0,1.0,6,45.0,20.0,9,0.5760000000000001,0.0,0.0,0.0,0,2020-03-20 16:08:13.000,93,2020-03-20 16:12:04.409,0.25,90,0,-90,0,1
4919,11,0,260.311,0,90,1,0.25,2,9,0.0,1.0,6,45.0,20.0,9,0.6509999999999999,0.0,0.0,0.0,0,2020-03-20 16:08:13.000,93,2020-03-20 16:12:33.311,0.25,90,0,-90,0,1
4920,13,0,297.382,0,90,1,0.25,2,9,0.0,1.0,6,45.0,20.0,9,0.5379999999999999,1.0,299.267,0.15,1,2020-03-20 16:08:13.000,93,2020-03-20 16:13:10.382,0.25,-90,0,-90,-180,1
4964,24,0,497.352,0,0,1,0.25,2,3,0.0,1.0,12,45.0,20.0,3,0.501,0.0,0.0,0.15,1,2020-05-07 12:21:43.000,72,2020-05-07 12:30:00.352,0.25,90,-180,-180,90,1
4965,25,0,520.685,1,0,1,0.25,2,9,0.0,1.0,6,45.0,20.0,9,0.6509999999999999,1.0,537.919,0.15,1,2020-05-07 12:21:43.000,72,2020-05-07 12:30:23.685,0.25,-90,0,0,-90,1
4966,26,0,556.482,0,0,1,0.25,2,9,0.0,1.0,6,45.0,20.0,9,0.5379999999999999,1.0,558.6619999999998,0.15,1,2020-05-07 12:21:43.000,72,2020-05-07 12:30:59.482,0.25,-90,0,0,-90,1
4967,27,0,568.097,0,0,1,0.25,2,3,0.0,1.0,12,45.0,20.0,3,0.6509999999999999,0.0,0.0,0.15,1,2020-05-07 12:21:43.000,72,2020-05-07 12:31:11.097,0.25,90,-180,-180,90,1
4968,28,0,575.5219999999998,0,0,1,0.25,2,3,0.0,1.0,12,45.0,20.0,3,0.5760000000000001,0.0,0.0,0.15,1,2020-05-07 12:21:43.000,72,2020-05-07 12:31:18.522,0.25,90,-180,-180,90,1
4969,29,0,601.884,0,0,1,0.25,2,9,0.0,1.0,6,45.0,20.0,9,0.501,1.0,604.24,0.15,1,2020-05-07 12:21:43.000,72,2020-05-07 12:31:44.884,0.25,-90,0,0,-90,1
4970,30,0,614.135,0,0,1,0.25,2,9,0.0,1.0,6,45.0,20.0,9,0.614,1.0,617.284,0.15,1,2020-05-07 12:21:43.000,72,2020-05-07 12:31:57.135,0.25,-90,0,0,-90,1
4971,31,0,627.634,0,0,1,0.25,2,9,0.0,1.0,6,45.0,20.0,9,0.5760000000000001,0.0,0.0,0.0,0,2020-05-07 12:21:43.000,72,2020-05-07 12:32:10.634,0.25,90,0,0,90,1
4972,33,0,666.199,0,0,1,0.25,2,3,0.0,1.0,12,45.0,20.0,3,0.5379999999999999,0.0,0.0,0.15,1,2020-05-07 12:21:43.000,72,2020-05-07 12:32:49.199,0.25,90,-180,-180,90,1
4973,34,0,675.4119999999998,0,0,1,0.25,2,3,0.0,1.0,12,45.0,20.0,3,0.614,0.0,0.0,0.15,1,2020-05-07 12:21:43.000,72,2020-05-07 12:32:58.412,0.25,90,-180,-180,90,1
5068,1,0,26.738000000000003,0,30,1,0.25,2,9,0.0,1.0,6,45.0,20.0,9,0.614,1.0,29.314,0.15,1,2020-05-08 17:45:51.000,87,2020-05-08 17:46:17.738,0.25,-90,0,-30,-120,1
5069,2,0,44.14100000000001,0,30,1,0.25,2,9,0.0,1.0,6,45.0,20.0,9,0.501,1.0,45.572,0.15,1,2020-05-08 17:45:51.000,87,2020-05-08 17:46:35.141,0.25,-90,0,-30,-120,1
5070,3,0,57.394,0,30,1,0.25,2,9,0.0,1.0,6,45.0,20.0,9,0.5760000000000001,1.0,60.995,0.15,1,2020-05-08 17:45:51.000,87,2020-05-08 17:46:48.394,0.25,-90,0,-30,-120,1
5071,4,0,82.084,0,30,1,0.25,2,3,0.0,1.0,12,45.0,20.0,3,0.5379999999999999,0.0,0.0,0.15,1,2020-05-08 17:45:51.000,87,2020-05-08 17:47:13.084,0.25,90,-180,150,60,1
5072,5,0,89.83200000000002,0,30,1,0.25,2,3,0.0,1.0,12,45.0,20.0,3,0.6509999999999999,0.0,0.0,0.15,1,2020-05-08 17:45:51.000,87,2020-05-08 17:47:20.832,0.25,90,-180,150,60,1
5073,6,0,103.885,0,30,1,0.25,2,9,0.0,1.0,6,45.0,20.0,9,0.5760000000000001,1.0,112.39,0.15,1,2020-05-08 17:45:51.000,87,2020-05-08 17:47:34.885,0.25,-90,0,-30,-120,1
5074,7,0,125.586,0,30,1,0.25,2,3,0.0,1.0,12,45.0,20.0,3,0.501,0.0,0.0,0.15,1,2020-05-08 17:45:51.000,87,2020-05-08 17:47:56.586,0.25,90,-180,150,60,1
5075,8,0,133.161,0,30,1,0.25,2,9,0.0,1.0,6,45.0,20.0,9,0.6509999999999999,1.0,134.59,0.15,1,2020-05-08 17:45:51.000,87,2020-05-08 17:48:04.161,0.25,-90,0,-30,-120,1
5076,9,0,159.868,0,30,1,0.25,2,9,0.0,1.0,6,45.0,20.0,9,0.5379999999999999,1.0,165.747,0.15,1,2020-05-08 17:45:51.000,87,2020-05-08 17:48:30.868,0.25,-90,0,-30,-120,1
5077,10,0,195.287,0,30,1,0.25,2,3,0.0,1.0,12,45.0,20.0,3,0.614,0.0,0.0,0.15,1,2020-05-08 17:45:51.000,87,2020-05-08 17:49:06.287,0.25,90,-180,150,60,1
5132,57,0,760.77,0,0,1,0.25,2,9,0.0,1.0,6,45.0,20.0,9,0.6509999999999999,1.0,763.1010000000001,0.15,1,2020-05-11 12:56:20.000,89,2020-05-11 13:09:00.770,0.25,-90,0,0,-90,1
5133,58,0,770.572,0,0,1,0.25,2,9,0.0,1.0,6,45.0,20.0,9,0.5760000000000001,0.0,0.0,0.0,0,2020-05-11 12:56:20.000,89,2020-05-11 13:09:10.572,0.25,90,0,0,90,1
5134,61,0,807.7869999999998,0,0,1,0.25,2,9,0.0,1.0,6,45.0,20.0,9,0.501,1.0,810.2230000000002,0.15,1,2020-05-11 12:56:20.000,89,2020-05-11 13:09:47.787,0.25,-90,0,0,-90,1
5135,62,0,819.395,0,0,1,0.25,2,3,0.0,1.0,12,45.0,20.0,3,0.614,0.0,0.0,0.15,1,2020-05-11 12:56:20.000,89,2020-05-11 13:09:59.395,0.25,90,-180,-180,90,1
5136,63,0,825.447,0,0,1,0.25,2,9,0.0,1.0,6,45.0,20.0,9,0.501,1.0,829.918,0.15,1,2020-05-11 12:56:20.000,89,2020-05-11 13:10:05.447,0.25,-90,0,0,-90,1
5137,64,0,836.918,0,0,1,0.25,2,9,0.0,1.0,6,45.0,20.0,9,0.6509999999999999,1.0,839.337,0.15,1,2020-05-11 12:56:20.000,89,2020-05-11 13:10:16.918,0.25,-90,0,0,-90,1
5138,65,0,845.747,0,0,1,0.25,2,3,0.0,1.0,12,45.0,20.0,3,0.5760000000000001,0.0,0.0,0.15,1,2020-05-11 12:56:20.000,89,2020-05-11 13:10:25.747,0.25,90,-180,-180,90,1
5139,66,0,852.797,0,0,1,0.25,2,3,0.0,1.0,12,45.0,20.0,3,0.5379999999999999,0.0,0.0,0.15,1,2020-05-11 12:56:20.000,89,2020-05-11 13:10:32.797,0.25,90,-180,-180,90,1
5140,67,0,859.737,0,0,1,0.25,2,3,0.0,1.0,12,45.0,20.0,3,0.6509999999999999,0.0,0.0,0.15,1,2020-05-11 12:56:20.000,89,2020-05-11 13:10:39.737,0.25,90,-180,-180,90,1
5141,68,0,878.0269999999998,0,0,1,0.25,2,9,0.0,1.0,6,45.0,20.0,9,0.614,1.0,880.2769999999998,0.15,1,2020-05-11 12:56:20.000,89,2020-05-11 13:10:58.027,0.25,-90,0,0,-90,1
6163,1,0,45.622,0,60,1,0.25,2,3,0.0,1.0,12,45.0,20.0,3,0.601,0.0,0.0,0.12,1,2020-05-25 18:16:58.000,188,2020-05-25 18:17:43.622,0.25,90,-180,120,30,1
6164,2,0,60.81399999999999,0,60,1,0.25,2,9,0.0,1.0,6,45.0,20.0,9,0.488,1.0,64.35300000000001,0.13,1,2020-05-25 18:16:58.000,188,2020-05-25 18:17:58.814,0.25,-90,0,-60,-150,1
6165,3,0,73.282,0,60,1,0.25,2,9,0.0,1.0,6,45.0,20.0,9,0.526,1.0,75.717,0.13,1,2020-05-25 18:16:58.000,188,2020-05-25 18:18:11.282,0.25,-90,0,-60,-150,1
6166,4,0,93.33,0,60,1,0.25,2,3,0.0,1.0,12,45.0,20.0,3,0.564,0.0,0.0,0.12,1,2020-05-25 18:16:58.000,188,2020-05-25 18:18:31.330,0.25,90,-180,120,30,1
6167,5,0,99.711,0,60,1,0.25,2,3,0.0,1.0,12,45.0,20.0,3,0.451,0.0,0.0,0.12,1,2020-05-25 18:16:58.000,188,2020-05-25 18:18:37.711,0.25,90,-180,120,30,1
6168,6,0,105.798,0,60,1,0.25,2,3,0.0,1.0,12,45.0,20.0,3,0.526,0.0,0.0,0.12,1,2020-05-25 18:16:58.000,188,2020-05-25 18:18:43.798,0.25,90,-180,120,30,1
6169,7,0,126.536,0,60,1,0.25,2,9,0.0,1.0,6,45.0,20.0,9,0.564,1.0,128.511,0.13,1,2020-05-25 18:16:58.000,188,2020-05-25 18:19:04.536,0.25,-90,0,-60,-150,1
6170,8,0,146.35399999999996,0,60,1,0.25,2,9,0.0,1.0,6,45.0,20.0,9,0.488,1.0,149.115,0.13,1,2020-05-25 18:16:58.000,188,2020-05-25 18:19:24.354,0.25,-90,0,-60,-150,1
6171,9,0,159.864,0,60,1,0.25,2,9,0.0,1.0,6,45.0,20.0,9,0.451,1.0,163.063,0.13,1,2020-05-25 18:16:58.000,188,2020-05-25 18:19:37.864,0.25,-90,0,-60,-150,1
6172,10,0,188.72,0,60,1,0.25,2,9,0.0,1.0,6,45.0,20.0,9,0.601,1.0,191.321,0.13,1,2020-05-25 18:16:58.000,188,2020-05-25 18:20:06.720,0.25,-90,0,-60,-150,1
6204,1,0,79.17399999999998,0,-90,1,0.25,2,9,0.0,1.0,6,45.0,20.0,9,0.564,1.0,83.932,0.13,1,2020-05-26 13:04:39.000,148,2020-05-26 13:05:58.174,0.25,-90,0,90,0,1
6205,2,0,96.94,0,-90,1,0.25,2,3,0.0,1.0,12,45.0,20.0,3,0.451,0.0,0.0,0.12,1,2020-05-26 13:04:39.000,148,2020-05-26 13:06:15.940,0.25,90,-180,-90,-180,1
6206,3,0,117.013,0,-90,1,0.25,2,3,0.0,1.0,12,45.0,20.0,3,0.601,0.0,0.0,0.12,1,2020-05-26 13:04:39.000,148,2020-05-26 13:06:36.013,0.25,90,-180,-90,-180,1
6207,4,0,128.55200000000002,0,-90,1,0.25,2,3,0.0,1.0,12,45.0,20.0,3,0.488,0.0,0.0,0.12,1,2020-05-26 13:04:39.000,148,2020-05-26 13:06:47.552,0.25,90,-180,-90,-180,1
6208,5,0,135.969,0,-90,1,0.25,2,3,0.0,1.0,12,45.0,20.0,3,0.526,0.0,0.0,0.12,1,2020-05-26 13:04:39.000,148,2020-05-26 13:06:54.969,0.25,90,-180,-90,-180,1
6209,6,0,146.683,0,-90,1,0.25,2,3,0.0,1.0,12,45.0,20.0,3,0.601,0.0,0.0,0.12,1,2020-05-26 13:04:39.000,148,2020-05-26 13:07:05.683,0.25,90,-180,-90,-180,1
6210,7,0,155.04399999999995,0,-90,1,0.25,2,3,0.0,1.0,12,45.0,20.0,3,0.564,0.0,0.0,0.12,1,2020-05-26 13:04:39.000,148,2020-05-26 13:07:14.044,0.25,90,-180,-90,-180,1
6211,8,0,173.109,0,-90,1,0.25,2,3,0.0,1.0,12,45.0,20.0,3,0.451,1.0,174.78799999999995,0.0,0,2020-05-26 13:04:39.000,148,2020-05-26 13:07:32.109,0.25,-90,-180,-90,0,1
6212,10,0,198.276,0,-90,1,0.25,2,9,0.0,1.0,6,45.0,20.0,9,0.526,1.0,200.574,0.13,1,2020-05-26 13:04:39.000,148,2020-05-26 13:07:57.276,0.25,-90,0,90,0,1
6213,11,0,207.61900000000003,0,-90,1,0.25,2,9,0.0,1.0,6,45.0,20.0,9,0.488,1.0,209.841,0.13,1,2020-05-26 13:04:39.000,148,2020-05-26 13:08:06.619,0.25,-90,0,90,0,1
6333,1,0,58.396,0,0,1,0.25,2,9,0.0,1.0,6,45.0,20.0,9,0.488,0.0,0.0,0.0,0,2020-05-27 12:40:49.000,165,2020-05-27 12:41:47.396,0.25,90,0,0,90,1
6334,4,0,109.063,0,0,1,0.25,2,3,0.0,1.0,12,45.0,20.0,3,0.526,0.0,0.0,0.12,1,2020-05-27 12:40:49.000,165,2020-05-27 12:42:38.063,0.25,90,-180,-180,90,1
6335,5,0,120.493,0,0,1,0.25,2,9,0.0,1.0,6,45.0,20.0,9,0.601,1.0,122.822,0.13,1,2020-05-27 12:40:49.000,165,2020-05-27 12:42:49.493,0.25,-90,0,0,-90,1
6336,6,0,135.211,1,0,1,0.25,2,3,0.0,1.0,12,45.0,20.0,3,0.564,0.0,0.0,0.12,1,2020-05-27 12:40:49.000,165,2020-05-27 12:43:04.211,0.25,90,-180,-180,90,1
6337,7,0,142.26,0,0,1,0.25,2,9,0.0,1.0,6,45.0,20.0,9,0.451,0.0,0.0,0.0,0,2020-05-27 12:40:49.000,165,2020-05-27 12:43:11.260,0.25,90,0,0,90,1
6338,10,0,182.065,0,0,1,0.25,2,3,0.0,1.0,12,45.0,20.0,3,0.488,0.0,0.0,0.12,1,2020-05-27 12:40:49.000,165,2020-05-27 12:43:51.065,0.25,90,-180,-180,90,1
6339,11,0,205.292,0,0,1,0.25,2,3,0.0,1.0,12,45.0,20.0,3,0.564,0.0,0.0,0.12,1,2020-05-27 12:40:49.000,165,2020-05-27 12:44:14.292,0.25,90,-180,-180,90,1
6340,12,0,212.354,0,0,1,0.25,2,9,0.0,1.0,6,45.0,20.0,9,0.601,1.0,215.239,0.13,1,2020-05-27 12:40:49.000,165,2020-05-27 12:44:21.354,0.25,-90,0,0,-90,1
6341,13,0,223.96,0,0,1,0.25,2,9,0.0,1.0,6,45.0,20.0,9,0.451,1.0,225.634,0.13,1,2020-05-27 12:40:49.000,165,2020-05-27 12:44:32.960,0.25,-90,0,0,-90,1
6342,14,0,272.91200000000003,0,0,1,0.25,2,3,0.0,1.0,12,45.0,20.0,3,0.526,0.0,0.0,0.12,1,2020-05-27 12:40:49.000,165,2020-05-27 12:45:21.912,0.25,90,-180,-180,90,1
6391,1,0,38.634,0,-90,1,0.25,2,3,0.0,1.0,12,45.0,20.0,3,0.451,0.0,0.0,0.12,1,2020-05-27 18:25:18.000,106,2020-05-27 18:25:56.634,0.25,90,-180,-90,-180,1
6392,2,0,49.864,0,-90,1,0.25,2,3,0.0,1.0,12,45.0,20.0,3,0.488,0.0,0.0,0.12,1,2020-05-27 18:25:18.000,106,2020-05-27 18:26:07.864,0.25,90,-180,-90,-180,1
6393,3,0,57.69,0,-90,1,0.25,2,3,0.0,1.0,12,45.0,20.0,3,0.564,0.0,0.0,0.12,1,2020-05-27 18:25:18.000,106,2020-05-27 18:26:15.690,0.25,90,-180,-90,-180,1
6394,4,0,65.515,0,-90,1,0.25,2,9,0.0,1.0,6,45.0,20.0,9,0.601,1.0,67.43,0.13,1,2020-05-27 18:25:18.000,106,2020-05-27 18:26:23.515,0.25,-90,0,90,0,1
6395,5,0,72.403,0,-90,1,0.25,2,9,0.0,1.0,6,45.0,20.0,9,0.526,0.0,0.0,0.0,0,2020-05-27 18:25:18.000,106,2020-05-27 18:26:30.403,0.25,90,0,90,-180,1
6396,8,0,114.691,0,-90,1,0.25,2,3,0.0,1.0,12,45.0,20.0,3,0.526,0.0,0.0,0.12,1,2020-05-27 18:25:18.000,106,2020-05-27 18:27:12.691,0.25,90,-180,-90,-180,1
6397,9,0,151.862,0,-90,1,0.25,2,3,0.0,1.0,12,45.0,20.0,3,0.488,0.0,0.0,0.12,1,2020-05-27 18:25:18.000,106,2020-05-27 18:27:49.862,0.25,90,-180,-90,-180,1
6398,10,0,159.232,0,-90,1,0.25,2,9,0.0,1.0,6,45.0,20.0,9,0.601,1.0,161.192,0.13,1,2020-05-27 18:25:18.000,106,2020-05-27 18:27:57.232,0.25,-90,0,90,0,1
6399,11,0,176.77700000000004,0,-90,1,0.25,2,3,0.0,1.0,12,45.0,20.0,3,0.451,0.0,0.0,0.12,1,2020-05-27 18:25:18.000,106,2020-05-27 18:28:14.777,0.25,90,-180,-90,-180,1
6400,12,0,183.448,0,-90,1,0.25,2,9,0.0,1.0,6,45.0,20.0,9,0.564,1.0,185.209,0.13,1,2020-05-27 18:25:18.000,106,2020-05-27 18:28:21.448,0.25,-90,0,90,0,1
6455,1,0,52.865,0,-150,1,0.25,2,3,0.0,1.0,12,45.0,20.0,3,0.488,1.0,57.207,0.0,0,2020-05-28 13:51:23.000,186,2020-05-28 13:52:15.865,0.25,-90,-180,-30,60,1
6456,4,0,142.945,0,-150,1,0.25,2,3,0.0,1.0,12,45.0,20.0,3,0.564,0.0,0.0,0.12,1,2020-05-28 13:51:23.000,186,2020-05-28 13:53:45.945,0.25,90,-180,-30,-120,1
6457,5,0,157.46200000000005,0,-150,1,0.25,2,3,0.0,1.0,12,45.0,20.0,3,0.451,0.0,0.0,0.12,1,2020-05-28 13:51:23.000,186,2020-05-28 13:54:00.462,0.25,90,-180,-30,-120,1
6458,6,0,219.235,1,-150,1,0.25,2,9,0.0,1.0,6,45.0,20.0,9,0.601,1.0,220.695,0.13,1,2020-05-28 13:51:23.000,186,2020-05-28 13:55:02.235,0.25,-90,0,150,60,1
6459,7,0,226.6,0,-150,1,0.25,2,3,0.0,1.0,12,45.0,20.0,3,0.526,0.0,0.0,0.12,1,2020-05-28 13:51:23.000,186,2020-05-28 13:55:09.600,0.25,90,-180,-30,-120,1
6460,8,0,238.384,0,-150,1,0.25,2,9,0.0,1.0,6,45.0,20.0,9,0.451,1.0,240.401,0.13,1,2020-05-28 13:51:23.000,186,2020-05-28 13:55:21.384,0.25,-90,0,150,60,1
6461,9,0,244.476,0,-150,1,0.25,2,9,0.0,1.0,6,45.0,20.0,9,0.564,1.0,246.742,0.13,1,2020-05-28 13:51:23.000,186,2020-05-28 13:55:27.476,0.25,-90,0,150,60,1
6462,10,0,263.505,0,-150,1,0.25,2,9,0.0,1.0,6,45.0,20.0,9,0.526,1.0,264.937,0.13,1,2020-05-28 13:51:23.000,186,2020-05-28 13:55:46.505,0.25,-90,0,150,60,1
6463,11,0,286.585,0,-150,1,0.25,2,9,0.0,1.0,6,45.0,20.0,9,0.488,1.0,288.31,0.13,1,2020-05-28 13:51:23.000,186,2020-05-28 13:56:09.585,0.25,-90,0,150,60,1
6464,12,0,301.12,0,-150,1,0.25,2,3,0.0,1.0,12,45.0,20.0,3,0.601,0.0,0.0,0.12,1,2020-05-28 13:51:23.000,186,2020-05-28 13:56:24.120,0.25,90,-180,-30,-120,1
6539,1,0,20.013,0,-60,1,0.25,2,9,0.0,1.0,6,45.0,20.0,9,0.451,1.0,23.039,0.13,1,2020-05-29 13:12:21.000,192,2020-05-29 13:12:41.013,0.25,-90,0,60,-30,1
6540,2,0,65.854,0,-60,1,0.25,2,3,0.0,1.0,12,45.0,20.0,3,0.564,0.0,0.0,0.12,1,2020-05-29 13:12:21.000,192,2020-05-29 13:13:26.854,0.25,90,-180,-120,150,1
6541,3,0,74.22399999999998,0,-60,1,0.25,2,3,0.0,1.0,12,45.0,20.0,3,0.601,0.0,0.0,0.12,1,2020-05-29 13:12:21.000,192,2020-05-29 13:13:35.224,0.25,90,-180,-120,150,1
6542,4,0,91.195,0,-60,1,0.25,2,3,0.0,1.0,12,45.0,20.0,3,0.526,1.0,94.286,0.0,0,2020-05-29 13:12:21.000,192,2020-05-29 13:13:52.195,0.25,-90,-180,-120,-30,1
6543,6,0,141.83,0,-60,1,0.25,2,3,0.0,1.0,12,45.0,20.0,3,0.488,0.0,0.0,0.12,1,2020-05-29 13:12:21.000,192,2020-05-29 13:14:42.830,0.25,90,-180,-120,150,1
6544,7,0,151.149,0,-60,1,0.25,2,3,0.0,1.0,12,45.0,20.0,3,0.564,1.0,153.786,0.0,0,2020-05-29 13:12:21.000,192,2020-05-29 13:14:52.149,0.25,-90,-180,-120,-30,1
6545,9,0,187.343,0,-60,1,0.25,2,9,0.0,1.0,6,45.0,20.0,9,0.526,1.0,188.781,0.13,1,2020-05-29 13:12:21.000,192,2020-05-29 13:15:28.343,0.25,-90,0,60,-30,1
6546,10,0,199.997,0,-60,1,0.25,2,3,0.0,1.0,12,45.0,20.0,3,0.601,0.0,0.0,0.12,1,2020-05-29 13:12:21.000,192,2020-05-29 13:15:40.997,0.25,90,-180,-120,150,1
6547,11,0,214.997,0,-60,1,0.25,2,9,0.0,1.0,6,45.0,20.0,9,0.488,1.0,216.979,0.13,1,2020-05-29 13:12:21.000,192,2020-05-29 13:15:55.997,0.25,-90,0,60,-30,1
6548,12,0,251.139,0,-60,1,0.25,2,3,0.0,1.0,12,45.0,20.0,3,0.451,0.0,0.0,0.12,1,2020-05-29 13:12:21.000,192,2020-05-29 13:16:32.139,0.25,90,-180,-120,150,1
6666,1,0,17.469,0,-120,1,0.25,2,3,0.0,1.0,12,45.0,20.0,3,0.526,0.0,0.0,0.12,1,2020-05-29 18:24:20.000,170,2020-05-29 18:24:37.469,0.25,90,-180,-60,-150,1
6667,2,0,74.372,0,-120,1,0.25,2,3,0.0,1.0,12,45.0,20.0,3,0.601,0.0,0.0,0.12,1,2020-05-29 18:24:20.000,170,2020-05-29 18:25:34.372,0.25,90,-180,-60,-150,1
6668,3,0,91.666,0,-120,1,0.25,2,9,0.0,1.0,6,45.0,20.0,9,0.451,1.0,93.439,0.13,1,2020-05-29 18:24:20.000,170,2020-05-29 18:25:51.666,0.25,-90,0,120,30,1
6669,4,0,109.385,0,-120,1,0.25,2,9,0.0,1.0,6,45.0,20.0,9,0.488,1.0,114.606,0.13,1,2020-05-29 18:24:20.000,170,2020-05-29 18:26:09.385,0.25,-90,0,120,30,1
6670,5,0,126.112,0,-120,1,0.25,2,3,0.0,1.0,12,45.0,20.0,3,0.564,0.0,0.0,0.12,1,2020-05-29 18:24:20.000,170,2020-05-29 18:26:26.112,0.25,90,-180,-60,-150,1
6671,6,0,139.181,1,-120,1,0.25,2,9,0.0,1.0,6,45.0,20.0,9,0.488,1.0,140.929,0.13,1,2020-05-29 18:24:20.000,170,2020-05-29 18:26:39.181,0.25,-90,0,120,30,1
6672,7,0,158.632,0,-120,1,0.25,2,3,0.0,1.0,12,45.0,20.0,3,0.526,0.0,0.0,0.12,1,2020-05-29 18:24:20.000,170,2020-05-29 18:26:58.632,0.25,90,-180,-60,-150,1
6673,8,0,169.588,0,-120,1,0.25,2,9,0.0,1.0,6,45.0,20.0,9,0.564,1.0,173.114,0.13,1,2020-05-29 18:24:20.000,170,2020-05-29 18:27:09.588,0.25,-90,0,120,30,1
6674,9,0,181.74400000000003,0,-120,1,0.25,2,9,0.0,1.0,6,45.0,20.0,9,0.601,1.0,183.597,0.13,1,2020-05-29 18:24:20.000,170,2020-05-29 18:27:21.744,0.25,-90,0,120,30,1
6675,10,0,206.346,0,-120,1,0.25,2,9,0.0,1.0,6,45.0,20.0,9,0.451,1.0,207.905,0.13,1,2020-05-29 18:24:20.000,170,2020-05-29 18:27:46.346,0.25,-90,0,120,30,1
6702,1,0,41.423,0,0,1,0.25,2,9,0.0,1.0,6,45.0,20.0,9,0.601,0.0,0.0,0.0,0,2020-06-01 12:43:28.000,203,2020-06-01 12:44:09.423,0.25,90,0,0,90,1
6703,3,0,106.235,0,0,1,0.25,2,3,0.0,1.0,12,45.0,20.0,3,0.451,0.0,0.0,0.12,1,2020-06-01 12:43:28.000,203,2020-06-01 12:45:14.235,0.25,90,-180,-180,90,1
6704,4,0,113.665,0,0,1,0.25,2,3,0.0,1.0,12,45.0,20.0,3,0.488,0.0,0.0,0.12,1,2020-06-01 12:43:28.000,203,2020-06-01 12:45:21.665,0.25,90,-180,-180,90,1
6705,5,0,121.394,0,0,1,0.25,2,3,0.0,1.0,12,45.0,20.0,3,0.526,0.0,0.0,0.12,1,2020-06-01 12:43:28.000,203,2020-06-01 12:45:29.394,0.25,90,-180,-180,90,1
6706,6,0,136.39700000000002,0,0,1,0.25,2,9,0.0,1.0,6,45.0,20.0,9,0.564,1.0,138.452,0.13,1,2020-06-01 12:43:28.000,203,2020-06-01 12:45:44.397,0.25,-90,0,0,-90,1
6707,7,0,157.11,0,0,1,0.25,2,9,0.0,1.0,6,45.0,20.0,9,0.451,1.0,158.671,0.13,1,2020-06-01 12:43:28.000,203,2020-06-01 12:46:05.110,0.25,-90,0,0,-90,1
6708,8,0,169.268,0,0,1,0.25,2,3,0.0,1.0,12,45.0,20.0,3,0.564,0.0,0.0,0.12,1,2020-06-01 12:43:28.000,203,2020-06-01 12:46:17.268,0.25,90,-180,-180,90,1
6709,9,0,176.386,0,0,1,0.25,2,3,0.0,1.0,12,45.0,20.0,3,0.526,0.0,0.0,0.12,1,2020-06-01 12:43:28.000,203,2020-06-01 12:46:24.386,0.25,90,-180,-180,90,1
6710,10,0,182.8,0,0,1,0.25,2,3,0.0,1.0,12,45.0,20.0,3,0.488,0.0,0.0,0.12,1,2020-06-01 12:43:28.000,203,2020-06-01 12:46:30.800,0.25,90,-180,-180,90,1
6711,11,0,193.358,0,0,1,0.25,2,9,0.0,1.0,6,45.0,20.0,9,0.601,1.0,194.834,0.13,1,2020-06-01 12:43:28.000,203,2020-06-01 12:46:41.358,0.25,-90,0,0,-90,1
6844,1,0,38.774,0,30,1,0.25,2,9,0.0,1.0,6,45.0,20.0,9,0.526,1.0,42.297,0.13,1,2020-06-02 17:51:45.000,146,2020-06-02 17:52:23.774,0.25,-90,0,-30,-120,1
6845,2,0,56.49,0,30,1,0.25,2,9,0.0,1.0,6,45.0,20.0,9,0.564,1.0,59.08,0.13,1,2020-06-02 17:51:45.000,146,2020-06-02 17:52:41.490,0.25,-90,0,-30,-120,1
6846,3,0,93.091,0,30,1,0.25,2,3,0.0,1.0,12,45.0,20.0,3,0.451,0.0,0.0,0.12,1,2020-06-02 17:51:45.000,146,2020-06-02 17:53:18.091,0.25,90,-180,150,60,1
6847,4,0,109.273,0,30,1,0.25,2,9,0.0,1.0,6,45.0,20.0,9,0.601,1.0,110.884,0.13,1,2020-06-02 17:51:45.000,146,2020-06-02 17:53:34.273,0.25,-90,0,-30,-120,1
6848,5,0,119.564,0,30,1,0.25,2,3,0.0,1.0,12,45.0,20.0,3,0.488,0.0,0.0,0.12,1,2020-06-02 17:51:45.000,146,2020-06-02 17:53:44.564,0.25,90,-180,150,60,1
6849,6,0,157.047,0,30,1,0.25,2,3,0.0,1.0,12,45.0,20.0,3,0.564,0.0,0.0,0.12,1,2020-06-02 17:51:45.000,146,2020-06-02 17:54:22.047,0.25,90,-180,150,60,1
6850,7,0,176.68400000000003,0,30,1,0.25,2,3,0.0,1.0,12,45.0,20.0,3,0.488,0.0,0.0,0.12,1,2020-06-02 17:51:45.000,146,2020-06-02 17:54:41.684,0.25,90,-180,150,60,1
6851,8,0,183.355,1,30,1,0.25,2,9,0.0,1.0,6,45.0,20.0,9,0.451,1.0,186.889,0.13,1,2020-06-02 17:51:45.000,146,2020-06-02 17:54:48.355,0.25,-90,0,-30,-120,1
6852,9,0,194.046,0,30,1,0.25,2,9,0.0,1.0,6,45.0,20.0,9,0.526,1.0,199.914,0.13,1,2020-06-02 17:51:45.000,146,2020-06-02 17:54:59.046,0.25,-90,0,-30,-120,1
6853,10,0,213.349,0,30,1,0.25,2,9,0.0,1.0,6,45.0,20.0,9,0.601,1.0,216.083,0.13,1,2020-06-02 17:51:45.000,146,2020-06-02 17:55:18.349,0.25,-90,0,-30,-120,1
6920,1,0,73.9,0,180,1,0.25,2,9,0.0,1.0,6,45.0,20.0,9,0.564,1.0,79.59100000000002,0.13,1,2020-06-03 12:44:56.000,214,2020-06-03 12:46:09.900,0.25,-90,0,-180,90,1
6921,2,0,110.528,0,180,1,0.25,2,3,0.0,1.0,12,45.0,20.0,3,0.488,1.0,112.264,0.0,0,2020-06-03 12:44:56.000,214,2020-06-03 12:46:46.528,0.25,-90,-180,0,90,1
6922,4,0,127.383,1,180,1,0.25,2,9,0.0,1.0,6,45.0,20.0,9,0.451,1.0,128.889,0.13,1,2020-06-03 12:44:56.000,214,2020-06-03 12:47:03.383,0.25,-90,0,-180,90,1
6923,5,0,160.05200000000005,0,180,1,0.25,2,9,0.0,1.0,6,45.0,20.0,9,0.601,1.0,161.765,0.13,1,2020-06-03 12:44:56.000,214,2020-06-03 12:47:36.052,0.25,-90,0,-180,90,1
6924,6,0,176.821,0,180,1,0.25,2,9,0.0,1.0,6,45.0,20.0,9,0.526,1.0,179.209,0.13,1,2020-06-03 12:44:56.000,214,2020-06-03 12:47:52.821,0.25,-90,0,-180,90,1
6925,7,0,193.671,0,180,1,0.25,2,3,0.0,1.0,12,45.0,20.0,3,0.564,0.0,0.0,0.12,1,2020-06-03 12:44:56.000,214,2020-06-03 12:48:09.671,0.25,90,-180,0,-90,1
6926,8,0,202.722,0,180,1,0.25,2,9,0.0,1.0,6,45.0,20.0,9,0.488,1.0,204.512,0.13,1,2020-06-03 12:44:56.000,214,2020-06-03 12:48:18.722,0.25,-90,0,-180,90,1
6927,9,0,214.128,0,180,1,0.25,2,9,0.0,1.0,6,45.0,20.0,9,0.526,1.0,216.444,0.13,1,2020-06-03 12:44:56.000,214,2020-06-03 12:48:30.128,0.25,-90,0,-180,90,1
6928,10,0,246.288,0,180,1,0.25,2,9,0.0,1.0,6,45.0,20.0,9,0.601,1.0,246.08,0.13,1,2020-06-03 12:44:56.000,214,2020-06-03 12:49:02.288,0.25,-90,0,-180,90,1
6929,11,0,266.327,0,180,1,0.25,2,3,0.0,1.0,12,45.0,20.0,3,0.451,1.0,268.307,0.0,0,2020-06-03 12:44:56.000,214,2020-06-03 12:49:22.327,0.25,-90,-180,0,90,1
7009,1,0,42.852,0,-30,1,0.25,2,9,0.0,1.0,6,45.0,20.0,9,0.564,0.0,0.0,0.0,0,2020-06-04 12:01:58.000,249,2020-06-04 12:02:40.852,0.25,90,0,30,120,1
7010,3,0,91.81,0,-30,1,0.25,2,9,0.0,1.0,6,45.0,20.0,9,0.488,1.0,93.795,0.13,1,2020-06-04 12:01:58.000,249,2020-06-04 12:03:29.810,0.25,-90,0,30,-60,1
7011,4,0,124.97,0,-30,1,0.25,2,3,0.0,1.0,12,45.0,20.0,3,0.526,0.0,0.0,0.12,1,2020-06-04 12:01:58.000,249,2020-06-04 12:04:02.970,0.25,90,-180,-150,120,1
7012,5,0,131.735,0,-30,1,0.25,2,9,0.0,1.0,6,45.0,20.0,9,0.451,1.0,133.768,0.13,1,2020-06-04 12:01:58.000,249,2020-06-04 12:04:09.735,0.25,-90,0,30,-60,1
7013,6,0,156.16,0,-30,1,0.25,2,3,0.0,1.0,12,45.0,20.0,3,0.601,0.0,0.0,0.12,1,2020-06-04 12:01:58.000,249,2020-06-04 12:04:34.160,0.25,90,-180,-150,120,1
7014,7,0,182.715,0,-30,1,0.25,2,3,0.0,1.0,12,45.0,20.0,3,0.564,0.0,0.0,0.12,1,2020-06-04 12:01:58.000,249,2020-06-04 12:05:00.715,0.25,90,-180,-150,120,1
7015,8,0,204.134,0,-30,1,0.25,2,3,0.0,1.0,12,45.0,20.0,3,0.601,0.0,0.0,0.12,1,2020-06-04 12:01:58.000,249,2020-06-04 12:05:22.134,0.25,90,-180,-150,120,1
7016,9,0,210.9,0,-30,1,0.25,2,9,0.0,1.0,6,45.0,20.0,9,0.488,0.0,0.0,0.0,0,2020-06-04 12:01:58.000,249,2020-06-04 12:05:28.900,0.25,90,0,30,120,1
7017,11,0,232.965,0,-30,1,0.25,2,9,0.0,1.0,6,45.0,20.0,9,0.526,1.0,234.985,0.13,1,2020-06-04 12:01:58.000,249,2020-06-04 12:05:50.965,0.25,-90,0,30,-60,1
7018,12,0,254.66,0,-30,1,0.25,2,3,0.0,1.0,12,45.0,20.0,3,0.451,0.0,0.0,0.12,1,2020-06-04 12:01:58.000,249,2020-06-04 12:06:12.660,0.25,90,-180,-150,120,1
7045,1,0,32.071,0,30,1,0.25,2,9,0.0,1.0,6,45.0,20.0,9,0.564,0.0,0.0,0.0,0,2020-06-05 11:59:05.000,253,2020-06-05 11:59:37.071,0.25,90,0,-30,60,1
7046,3,0,63.958,0,30,1,0.25,2,9,0.0,1.0,6,45.0,20.0,9,0.451,1.0,65.57300000000001,0.13,1,2020-06-05 11:59:05.000,253,2020-06-05 12:00:08.958,0.25,-90,0,-30,-120,1
7047,4,0,83.6,1,30,1,0.25,2,3,0.0,1.0,12,45.0,20.0,3,0.601,0.0,0.0,0.12,1,2020-06-05 11:59:05.000,253,2020-06-05 12:00:28.600,0.25,90,-180,150,60,1
7048,5,0,90.014,0,30,1,0.25,2,9,0.0,1.0,6,45.0,20.0,9,0.526,0.0,0.0,0.0,0,2020-06-05 11:59:05.000,253,2020-06-05 12:00:35.014,0.25,90,0,-30,60,1
7049,7,0,112.187,0,30,1,0.25,2,9,0.0,1.0,6,45.0,20.0,9,0.488,1.0,114.927,0.13,1,2020-06-05 11:59:05.000,253,2020-06-05 12:00:57.187,0.25,-90,0,-30,-120,1
7050,8,0,145.047,0,30,1,0.25,2,3,0.0,1.0,12,45.0,20.0,3,0.451,0.0,0.0,0.12,1,2020-06-05 11:59:05.000,253,2020-06-05 12:01:30.047,0.25,90,-180,150,60,1
7051,9,0,154.047,0,30,1,0.25,2,9,0.0,1.0,6,45.0,20.0,9,0.526,0.0,0.0,0.0,0,2020-06-05 11:59:05.000,253,2020-06-05 12:01:39.047,0.25,90,0,-30,60,1
7052,11,0,174.467,0,30,1,0.25,2,3,0.0,1.0,12,45.0,20.0,3,0.564,0.0,0.0,0.12,1,2020-06-05 11:59:05.000,253,2020-06-05 12:01:59.467,0.25,90,-180,150,60,1
7053,12,0,181.345,0,30,1,0.25,2,3,0.0,1.0,12,45.0,20.0,3,0.601,0.0,0.0,0.12,1,2020-06-05 11:59:05.000,253,2020-06-05 12:02:06.345,0.25,90,-180,150,60,1
7054,13,0,197.276,0,30,1,0.25,2,3,0.0,1.0,12,45.0,20.0,3,0.488,0.0,0.0,0.12,1,2020-06-05 11:59:05.000,253,2020-06-05 12:02:22.276,0.25,90,-180,150,60,1
7130,1,0,36.67,0,120,1,0.25,2,3,0.0,1.0,12,45.0,20.0,3,0.601,0.0,0.0,0.12,1,2020-06-05 17:42:30.000,215,2020-06-05 17:43:06.670,0.25,90,-180,60,-30,1
7131,2,0,47.54600000000001,0,120,1,0.25,2,3,0.0,1.0,12,45.0,20.0,3,0.451,0.0,0.0,0.12,1,2020-06-05 17:42:30.000,215,2020-06-05 17:43:17.546,0.25,90,-180,60,-30,1
7132,3,0,53.66,0,120,1,0.25,2,3,0.0,1.0,12,45.0,20.0,3,0.526,0.0,0.0,0.12,1,2020-06-05 17:42:30.000,215,2020-06-05 17:43:23.660,0.25,90,-180,60,-30,1
7133,4,0,79.172,0,120,1,0.25,2,3,0.0,1.0,12,45.0,20.0,3,0.488,0.0,0.0,0.12,1,2020-06-05 17:42:30.000,215,2020-06-05 17:43:49.172,0.25,90,-180,60,-30,1
7134,5,0,85.81,0,120,1,0.25,2,3,0.0,1.0,12,45.0,20.0,3,0.564,1.0,88.54899999999998,0.0,0,2020-06-05 17:42:30.000,215,2020-06-05 17:43:55.810,0.25,-90,-180,60,150,1
7135,7,0,102.259,0,120,1,0.25,2,9,0.0,1.0,6,45.0,20.0,9,0.488,1.0,104.367,0.13,1,2020-06-05 17:42:30.000,215,2020-06-05 17:44:12.259,0.25,-90,0,-120,150,1
7136,8,0,113.296,0,120,1,0.25,2,3,0.0,1.0,12,45.0,20.0,3,0.451,0.0,0.0,0.12,1,2020-06-05 17:42:30.000,215,2020-06-05 17:44:23.296,0.25,90,-180,60,-30,1
7137,9,0,118.762,0,120,1,0.25,2,9,0.0,1.0,6,45.0,20.0,9,0.564,1.0,120.918,0.13,1,2020-06-05 17:42:30.000,215,2020-06-05 17:44:28.762,0.25,-90,0,-120,150,1
7138,10,0,137.989,0,120,1,0.25,2,3,0.0,1.0,12,45.0,20.0,3,0.526,0.0,0.0,0.12,1,2020-06-05 17:42:30.000,215,2020-06-05 17:44:47.989,0.25,90,-180,60,-30,1
7139,11,0,144.093,0,120,1,0.25,2,9,0.0,1.0,6,45.0,20.0,9,0.601,1.0,146.27200000000005,0.13,1,2020-06-05 17:42:30.000,215,2020-06-05 17:44:54.093,0.25,-90,0,-120,150,1
7243,1,0,51.862,0,-150,1,0.25,2,3,0.0,1.0,12,45.0,20.0,3,0.526,0.0,0.0,0.12,1,2020-06-09 12:00:54.000,119,2020-06-09 12:01:45.862,0.25,90,-180,-30,-120,1
7244,2,0,63.729,0,-150,1,0.25,2,3,0.0,1.0,12,45.0,20.0,3,0.451,0.0,0.0,0.12,1,2020-06-09 12:00:54.000,119,2020-06-09 12:01:57.729,0.25,90,-180,-30,-120,1
7245,3,0,72.342,0,-150,1,0.25,2,9,0.0,1.0,6,45.0,20.0,9,0.564,1.0,73.85600000000002,0.13,1,2020-06-09 12:00:54.000,119,2020-06-09 12:02:06.342,0.25,-90,0,150,60,1
7246,4,0,87.087,0,-150,1,0.25,2,9,0.0,1.0,6,45.0,20.0,9,0.488,1.0,88.15,0.13,1,2020-06-09 12:00:54.000,119,2020-06-09 12:02:21.087,0.25,-90,0,150,60,1
7247,5,0,109.787,0,-150,1,0.25,2,9,0.0,1.0,6,45.0,20.0,9,0.601,1.0,107.141,0.13,1,2020-06-09 12:00:54.000,119,2020-06-09 12:02:43.787,0.25,-90,0,150,60,1
7248,6,0,127.978,0,-150,1,0.25,2,3,0.0,1.0,12,45.0,20.0,3,0.526,0.0,0.0,0.12,1,2020-06-09 12:00:54.000,119,2020-06-09 12:03:01.978,0.25,90,-180,-30,-120,1
7249,7,0,157.032,0,-150,1,0.25,2,3,0.0,1.0,12,45.0,20.0,3,0.488,0.0,0.0,0.12,1,2020-06-09 12:00:54.000,119,2020-06-09 12:03:31.032,0.25,90,-180,-30,-120,1
7250,8,0,178.27200000000005,0,-150,1,0.25,2,9,0.0,1.0,6,45.0,20.0,9,0.564,1.0,180.345,0.13,1,2020-06-09 12:00:54.000,119,2020-06-09 12:03:52.272,0.25,-90,0,150,60,1
7251,9,0,185.15,0,-150,1,0.25,2,9,0.0,1.0,6,45.0,20.0,9,0.601,1.0,186.298,0.13,1,2020-06-09 12:00:54.000,119,2020-06-09 12:03:59.150,0.25,-90,0,150,60,1
7252,10,0,198.43400000000003,1,-150,1,0.25,2,9,0.0,1.0,6,45.0,20.0,9,0.451,1.0,200.838,0.13,1,2020-06-09 12:00:54.000,119,2020-06-09 12:04:12.434,0.25,-90,0,150,60,1
7266,1,0,40.386,0,60,1,0.25,2,3,0.0,1.0,12,45.0,20.0,3,0.488,0.0,0.0,0.12,1,2020-06-09 18:06:45.000,121,2020-06-09 18:07:25.386,0.25,90,-180,120,30,1
7267,2,0,48.111,0,60,1,0.25,2,9,0.0,1.0,6,45.0,20.0,9,0.526,0.0,0.0,0.0,0,2020-06-09 18:06:45.000,121,2020-06-09 18:07:33.111,0.25,90,0,-60,30,1
7268,4,0,64.77,0,60,1,0.25,2,3,0.0,1.0,12,45.0,20.0,3,0.564,0.0,0.0,0.12,1,2020-06-09 18:06:45.000,121,2020-06-09 18:07:49.770,0.25,90,-180,120,30,1
7269,5,0,72.70100000000002,0,60,1,0.25,2,3,0.0,1.0,12,45.0,20.0,3,0.451,0.0,0.0,0.12,1,2020-06-09 18:06:45.000,121,2020-06-09 18:07:57.701,0.25,90,-180,120,30,1
7270,6,0,77.895,0,60,1,0.25,2,9,0.0,1.0,6,45.0,20.0,9,0.601,1.0,79.84,0.13,1,2020-06-09 18:06:45.000,121,2020-06-09 18:08:02.895,0.25,-90,0,-60,-150,1
7271,7,0,97.16,0,60,1,0.25,2,3,0.0,1.0,12,45.0,20.0,3,0.601,0.0,0.0,0.12,1,2020-06-09 18:06:45.000,121,2020-06-09 18:08:22.160,0.25,90,-180,120,30,1
7272,8,0,102.311,0,60,1,0.25,2,3,0.0,1.0,12,45.0,20.0,3,0.526,0.0,0.0,0.12,1,2020-06-09 18:06:45.000,121,2020-06-09 18:08:27.311,0.25,90,-180,120,30,1
7273,9,0,107.387,0,60,1,0.25,2,3,0.0,1.0,12,45.0,20.0,3,0.451,0.0,0.0,0.12,1,2020-06-09 18:06:45.000,121,2020-06-09 18:08:32.387,0.25,90,-180,120,30,1
7274,10,0,112.99,1,60,1,0.25,2,3,0.0,1.0,12,45.0,20.0,3,0.488,0.0,0.0,0.12,1,2020-06-09 18:06:45.000,121,2020-06-09 18:08:37.990,0.25,90,-180,120,30,1
7275,11,0,117.003,0,60,1,0.25,2,3,0.0,1.0,12,45.0,20.0,3,0.564,0.0,0.0,0.12,1,2020-06-09 18:06:45.000,121,2020-06-09 18:08:42.003,0.25,90,-180,120,30,1
7301,1,0,39.962,0,-120,1,0.25,2,3,0.0,1.0,12,45.0,20.0,3,0.451,0.0,0.0,0.12,1,2020-06-10 12:20:27.000,224,2020-06-10 12:21:06.962,0.25,90,-180,-60,-150,1
7302,2,0,54.652,0,-120,1,0.25,2,9,0.0,1.0,6,45.0,20.0,9,0.488,1.0,56.776,0.13,1,2020-06-10 12:20:27.000,224,2020-06-10 12:21:21.652,0.25,-90,0,120,30,1
7303,3,0,77.97800000000002,0,-120,1,0.25,2,9,0.0,1.0,6,45.0,20.0,9,0.601,1.0,81.309,0.13,1,2020-06-10 12:20:27.000,224,2020-06-10 12:21:44.978,0.25,-90,0,120,30,1
7304,4,0,87.615,0,-120,1,0.25,2,9,0.0,1.0,6,45.0,20.0,9,0.564,1.0,88.804,0.13,1,2020-06-10 12:20:27.000,224,2020-06-10 12:21:54.615,0.25,-90,0,120,30,1
7305,5,0,95.59,0,-120,1,0.25,2,9,0.0,1.0,6,45.0,20.0,9,0.526,1.0,97.131,0.13,1,2020-06-10 12:20:27.000,224,2020-06-10 12:22:02.590,0.25,-90,0,120,30,1
7306,6,0,110.667,0,-120,1,0.25,2,3,0.0,1.0,12,45.0,20.0,3,0.488,0.0,0.0,0.12,1,2020-06-10 12:20:27.000,224,2020-06-10 12:22:17.667,0.25,90,-180,-60,-150,1
7307,7,0,124.891,0,-120,1,0.25,2,3,0.0,1.0,12,45.0,20.0,3,0.451,1.0,126.71,0.0,0,2020-06-10 12:20:27.000,224,2020-06-10 12:22:31.891,0.25,-90,-180,-60,30,1
7308,9,0,140.91,0,-120,1,0.25,2,3,0.0,1.0,12,45.0,20.0,3,0.526,1.0,142.743,0.0,0,2020-06-10 12:20:27.000,224,2020-06-10 12:22:47.910,0.25,-90,-180,-60,30,1
7309,11,0,167.642,0,-120,1,0.25,2,3,0.0,1.0,12,45.0,20.0,3,0.601,1.0,169.859,0.0,0,2020-06-10 12:20:27.000,224,2020-06-10 12:23:14.642,0.25,-90,-180,-60,30,1
7310,13,0,191.168,0,-120,1,0.25,2,3,0.0,1.0,12,45.0,20.0,3,0.564,0.0,0.0,0.12,1,2020-06-10 12:20:27.000,224,2020-06-10 12:23:38.168,0.25,90,-180,-60,-150,1
7326,1,0,35.168,0,-90,1,0.25,2,9,0.0,1.0,6,45.0,20.0,9,0.526,1.0,36.844,0.13,1,2020-06-10 17:46:18.000,115,2020-06-10 17:46:53.168,0.25,-90,0,90,0,1
7327,2,0,47.345,0,-90,1,0.25,2,9,0.0,1.0,6,45.0,20.0,9,0.488,1.0,48.78100000000001,0.13,1,2020-06-10 17:46:18.000,115,2020-06-10 17:47:05.345,0.25,-90,0,90,0,1
7328,3,0,56.146,0,-90,1,0.25,2,9,0.0,1.0,6,45.0,20.0,9,0.564,0.0,0.0,0.0,0,2020-06-10 17:46:18.000,115,2020-06-10 17:47:14.146,0.25,90,0,90,-180,1
7329,5,0,85.3,0,-90,1,0.25,2,9,0.0,1.0,6,45.0,20.0,9,0.601,1.0,86.615,0.13,1,2020-06-10 17:46:18.000,115,2020-06-10 17:47:43.300,0.25,-90,0,90,0,1
7330,6,0,100.604,0,-90,1,0.25,2,3,0.0,1.0,12,45.0,20.0,3,0.451,0.0,0.0,0.12,1,2020-06-10 17:46:18.000,115,2020-06-10 17:47:58.604,0.25,90,-180,-90,-180,1
7331,7,0,111.47,0,-90,1,0.25,2,9,0.0,1.0,6,45.0,20.0,9,0.488,1.0,113.147,0.13,1,2020-06-10 17:46:18.000,115,2020-06-10 17:48:09.470,0.25,-90,0,90,0,1
7332,8,0,119.44,0,-90,1,0.25,2,9,0.0,1.0,6,45.0,20.0,9,0.451,1.0,120.59,0.13,1,2020-06-10 17:46:18.000,115,2020-06-10 17:48:17.440,0.25,-90,0,90,0,1
7333,9,0,151.452,0,-90,1,0.25,2,3,0.0,1.0,12,45.0,20.0,3,0.601,0.0,0.0,0.12,1,2020-06-10 17:46:18.000,115,2020-06-10 17:48:49.452,0.25,90,-180,-90,-180,1
7334,10,0,164.08,0,-90,1,0.25,2,9,0.0,1.0,6,45.0,20.0,9,0.526,1.0,166.134,0.13,1,2020-06-10 17:46:18.000,115,2020-06-10 17:49:02.080,0.25,-90,0,90,0,1
7335,11,0,169.116,0,-90,1,0.25,2,9,0.0,1.0,6,45.0,20.0,9,0.564,1.0,170.553,0.13,1,2020-06-10 17:46:18.000,115,2020-06-10 17:49:07.116,0.25,-90,0,90,0,1
7378,1,0,78.502,0,60,1,0.25,2,3,0.0,1.0,12,45.0,20.0,3,0.601,0.0,80.505,0.12,1,2020-06-11 17:53:24.000,244,2020-06-11 17:54:42.502,0.25,90,-180,120,30,1
7379,2,0,85.49,0,60,1,0.25,2,9,0.0,1.0,6,45.0,20.0,9,0.564,1.0,87.31299999999997,0.13,1,2020-06-11 17:53:24.000,244,2020-06-11 17:54:49.490,0.25,-90,0,-60,-150,1
7380,3,0,109.876,0,60,1,0.25,2,3,0.0,1.0,12,45.0,20.0,3,0.526,0.0,111.689,0.12,1,2020-06-11 17:53:24.000,244,2020-06-11 17:55:13.876,0.25,90,-180,120,30,1
7381,4,0,115.945,0,60,1,0.25,2,9,0.0,1.0,6,45.0,20.0,9,0.488,1.0,117.373,0.13,1,2020-06-11 17:53:24.000,244,2020-06-11 17:55:19.945,0.25,-90,0,-60,-150,1
7382,5,0,129.313,0,60,1,0.25,2,9,0.0,1.0,6,45.0,20.0,9,0.451,1.0,130.46200000000002,0.13,1,2020-06-11 17:53:24.000,244,2020-06-11 17:55:33.313,0.25,-90,0,-60,-150,1
7383,6,0,161.741,0,60,1,0.25,2,3,0.0,1.0,12,45.0,20.0,3,0.564,0.0,163.11,0.12,1,2020-06-11 17:53:24.000,244,2020-06-11 17:56:05.741,0.25,90,-180,120,30,1
7384,7,0,167.418,0,60,1,0.25,2,9,0.0,1.0,6,45.0,20.0,9,0.451,1.0,169.229,0.13,1,2020-06-11 17:53:24.000,244,2020-06-11 17:56:11.418,0.25,-90,0,-60,-150,1
7385,8,0,199.542,0,60,1,0.25,2,9,0.0,1.0,6,45.0,20.0,9,0.488,1.0,201.436,0.13,1,2020-06-11 17:53:24.000,244,2020-06-11 17:56:43.542,0.25,-90,0,-60,-150,1
7386,9,0,219.871,0,60,1,0.25,2,9,0.0,1.0,6,45.0,20.0,9,0.601,1.0,221.481,0.13,1,2020-06-11 17:53:24.000,244,2020-06-11 17:57:03.871,0.25,-90,0,-60,-150,1
7387,10,0,227.075,0,60,1,0.25,2,3,0.0,1.0,12,45.0,20.0,3,0.526,0.0,228.397,0.12,1,2020-06-11 17:53:24.000,244,2020-06-11 17:57:11.075,0.25,90,-180,120,30,1
7405,1,0,44.98,0,150,1,0.25,2,3,0.0,1.0,12,45.0,20.0,3,0.601,0.0,44.801,0.12,1,2020-06-12 12:26:40.000,237,2020-06-12 12:27:24.980,0.25,90,-180,30,-60,1
7406,2,0,49.343,0,150,1,0.25,2,3,0.0,1.0,12,45.0,20.0,3,0.526,0.0,50.926,0.12,1,2020-06-12 12:26:40.000,237,2020-06-12 12:27:29.343,0.25,90,-180,30,-60,1
7407,3,0,54.614,1,150,1,0.25,2,3,0.0,1.0,12,45.0,20.0,3,0.564,0.0,56.152,0.12,1,2020-06-12 12:26:40.000,237,2020-06-12 12:27:34.614,0.25,90,-180,30,-60,1
7408,4,0,60.425,0,150,1,0.25,2,9,0.0,1.0,6,45.0,20.0,9,0.451,0.0,63.423,0.0,0,2020-06-12 12:26:40.000,237,2020-06-12 12:27:40.425,0.25,90,0,-150,-60,1
7409,8,0,113.052,0,150,1,0.25,2,9,0.0,1.0,6,45.0,20.0,9,0.488,1.0,114.111,0.13,1,2020-06-12 12:26:40.000,237,2020-06-12 12:28:33.052,0.25,-90,0,-150,120,1
7410,9,0,123.916,0,150,1,0.25,2,9,0.0,1.0,6,45.0,20.0,9,0.488,0.0,125.975,0.0,0,2020-06-12 12:26:40.000,237,2020-06-12 12:28:43.916,0.25,90,0,-150,-60,1
7412,15,0,207.159,0,150,1,0.25,2,3,0.0,1.0,12,45.0,20.0,3,0.564,0.0,208.563,0.12,1,2020-06-12 12:26:40.000,237,2020-06-12 12:30:07.159,0.25,90,-180,30,-60,1
7413,16,0,211.926,0,150,1,0.25,2,3,0.0,1.0,12,45.0,20.0,3,0.601,0.0,213.424,0.12,1,2020-06-12 12:26:40.000,237,2020-06-12 12:30:11.926,0.25,90,-180,30,-60,1
7414,17,0,216.896,0,150,1,0.25,2,3,0.0,1.0,12,45.0,20.0,3,0.451,0.0,218.7,0.12,1,2020-06-12 12:26:40.000,237,2020-06-12 12:30:16.896,0.25,90,-180,30,-60,1
7415,18,0,232.076,0,150,1,0.25,2,9,0.0,1.0,6,45.0,20.0,9,0.601,1.0,235.945,0.13,1,2020-06-12 12:26:40.000,237,2020-06-12 12:30:32.076,0.25,-90,0,-150,120,1
7457,1,0,175.74,0,0,1,0.25,2,3,0.0,1.0,12,45.0,20.0,3,0.601,0.0,177.465,0.12,1,2020-06-29 12:33:16.000,140,2020-06-29 12:36:11.740,0.25,90,-180,-180,90,1
7458,2,0,195.957,0,0,1,0.25,2,3,0.0,1.0,12,45.0,20.0,3,0.451,0.0,198.452,0.12,1,2020-06-29 12:33:16.000,140,2020-06-29 12:36:31.957,0.25,90,-180,-180,90,1
7459,3,0,208.056,0,0,1,0.25,2,9,0.0,1.0,6,45.0,20.0,9,0.488,1.0,209.703,0.13,1,2020-06-29 12:33:16.000,140,2020-06-29 12:36:44.056,0.25,-90,0,0,-90,1
7460,4,0,250.689,0,0,1,0.25,2,9,0.0,1.0,6,45.0,20.0,9,0.564,1.0,250.64,0.13,1,2020-06-29 12:33:16.000,140,2020-06-29 12:37:26.689,0.25,-90,0,0,-90,1
7461,5,0,284.086,0,0,1,0.25,2,9,0.0,1.0,6,45.0,20.0,9,0.526,1.0,286.586,0.13,1,2020-06-29 12:33:16.000,140,2020-06-29 12:38:00.086,0.25,-90,0,0,-90,1
7462,6,0,303.626,0,0,1,0.25,2,3,0.0,1.0,12,45.0,20.0,3,0.526,0.0,305.112,0.12,1,2020-06-29 12:33:16.000,140,2020-06-29 12:38:19.626,0.25,90,-180,-180,90,1
7463,7,0,328.315,0,0,1,0.25,2,3,0.0,1.0,12,45.0,20.0,3,0.601,0.0,330.894,0.12,1,2020-06-29 12:33:16.000,140,2020-06-29 12:38:44.315,0.25,90,-180,-180,90,1
7464,8,0,335.5619999999999,0,0,1,0.25,2,3,0.0,1.0,12,45.0,20.0,3,0.488,0.0,337.86800000000005,0.12,1,2020-06-29 12:33:16.000,140,2020-06-29 12:38:51.562,0.25,90,-180,-180,90,1
7465,9,0,342.41,0,0,1,0.25,2,9,0.0,1.0,6,45.0,20.0,9,0.451,0.0,345.904,0.0,0,2020-06-29 12:33:16.000,140,2020-06-29 12:38:58.410,0.25,90,0,0,90,1
7466,11,0,377.148,0,0,1,0.25,2,9,0.0,1.0,6,45.0,20.0,9,0.564,0.0,378.846,0.0,0,2020-06-29 12:33:16.000,140,2020-06-29 12:39:33.148,0.25,90,0,0,90,1
7496,1,0,25.853,0,90,1,0.25,2,3,0.0,1.0,12,45.0,20.0,3,0.564,0.0,28.842,0.12,1,2020-06-30 12:13:47.000,110,2020-06-30 12:14:12.853,0.25,90,-180,90,0,1
7497,2,0,34.199,0,90,1,0.25,2,9,0.0,1.0,6,45.0,20.0,9,0.601,1.0,36.252,0.13,1,2020-06-30 12:13:47.000,110,2020-06-30 12:14:21.199,0.25,-90,0,-90,-180,1
7498,3,0,54.482,0,90,1,0.25,2,9,0.0,1.0,6,45.0,20.0,9,0.488,0.0,55.966,0.0,0,2020-06-30 12:13:47.000,110,2020-06-30 12:14:41.482,0.25,90,0,-90,0,1
7499,6,0,97.275,0,90,1,0.25,2,9,0.0,1.0,6,45.0,20.0,9,0.451,1.0,100.527,0.13,1,2020-06-30 12:13:47.000,110,2020-06-30 12:15:24.275,0.25,-90,0,-90,-180,1
7500,7,0,118.312,0,90,1,0.25,2,3,0.0,1.0,12,45.0,20.0,3,0.526,0.0,121.453,0.12,1,2020-06-30 12:13:47.000,110,2020-06-30 12:15:45.312,0.25,90,-180,90,0,1
7501,8,0,125.84,0,90,1,0.25,2,3,0.0,1.0,12,45.0,20.0,3,0.564,0.0,127.149,0.12,1,2020-06-30 12:13:47.000,110,2020-06-30 12:15:52.840,0.25,90,-180,90,0,1
7502,9,0,137.894,0,90,1,0.25,2,3,0.0,1.0,12,45.0,20.0,3,0.488,0.0,141.619,0.12,1,2020-06-30 12:13:47.000,110,2020-06-30 12:16:04.894,0.25,90,-180,90,0,1
7503,10,0,146.313,0,90,1,0.25,2,3,0.0,1.0,12,45.0,20.0,3,0.601,0.0,147.876,0.12,1,2020-06-30 12:13:47.000,110,2020-06-30 12:16:13.313,0.25,90,-180,90,0,1
7504,11,0,152.335,0,90,1,0.25,2,9,0.0,1.0,6,45.0,20.0,9,0.526,0.0,154.634,0.0,0,2020-06-30 12:13:47.000,110,2020-06-30 12:16:19.335,0.25,90,0,-90,0,1
7505,14,0,191.081,0,90,1,0.25,2,3,0.0,1.0,12,45.0,20.0,3,0.451,0.0,192.877,0.12,1,2020-06-30 12:13:47.000,110,2020-06-30 12:16:58.081,0.25,90,-180,90,0,1
7570,1,0,62.801,0,-90,1,0.25,2,9,0.0,1.0,6,45.0,20.0,9,0.526,1.0,65.885,0.13,1,2020-06-30 17:19:34.000,232,2020-06-30 17:20:36.801,0.25,-90,0,90,0,1
7571,2,0,87.20299999999997,0,-90,1,0.25,2,9,0.0,1.0,6,45.0,20.0,9,0.451,1.0,89.74700000000001,0.13,1,2020-06-30 17:19:34.000,232,2020-06-30 17:21:01.203,0.25,-90,0,90,0,1
7572,3,0,114.308,0,-90,1,0.25,2,3,0.0,1.0,12,45.0,20.0,3,0.488,0.0,115.663,0.12,1,2020-06-30 17:19:34.000,232,2020-06-30 17:21:28.308,0.25,90,-180,-90,-180,1
7573,4,0,120.983,0,-90,1,0.25,2,9,0.0,1.0,6,45.0,20.0,9,0.564,1.0,122.724,0.13,1,2020-06-30 17:19:34.000,232,2020-06-30 17:21:34.983,0.25,-90,0,90,0,1
7574,5,0,137.89700000000002,0,-90,1,0.25,2,3,0.0,1.0,12,45.0,20.0,3,0.601,0.0,139.071,0.12,1,2020-06-30 17:19:34.000,232,2020-06-30 17:21:51.897,0.25,90,-180,-90,-180,1
7575,6,0,143.923,0,-90,1,0.25,2,3,0.0,1.0,12,45.0,20.0,3,0.564,0.0,145.773,0.12,1,2020-06-30 17:19:34.000,232,2020-06-30 17:21:57.923,0.25,90,-180,-90,-180,1
7576,7,0,150.947,0,-90,1,0.25,2,9,0.0,1.0,6,45.0,20.0,9,0.488,1.0,152.73,0.13,1,2020-06-30 17:19:34.000,232,2020-06-30 17:22:04.947,0.25,-90,0,90,0,1
7577,8,0,163.101,0,-90,1,0.25,2,3,0.0,1.0,12,45.0,20.0,3,0.526,0.0,164.65599999999995,0.12,1,2020-06-30 17:19:34.000,232,2020-06-30 17:22:17.101,0.25,90,-180,-90,-180,1
7578,9,0,183.946,0,-90,1,0.25,2,3,0.0,1.0,12,45.0,20.0,3,0.451,0.0,186.868,0.12,1,2020-06-30 17:19:34.000,232,2020-06-30 17:22:37.946,0.25,90,-180,-90,-180,1
7579,10,0,193.171,0,-90,1,0.25,2,9,0.0,1.0,6,45.0,20.0,9,0.601,1.0,195.003,0.13,1,2020-06-30 17:19:34.000,232,2020-06-30 17:22:47.171,0.25,-90,0,90,0,1
7635,1,0,29.777,0,180,1,0.25,2,9,0.0,1.0,6,45.0,20.0,9,0.564,1.0,31.301,0.13,1,2020-07-01 11:33:34.000,267,2020-07-01 11:34:03.777,0.25,-90,0,-180,90,1
7636,2,0,65.893,0,180,1,0.25,2,3,0.0,1.0,12,45.0,20.0,3,0.451,0.0,67.634,0.12,1,2020-07-01 11:33:34.000,267,2020-07-01 11:34:39.893,0.25,90,-180,0,-90,1
7637,3,0,87.78200000000002,0,180,1,0.25,2,3,0.0,1.0,12,45.0,20.0,3,0.601,0.0,89.28200000000002,0.12,1,2020-07-01 11:33:34.000,267,2020-07-01 11:35:01.782,0.25,90,-180,0,-90,1
7638,4,0,94.62,0,180,1,0.25,2,9,0.0,1.0,6,45.0,20.0,9,0.488,1.0,95.943,0.13,1,2020-07-01 11:33:34.000,267,2020-07-01 11:35:08.620,0.25,-90,0,-180,90,1
7639,5,0,104.462,0,180,1,0.25,2,9,0.0,1.0,6,45.0,20.0,9,0.526,0.0,105.59,0.0,0,2020-07-01 11:33:34.000,267,2020-07-01 11:35:18.462,0.25,90,0,-180,-90,1
7640,8,0,143.25799999999995,0,180,1,0.25,2,9,0.0,1.0,6,45.0,20.0,9,0.526,1.0,144.623,0.13,1,2020-07-01 11:33:34.000,267,2020-07-01 11:35:57.258,0.25,-90,0,-180,90,1
7641,9,0,162.605,0,180,1,0.25,2,9,0.0,1.0,6,45.0,20.0,9,0.564,1.0,164.203,0.13,1,2020-07-01 11:33:34.000,267,2020-07-01 11:36:16.605,0.25,-90,0,-180,90,1
7642,10,0,170.24900000000005,0,180,1,0.25,2,3,0.0,1.0,12,45.0,20.0,3,0.451,0.0,171.96099999999996,0.12,1,2020-07-01 11:33:34.000,267,2020-07-01 11:36:24.249,0.25,90,-180,0,-90,1
7643,11,0,186.229,0,180,1,0.25,2,3,0.0,1.0,12,45.0,20.0,3,0.601,0.0,187.438,0.12,1,2020-07-01 11:33:34.000,267,2020-07-01 11:36:40.229,0.25,90,-180,0,-90,1
7644,12,0,206.071,0,180,1,0.25,2,3,0.0,1.0,12,45.0,20.0,3,0.488,0.0,207.524,0.12,1,2020-07-01 11:33:34.000,267,2020-07-01 11:37:00.071,0.25,90,-180,0,-90,1
7658,1,0,38.376,1,-90,1,0.25,2,3,0.0,1.0,12,45.0,20.0,3,0.526,0.0,41.286,0.12,1,2020-07-01 17:00:43.000,238,2020-07-01 17:01:21.376,0.25,90,-180,-90,-180,1
7659,2,0,62.06800000000001,0,-90,1,0.25,2,3,0.0,1.0,12,45.0,20.0,3,0.564,0.0,63.75899999999999,0.12,1,2020-07-01 17:00:43.000,238,2020-07-01 17:01:45.068,0.25,90,-180,-90,-180,1
7660,3,0,74.862,0,-90,1,0.25,2,3,0.0,1.0,12,45.0,20.0,3,0.601,0.0,77.153,0.12,1,2020-07-01 17:00:43.000,238,2020-07-01 17:01:57.862,0.25,90,-180,-90,-180,1
7661,4,0,82.741,0,-90,1,0.25,2,3,0.0,1.0,12,45.0,20.0,3,0.451,0.0,84.641,0.12,1,2020-07-01 17:00:43.000,238,2020-07-01 17:02:05.741,0.25,90,-180,-90,-180,1
7662,5,0,89.992,0,-90,1,0.25,2,3,0.0,1.0,12,45.0,20.0,3,0.488,0.0,91.353,0.12,1,2020-07-01 17:00:43.000,238,2020-07-01 17:02:12.992,0.25,90,-180,-90,-180,1
7663,6,0,96.697,0,-90,1,0.25,2,9,0.0,1.0,6,45.0,20.0,9,0.451,1.0,99.159,0.13,1,2020-07-01 17:00:43.000,238,2020-07-01 17:02:19.697,0.25,-90,0,90,0,1
7664,7,0,102.906,0,-90,1,0.25,2,3,0.0,1.0,12,45.0,20.0,3,0.488,0.0,104.517,0.12,1,2020-07-01 17:00:43.000,238,2020-07-01 17:02:25.906,0.25,90,-180,-90,-180,1
7665,8,0,243.142,0,-90,1,0.25,2,3,0.0,1.0,12,45.0,20.0,3,0.526,0.0,243.314,0.12,1,2020-07-01 17:00:43.000,238,2020-07-01 17:04:46.142,0.25,90,-180,-90,-180,1
7666,9,0,259.129,0,-90,1,0.25,2,3,0.0,1.0,12,45.0,20.0,3,0.564,0.0,262.198,0.12,1,2020-07-01 17:00:43.000,238,2020-07-01 17:05:02.129,0.25,90,-180,-90,-180,1
7667,10,0,294.414,0,-90,1,0.25,2,3,0.0,1.0,12,45.0,20.0,3,0.601,0.0,295.583,0.12,1,2020-07-01 17:00:43.000,238,2020-07-01 17:05:37.414,0.25,90,-180,-90,-180,1
7681,1,0,29.685,0,90,1,0.25,2,3,0.0,1.0,12,45.0,20.0,3,0.526,0.0,31.407,0.12,1,2020-07-02 11:54:10.000,190,2020-07-02 11:54:39.685,0.25,90,-180,90,0,1
7682,2,0,82.089,0,90,1,0.25,2,3,0.0,1.0,12,45.0,20.0,3,0.488,0.0,83.884,0.12,1,2020-07-02 11:54:10.000,190,2020-07-02 11:55:32.089,0.25,90,-180,90,0,1
7683,3,0,107.693,0,90,1,0.25,2,3,0.0,1.0,12,45.0,20.0,3,0.601,0.0,109.375,0.12,1,2020-07-02 11:54:10.000,190,2020-07-02 11:55:57.693,0.25,90,-180,90,0,1
7684,4,0,115.102,0,90,1,0.25,2,3,0.0,1.0,12,45.0,20.0,3,0.451,0.0,116.677,0.12,1,2020-07-02 11:54:10.000,190,2020-07-02 11:56:05.102,0.25,90,-180,90,0,1
7685,5,0,121.945,0,90,1,0.25,2,9,0.0,1.0,6,45.0,20.0,9,0.564,1.0,123.63,0.13,1,2020-07-02 11:54:10.000,190,2020-07-02 11:56:11.945,0.25,-90,0,-90,-180,1
7686,6,0,162.582,0,90,1,0.25,2,3,0.0,1.0,12,45.0,20.0,3,0.601,0.0,164.19,0.12,1,2020-07-02 11:54:10.000,190,2020-07-02 11:56:52.582,0.25,90,-180,90,0,1
7687,7,0,168.24200000000005,0,90,1,0.25,2,3,0.0,1.0,12,45.0,20.0,3,0.488,0.0,169.9,0.12,1,2020-07-02 11:54:10.000,190,2020-07-02 11:56:58.242,0.25,90,-180,90,0,1
7688,8,0,180.449,0,90,1,0.25,2,3,0.0,1.0,12,45.0,20.0,3,0.564,0.0,182.46400000000003,0.12,1,2020-07-02 11:54:10.000,190,2020-07-02 11:57:10.449,0.25,90,-180,90,0,1
7689,9,0,197.877,0,90,1,0.25,2,9,0.0,1.0,6,45.0,20.0,9,0.451,1.0,199.654,0.13,1,2020-07-02 11:54:10.000,190,2020-07-02 11:57:27.877,0.25,-90,0,-90,-180,1
7690,10,0,218.558,0,90,1,0.25,2,3,0.0,1.0,12,45.0,20.0,3,0.526,0.0,220.535,0.12,1,2020-07-02 11:54:10.000,190,2020-07-02 11:57:48.558,0.25,90,-180,90,0,1
7721,1,0,29.723000000000006,0,-30,1,0.25,2,3,0.0,1.0,12,45.0,20.0,3,0.451,0.0,31.905,0.12,1,2020-07-02 20:11:31.000,174,2020-07-02 20:12:00.723,0.25,90,-180,-150,120,1
7722,2,0,54.662,0,-30,1,0.25,2,3,0.0,1.0,12,45.0,20.0,3,0.488,0.0,56.512,0.12,1,2020-07-02 20:11:31.000,174,2020-07-02 20:12:25.662,0.25,90,-180,-150,120,1
7723,3,0,63.529,0,-30,1,0.25,2,3,0.0,1.0,12,45.0,20.0,3,0.526,0.0,69.443,0.12,1,2020-07-02 20:11:31.000,174,2020-07-02 20:12:34.529,0.25,90,-180,-150,120,1
7724,4,0,75.78,0,-30,1,0.25,2,9,0.0,1.0,6,45.0,20.0,9,0.564,0.0,78.678,0.0,0,2020-07-02 20:11:31.000,174,2020-07-02 20:12:46.780,0.25,90,0,30,120,1
7725,6,0,92.108,0,-30,1,0.25,2,9,0.0,1.0,6,45.0,20.0,9,0.601,1.0,96.601,0.13,1,2020-07-02 20:11:31.000,174,2020-07-02 20:13:03.108,0.25,-90,0,30,-60,1
7726,7,0,101.746,0,-30,1,0.25,2,9,0.0,1.0,6,45.0,20.0,9,0.601,1.0,104.434,0.13,1,2020-07-02 20:11:31.000,174,2020-07-02 20:13:12.746,0.25,-90,0,30,-60,1
7727,8,0,113.135,0,-30,1,0.25,2,3,0.0,1.0,12,45.0,20.0,3,0.526,0.0,114.722,0.12,1,2020-07-02 20:11:31.000,174,2020-07-02 20:13:24.135,0.25,90,-180,-150,120,1
7728,9,0,121.794,0,-30,1,0.25,2,3,0.0,1.0,12,45.0,20.0,3,0.488,0.0,122.831,0.12,1,2020-07-02 20:11:31.000,174,2020-07-02 20:13:32.794,0.25,90,-180,-150,120,1
7729,10,0,134.061,0,-30,1,0.25,2,3,0.0,1.0,12,45.0,20.0,3,0.451,0.0,138.292,0.12,1,2020-07-02 20:11:31.000,174,2020-07-02 20:13:45.061,0.25,90,-180,-150,120,1
7730,11,0,142.764,0,-30,1,0.25,2,3,0.0,1.0,12,45.0,20.0,3,0.564,0.0,145.903,0.12,1,2020-07-02 20:11:31.000,174,2020-07-02 20:13:53.764,0.25,90,-180,-150,120,1
7829,1,0,38.569,0,150,1,0.25,2,9,0.0,1.0,6,45.0,20.0,9,0.564,1.0,40.3,0.13,1,2020-07-03 16:43:27.000,187,2020-07-03 16:44:05.569,0.25,-90,0,-150,120,1
7830,2,0,65.972,0,150,1,0.25,2,9,0.0,1.0,6,45.0,20.0,9,0.451,1.0,67.419,0.13,1,2020-07-03 16:43:27.000,187,2020-07-03 16:44:32.972,0.25,-90,0,-150,120,1
7831,3,0,90.81,0,150,1,0.25,2,3,0.0,1.0,12,45.0,20.0,3,0.526,0.0,92.508,0.12,1,2020-07-03 16:43:27.000,187,2020-07-03 16:44:57.810,0.25,90,-180,30,-60,1
7832,4,0,96.865,0,150,1,0.25,2,9,0.0,1.0,6,45.0,20.0,9,0.601,1.0,98.545,0.13,1,2020-07-03 16:43:27.000,187,2020-07-03 16:45:03.865,0.25,-90,0,-150,120,1
7833,5,0,104.262,0,150,1,0.25,2,3,0.0,1.0,12,45.0,20.0,3,0.488,1.0,105.707,0.0,0,2020-07-03 16:43:27.000,187,2020-07-03 16:45:11.262,0.25,-90,-180,30,120,1
7834,7,0,134.977,0,150,1,0.25,2,3,0.0,1.0,12,45.0,20.0,3,0.488,0.0,136.628,0.12,1,2020-07-03 16:43:27.000,187,2020-07-03 16:45:41.977,0.25,90,-180,30,-60,1
7835,8,0,140.84,0,150,1,0.25,2,3,0.0,1.0,12,45.0,20.0,3,0.564,0.0,142.64,0.12,1,2020-07-03 16:43:27.000,187,2020-07-03 16:45:47.840,0.25,90,-180,30,-60,1
7836,9,0,157.856,0,150,1,0.25,2,3,0.0,1.0,12,45.0,20.0,3,0.601,0.0,159.34,0.12,1,2020-07-03 16:43:27.000,187,2020-07-03 16:46:04.856,0.25,90,-180,30,-60,1
7837,10,0,169.81400000000005,0,150,1,0.25,2,3,0.0,1.0,12,45.0,20.0,3,0.451,0.0,171.671,0.12,1,2020-07-03 16:43:27.000,187,2020-07-03 16:46:16.814,0.25,90,-180,30,-60,1
7838,11,0,175.55,0,150,1,0.25,2,3,0.0,1.0,12,45.0,20.0,3,0.526,0.0,177.192,0.12,1,2020-07-03 16:43:27.000,187,2020-07-03 16:46:22.550,0.25,90,-180,30,-60,1
7871,1,0,70.558,0,0,1,0.25,2,3,0.0,1.0,12,45.0,20.0,3,0.526,1.0,72.204,0.0,0,2020-07-06 11:52:20.000,271,2020-07-06 11:53:30.558,0.25,-90,-180,-180,-90,1
7872,3,0,99.25,0,0,1,0.25,2,3,0.0,1.0,12,45.0,20.0,3,0.451,0.0,100.619,0.12,1,2020-07-06 11:52:20.000,271,2020-07-06 11:53:59.250,0.25,90,-180,-180,90,1
7873,4,0,106.002,0,0,1,0.25,2,3,0.0,1.0,12,45.0,20.0,3,0.601,0.0,107.133,0.12,1,2020-07-06 11:52:20.000,271,2020-07-06 11:54:06.002,0.25,90,-180,-180,90,1
7874,5,0,116.982,0,0,1,0.25,2,3,0.0,1.0,12,45.0,20.0,3,0.564,0.0,118.405,0.12,1,2020-07-06 11:52:20.000,271,2020-07-06 11:54:16.982,0.25,90,-180,-180,90,1
7875,6,0,142.67600000000004,0,0,1,0.25,2,9,0.0,1.0,6,45.0,20.0,9,0.488,0.0,144.658,0.0,0,2020-07-06 11:52:20.000,271,2020-07-06 11:54:42.676,0.25,90,0,0,90,1
7876,8,0,179.312,0,0,1,0.25,2,9,0.0,1.0,6,45.0,20.0,9,0.564,1.0,180.769,0.13,1,2020-07-06 11:52:20.000,271,2020-07-06 11:55:19.312,0.25,-90,0,0,-90,1
7877,9,0,199.481,0,0,1,0.25,2,3,0.0,1.0,12,45.0,20.0,3,0.451,0.0,201.246,0.12,1,2020-07-06 11:52:20.000,271,2020-07-06 11:55:39.481,0.25,90,-180,-180,90,1
7878,10,0,216.997,0,0,1,0.25,2,9,0.0,1.0,6,45.0,20.0,9,0.488,1.0,218.94,0.13,1,2020-07-06 11:52:20.000,271,2020-07-06 11:55:56.997,0.25,-90,0,0,-90,1
7879,11,0,229.786,0,0,1,0.25,2,3,0.0,1.0,12,45.0,20.0,3,0.526,0.0,231.659,0.12,1,2020-07-06 11:52:20.000,271,2020-07-06 11:56:09.786,0.25,90,-180,-180,90,1
7880,12,0,250.331,0,0,1,0.25,2,9,0.0,1.0,6,45.0,20.0,9,0.601,1.0,251.974,0.13,1,2020-07-06 11:52:20.000,271,2020-07-06 11:56:30.331,0.25,-90,0,0,-90,1
7888,1,0,68.889,0,90,1,0.25,2,3,0.0,1.0,12,45.0,20.0,3,0.601,0.0,70.404,0.12,1,2020-07-06 17:05:54.000,132,2020-07-06 17:07:02.889,0.25,90,-180,90,0,1
7889,2,0,75.45,0,90,1,0.25,2,9,0.0,1.0,6,45.0,20.0,9,0.526,1.0,76.976,0.13,1,2020-07-06 17:05:54.000,132,2020-07-06 17:07:09.450,0.25,-90,0,-90,-180,1
7890,3,0,87.551,0,90,1,0.25,2,3,0.0,1.0,12,45.0,20.0,3,0.451,0.0,89.27600000000002,0.12,1,2020-07-06 17:05:54.000,132,2020-07-06 17:07:21.551,0.25,90,-180,90,0,1
7891,4,0,113.77,0,90,1,0.25,2,9,0.0,1.0,6,45.0,20.0,9,0.564,0.0,115.454,0.0,0,2020-07-06 17:05:54.000,132,2020-07-06 17:07:47.770,0.25,90,0,-90,0,1
7892,6,0,256.805,0,90,1,0.25,2,9,0.0,1.0,6,45.0,20.0,9,0.488,0.0,262.596,0.0,0,2020-07-06 17:05:54.000,132,2020-07-06 17:10:10.805,0.25,90,0,-90,0,1
7893,8,0,279.581,0,90,1,0.25,2,9,0.0,1.0,6,45.0,20.0,9,0.488,1.0,280.968,0.13,1,2020-07-06 17:05:54.000,132,2020-07-06 17:10:33.581,0.25,-90,0,-90,-180,1
7894,9,0,294.664,0,90,1,0.25,2,9,0.0,1.0,6,45.0,20.0,9,0.601,0.0,296.517,0.0,0,2020-07-06 17:05:54.000,132,2020-07-06 17:10:48.664,0.25,90,0,-90,0,1
7895,15,0,382.948,1,90,1,0.25,2,3,0.0,1.0,12,45.0,20.0,3,0.526,0.0,385.776,0.105,1,2020-07-06 17:05:54.000,132,2020-07-06 17:12:16.948,0.25,90,-180,90,0,1
7896,16,0,388.261,0,90,1,0.25,2,3,0.0,1.0,12,45.0,20.0,3,0.564,0.0,391.822,0.105,1,2020-07-06 17:05:54.000,132,2020-07-06 17:12:22.261,0.25,90,-180,90,0,1
7897,17,0,395.645,0,90,1,0.25,2,9,0.0,1.0,6,45.0,20.0,9,0.451,0.0,397.449,0.0,0,2020-07-06 17:05:54.000,132,2020-07-06 17:12:29.645,0.25,90,0,-90,0,1
8015,1,0,69.561,0,30,1,0.25,2,9,0.0,1.0,6,45.0,20.0,9,0.451,1.0,71.547,0.13,1,2020-07-07 17:10:14.000,234,2020-07-07 17:11:23.561,0.25,-90,0,-30,-120,1
8016,2,0,85.76700000000002,0,30,1,0.25,2,9,0.0,1.0,6,45.0,20.0,9,0.488,1.0,88.053,0.13,1,2020-07-07 17:10:14.000,234,2020-07-07 17:11:39.767,0.25,-90,0,-30,-120,1
8017,3,0,96.63,0,30,1,0.25,2,9,0.0,1.0,6,45.0,20.0,9,0.564,1.0,98.889,0.13,1,2020-07-07 17:10:14.000,234,2020-07-07 17:11:50.630,0.25,-90,0,-30,-120,1
8018,4,0,126.174,0,30,1,0.25,2,9,0.0,1.0,6,45.0,20.0,9,0.526,1.0,127.456,0.13,1,2020-07-07 17:10:14.000,234,2020-07-07 17:12:20.174,0.25,-90,0,-30,-120,1
8019,5,0,167.733,0,30,1,0.25,2,3,0.0,1.0,12,45.0,20.0,3,0.601,0.0,169.31599999999997,0.12,1,2020-07-07 17:10:14.000,234,2020-07-07 17:13:01.733,0.25,90,-180,150,60,1
8020,6,0,193.187,0,30,1,0.25,2,9,0.0,1.0,6,45.0,20.0,9,0.451,1.0,194.856,0.13,1,2020-07-07 17:10:14.000,234,2020-07-07 17:13:27.187,0.25,-90,0,-30,-120,1
8021,7,0,235.516,0,30,1,0.25,2,3,0.0,1.0,12,45.0,20.0,3,0.564,1.0,237.116,0.0,0,2020-07-07 17:10:14.000,234,2020-07-07 17:14:09.516,0.25,-90,-180,150,-120,1
8022,9,0,277.616,0,30,1,0.25,2,9,0.0,1.0,6,45.0,20.0,9,0.488,1.0,278.971,0.13,1,2020-07-07 17:10:14.000,234,2020-07-07 17:14:51.616,0.25,-90,0,-30,-120,1
8023,10,0,283.446,1,30,1,0.25,2,3,0.0,1.0,12,45.0,20.0,3,0.601,0.0,285.086,0.12,1,2020-07-07 17:10:14.000,234,2020-07-07 17:14:57.446,0.25,90,-180,150,60,1
8024,11,0,288.23,0,30,1,0.25,2,9,0.0,1.0,6,45.0,20.0,9,0.526,0.0,292.686,0.0,0,2020-07-07 17:10:14.000,234,2020-07-07 17:15:02.230,0.25,90,0,-30,60,1
8052,1,0,130.537,0,90,1,0.25,2,9,0.0,1.0,6,45.0,20.0,9,0.526,1.0,134.59,0.13,1,2020-07-08 11:33:26.000,130,2020-07-08 11:35:36.537,0.25,-90,0,-90,-180,1
8053,2,0,145.983,0,90,1,0.25,2,3,0.0,1.0,12,45.0,20.0,3,0.488,0.0,147.55700000000004,0.12,1,2020-07-08 11:33:26.000,130,2020-07-08 11:35:51.983,0.25,90,-180,90,0,1
8054,3,0,154.428,0,90,1,0.25,2,3,0.0,1.0,12,45.0,20.0,3,0.451,0.0,158.612,0.12,1,2020-07-08 11:33:26.000,130,2020-07-08 11:36:00.428,0.25,90,-180,90,0,1
8055,4,0,191.615,0,90,1,0.25,2,9,0.0,1.0,6,45.0,20.0,9,0.564,0.0,193.183,0.0,0,2020-07-08 11:33:26.000,130,2020-07-08 11:36:37.615,0.25,90,0,-90,0,1
8056,7,0,278.139,0,90,1,0.25,2,9,0.0,1.0,6,45.0,20.0,9,0.601,1.0,281.29200000000003,0.13,1,2020-07-08 11:33:26.000,130,2020-07-08 11:38:04.139,0.25,-90,0,-90,-180,1
8057,8,0,326.07,0,90,1,0.25,2,9,0.0,1.0,6,45.0,20.0,9,0.564,1.0,327.509,0.13,1,2020-07-08 11:33:26.000,130,2020-07-08 11:38:52.070,0.25,-90,0,-90,-180,1
8058,9,0,344.353,0,90,1,0.25,2,3,0.0,1.0,12,45.0,20.0,3,0.451,1.0,346.982,0.0,0,2020-07-08 11:33:26.000,130,2020-07-08 11:39:10.353,0.25,-90,-180,90,-180,1
8059,11,0,368.595,0,90,1,0.25,2,9,0.0,1.0,6,45.0,20.0,9,0.526,1.0,370.181,0.13,1,2020-07-08 11:33:26.000,130,2020-07-08 11:39:34.595,0.25,-90,0,-90,-180,1
8060,12,0,380.759,0,90,1,0.25,2,9,0.0,1.0,6,45.0,20.0,9,0.488,1.0,381.76,0.13,1,2020-07-08 11:33:26.000,130,2020-07-08 11:39:46.759,0.25,-90,0,-90,-180,1
8061,13,0,399.376,0,90,1,0.25,2,3,0.0,1.0,12,45.0,20.0,3,0.601,0.0,400.699,0.12,1,2020-07-08 11:33:26.000,130,2020-07-08 11:40:05.376,0.25,90,-180,90,0,1
8134,1,0,53.746,1,-120,1,0.25,2,9,0.0,1.0,6,45.0,20.0,9,0.601,1.0,54.805,0.13,1,2020-07-08 16:46:31.000,235,2020-07-08 16:47:24.746,0.25,-90,0,120,30,1
8135,2,0,65.85300000000001,0,-120,1,0.25,2,9,0.0,1.0,6,45.0,20.0,9,0.451,0.0,76.084,0.0,0,2020-07-08 16:46:31.000,235,2020-07-08 16:47:36.853,0.25,90,0,120,-150,1
8136,4,0,121.417,0,-120,1,0.25,2,3,0.0,1.0,12,45.0,20.0,3,0.488,0.0,123.461,0.12,1,2020-07-08 16:46:31.000,235,2020-07-08 16:48:32.417,0.25,90,-180,-60,-150,1
8137,5,0,127.978,0,-120,1,0.25,2,9,0.0,1.0,6,45.0,20.0,9,0.526,0.0,130.553,0.0,0,2020-07-08 16:46:31.000,235,2020-07-08 16:48:38.978,0.25,90,0,120,-150,1
8138,8,0,163.428,0,-120,1,0.25,2,3,0.0,1.0,12,45.0,20.0,3,0.564,0.0,165.141,0.07,1,2020-07-08 16:46:31.000,235,2020-07-08 16:49:14.428,0.25,90,-180,-60,-150,1
8139,9,0,170.609,0,-120,1,0.25,2,3,0.0,1.0,12,45.0,20.0,3,0.526,0.0,170.625,0.1,1,2020-07-08 16:46:31.000,235,2020-07-08 16:49:21.609,0.25,90,-180,-60,-150,1
8140,10,0,175.795,0,-120,1,0.25,2,3,0.0,1.0,12,45.0,20.0,3,0.564,0.0,177.407,0.1,1,2020-07-08 16:46:31.000,235,2020-07-08 16:49:26.795,0.25,90,-180,-60,-150,1
8141,11,0,188.499,0,-120,1,0.25,2,9,0.0,1.0,6,45.0,20.0,9,0.601,0.0,193.21,0.0,0,2020-07-08 16:46:31.000,235,2020-07-08 16:49:39.499,0.25,90,0,120,-150,1
8142,13,0,211.043,0,-120,1,0.25,2,9,0.0,1.0,6,45.0,20.0,9,0.488,1.0,212.855,0.13,1,2020-07-08 16:46:31.000,235,2020-07-08 16:50:02.043,0.25,-90,0,120,30,1
8143,14,0,229.30900000000003,1,-120,1,0.25,2,3,0.0,1.0,12,45.0,20.0,3,0.451,0.0,232.241,0.1,1,2020-07-08 16:46:31.000,235,2020-07-08 16:50:20.309,0.25,90,-180,-60,-150,1
8209,1,0,80.351,0,180,1,0.25,2,9,0.0,1.0,6,45.0,20.0,9,0.564,1.0,87.95700000000002,0.15,1,2020-07-09 11:22:52.000,268,2020-07-09 11:24:12.351,0.25,-90,0,-180,90,1
8210,2,0,102.154,0,180,1,0.25,2,3,0.0,1.0,12,45.0,20.0,3,0.488,0.0,105.616,0.1,1,2020-07-09 11:22:52.000,268,2020-07-09 11:24:34.154,0.25,90,-180,0,-90,1
8211,3,0,130.273,0,180,1,0.25,2,3,0.0,1.0,12,45.0,20.0,3,0.526,0.0,131.951,0.1,1,2020-07-09 11:22:52.000,268,2020-07-09 11:25:02.273,0.25,90,-180,0,-90,1
8212,4,0,156.597,0,180,1,0.25,2,3,0.0,1.0,12,45.0,20.0,3,0.451,0.0,158.184,0.1,1,2020-07-09 11:22:52.000,268,2020-07-09 11:25:28.597,0.25,90,-180,0,-90,1
8213,5,0,164.23,0,180,1,0.25,2,3,0.0,1.0,12,45.0,20.0,3,0.601,0.0,166.627,0.1,1,2020-07-09 11:22:52.000,268,2020-07-09 11:25:36.230,0.25,90,-180,0,-90,1
8214,6,0,171.271,0,180,1,0.25,2,9,0.0,1.0,6,45.0,20.0,9,0.526,0.0,173.93099999999995,0.0,0,2020-07-09 11:22:52.000,268,2020-07-09 11:25:43.271,0.25,90,0,-180,-90,1
8215,8,0,222.668,0,180,1,0.25,2,9,0.0,1.0,6,45.0,20.0,9,0.451,1.0,224.192,0.15,1,2020-07-09 11:22:52.000,268,2020-07-09 11:26:34.668,0.25,-90,0,-180,90,1
8216,9,0,244.886,0,180,1,0.25,2,9,0.0,1.0,6,45.0,20.0,9,0.601,1.0,246.648,0.15,1,2020-07-09 11:22:52.000,268,2020-07-09 11:26:56.886,0.25,-90,0,-180,90,1
8217,10,0,260.527,0,180,1,0.25,2,3,0.0,1.0,12,45.0,20.0,3,0.564,0.0,262.887,0.1,1,2020-07-09 11:22:52.000,268,2020-07-09 11:27:12.527,0.25,90,-180,0,-90,1
8218,11,0,268.188,0,180,1,0.25,2,3,0.0,1.0,12,45.0,20.0,3,0.488,0.0,270.561,0.1,1,2020-07-09 11:22:52.000,268,2020-07-09 11:27:20.188,0.25,90,-180,0,-90,1
8246,1,0,90.88,0,150,1,0.25,2,3,0.0,1.0,12,45.0,20.0,3,0.526,0.0,93.785,0.1,1,2020-07-09 17:00:07.000,105,2020-07-09 17:01:37.880,0.25,90,-180,30,-60,1
8247,2,0,108.975,0,150,1,0.25,2,9,0.0,1.0,6,45.0,20.0,9,0.564,1.0,112.934,0.15,1,2020-07-09 17:00:07.000,105,2020-07-09 17:01:55.975,0.25,-90,0,-150,120,1
8248,3,0,133.88299999999998,0,150,1,0.25,2,3,0.0,1.0,12,45.0,20.0,3,0.488,0.0,135.953,0.1,1,2020-07-09 17:00:07.000,105,2020-07-09 17:02:20.883,0.25,90,-180,30,-60,1
8249,4,0,140.175,0,150,1,0.25,2,9,0.0,1.0,6,45.0,20.0,9,0.601,0.0,142.237,0.0,0,2020-07-09 17:00:07.000,105,2020-07-09 17:02:27.175,0.25,90,0,-150,-60,1
8250,6,0,192.029,0,150,1,0.25,2,3,0.0,1.0,12,45.0,20.0,3,0.451,0.0,194.433,0.1,1,2020-07-09 17:00:07.000,105,2020-07-09 17:03:19.029,0.25,90,-180,30,-60,1
8251,7,0,206.592,0,150,1,0.25,2,9,0.0,1.0,6,45.0,20.0,9,0.488,1.0,209.748,0.15,1,2020-07-09 17:00:07.000,105,2020-07-09 17:03:33.592,0.25,-90,0,-150,120,1
8252,8,0,212.78,0,150,1,0.25,2,9,0.0,1.0,6,45.0,20.0,9,0.526,1.0,215.517,0.15,1,2020-07-09 17:00:07.000,105,2020-07-09 17:03:39.780,0.25,-90,0,-150,120,1
8253,9,0,233.816,0,150,1,0.25,2,9,0.0,1.0,6,45.0,20.0,9,0.451,1.0,236.012,0.15,1,2020-07-09 17:00:07.000,105,2020-07-09 17:04:00.816,0.25,-90,0,-150,120,1
