,Trial,CorrectionTrial,StartTime,CenterReward,CenterSpoutRotation,nStimReps,Duration,Modality,LED Location,LED_trial_V,LED_bgnd_V,Speaker Location,Speaker_trial_V,Speaker_bgnd_V,TargetSpout,HoldTime,Response,RespTime,ValveTime,Correct,SessionDate,SessionID,StartDateTime,StimulusTotalDuration,response_angle_world,speaker_angle_world,speaker_angle_platform,response_angle_platform,not_probe
807,201,0,1041.768,0,60,1,0.25,2,3,0.0,1.0,1,48.0,20.0,3,0.888,0.0,1043.839,0.15,1,2019-05-31 08:30:08.000,90,2019-05-31 08:47:29.768,0.25,90,150,90,30,1
808,202,0,1047.79,0,60,1,0.25,2,3,0.0,1.0,1,48.0,20.0,3,0.701,0.0,1048.65,0.15,1,2019-05-31 08:30:08.000,90,2019-05-31 08:47:35.790,0.25,90,150,90,30,1
809,203,0,1052.588,1,60,1,0.25,2,3,0.0,1.0,1,48.0,20.0,3,0.888,0.0,1054.266,0.15,1,2019-05-31 08:30:08.000,90,2019-05-31 08:47:40.588,0.25,90,150,90,30,1
810,204,0,1055.691,0,60,1,0.25,2,3,0.0,1.0,1,48.0,20.0,3,0.701,1.0,1057.476,0.0,0,2019-05-31 08:30:08.000,90,2019-05-31 08:47:43.691,0.25,-90,150,90,-150,1
811,206,0,1078.233,0,60,1,0.25,2,3,0.0,1.0,1,48.0,20.0,3,0.951,0.0,1078.4589999999996,0.15,1,2019-05-31 08:30:08.000,90,2019-05-31 08:48:06.233,0.25,90,150,90,30,1
812,207,0,1081.937,0,60,1,0.25,2,3,0.0,1.0,1,48.0,20.0,3,0.763,0.0,1082.582,0.15,1,2019-05-31 08:30:08.000,90,2019-05-31 08:48:09.937,0.25,90,150,90,30,1
813,208,0,1085.838,0,60,1,0.25,2,9,0.0,1.0,7,48.0,20.0,9,0.826,0.0,1087.207,0.0,0,2019-05-31 08:30:08.000,90,2019-05-31 08:48:13.838,0.25,90,-30,-90,30,1
814,210,0,1095.1,0,60,1,0.25,2,9,0.0,1.0,7,48.0,20.0,9,0.701,1.0,1096.852,0.15,1,2019-05-31 08:30:08.000,90,2019-05-31 08:48:23.100,0.25,-90,-30,-90,-150,1
815,211,0,1104.438,0,60,1,0.25,2,3,0.0,1.0,1,48.0,20.0,3,0.888,1.0,1105.29,0.0,0,2019-05-31 08:30:08.000,90,2019-05-31 08:48:32.438,0.25,-90,150,90,-150,1
816,213,0,1113.311,0,60,1,0.25,2,9,0.0,1.0,7,48.0,20.0,9,0.763,0.0,1115.149,0.0,0,2019-05-31 08:30:08.000,90,2019-05-31 08:48:41.311,0.25,90,-30,-90,30,1
1004,241,0,1244.141,0,30,1,0.25,2,9,0.0,1.0,8,48.0,20.0,9,0.701,0.0,1246.08,0.0,0,2019-05-31 14:46:27.000,96,2019-05-31 15:07:11.141,0.25,90,-60,-90,60,1
1005,243,0,1255.475,0,30,1,0.25,2,9,0.0,1.0,8,48.0,20.0,9,0.826,1.0,1255.814,0.15,1,2019-05-31 14:46:27.000,96,2019-05-31 15:07:22.475,0.25,-90,-60,-90,-120,1
1006,244,0,1261.55,1,30,1,0.25,2,3,0.0,1.0,2,48.0,20.0,3,0.951,0.0,1262.078,0.15,1,2019-05-31 14:46:27.000,96,2019-05-31 15:07:28.550,0.25,90,120,90,60,1
1007,245,0,1263.583,0,30,1,0.25,2,9,0.0,1.0,8,48.0,20.0,9,0.888,1.0,1264.5410000000004,0.15,1,2019-05-31 14:46:27.000,96,2019-05-31 15:07:30.583,0.25,-90,-60,-90,-120,1
1008,246,0,1268.845,0,30,1,0.25,2,9,0.0,1.0,8,48.0,20.0,9,0.701,0.0,1269.061,0.0,0,2019-05-31 14:46:27.000,96,2019-05-31 15:07:35.845,0.25,90,-60,-90,60,1
1009,248,0,1275.481,1,30,1,0.25,2,9,0.0,1.0,8,48.0,20.0,9,0.951,1.0,1277.082,0.15,1,2019-05-31 14:46:27.000,96,2019-05-31 15:07:42.481,0.25,-90,-60,-90,-120,1
1010,249,0,1278.756,0,30,1,0.25,2,9,0.0,1.0,8,48.0,20.0,9,0.826,0.0,1280.588,0.0,0,2019-05-31 14:46:27.000,96,2019-05-31 15:07:45.756,0.25,90,-60,-90,60,1
1011,251,0,1286.996,1,30,1,0.25,2,9,0.0,1.0,8,48.0,20.0,9,0.763,1.0,1288.579,0.15,1,2019-05-31 14:46:27.000,96,2019-05-31 15:07:53.996,0.25,-90,-60,-90,-120,1
1012,252,0,1290.038,0,30,1,0.25,2,9,0.0,1.0,8,48.0,20.0,9,0.951,1.0,1291.399,0.15,1,2019-05-31 14:46:27.000,96,2019-05-31 15:07:57.038,0.25,-90,-60,-90,-120,1
1013,253,0,1294.458,0,30,1,0.25,2,9,0.0,1.0,8,48.0,20.0,9,0.763,0.0,1295.377,0.0,0,2019-05-31 14:46:27.000,96,2019-05-31 15:08:01.458,0.25,90,-60,-90,60,1
1177,205,0,1060.472,1,90,1,0.25,2,9,0.0,1.0,6,48.0,20.0,9,0.888,1.0,1060.68,0.15,1,2019-06-03 07:19:06.000,25,2019-06-03 07:36:46.472,0.25,-90,0,-90,-180,1
1178,206,0,1061.98,1,90,1,0.25,2,3,0.0,1.0,12,48.0,20.0,3,0.763,0.0,1064.163,0.15,1,2019-06-03 07:19:06.000,25,2019-06-03 07:36:47.980,0.25,90,-180,90,0,1
1179,207,0,1065.451,0,90,1,0.25,2,3,0.0,1.0,12,48.0,20.0,3,0.701,0.0,1067.189,0.15,1,2019-06-03 07:19:06.000,25,2019-06-03 07:36:51.451,0.25,90,-180,90,0,1
1180,208,0,1075.724,0,90,1,0.25,2,3,0.0,1.0,12,48.0,20.0,3,0.763,0.0,1076.513,0.15,1,2019-06-03 07:19:06.000,25,2019-06-03 07:37:01.724,0.25,90,-180,90,0,1
1181,209,0,1079.365,0,90,1,0.25,2,9,0.0,1.0,6,48.0,20.0,9,0.888,1.0,1079.657,0.15,1,2019-06-03 07:19:06.000,25,2019-06-03 07:37:05.365,0.25,-90,0,-90,-180,1
1182,210,0,1087.5,0,90,1,0.25,2,9,0.0,1.0,6,48.0,20.0,9,0.951,1.0,1088.256,0.15,1,2019-06-03 07:19:06.000,25,2019-06-03 07:37:13.500,0.25,-90,0,-90,-180,1
1183,211,0,1092.525,1,90,1,0.25,2,9,0.0,1.0,6,48.0,20.0,9,0.826,1.0,1092.758,0.15,1,2019-06-03 07:19:06.000,25,2019-06-03 07:37:18.525,0.25,-90,0,-90,-180,1
1184,212,0,1094.313,0,90,1,0.25,2,3,0.0,1.0,12,48.0,20.0,3,0.888,1.0,1095.657,0.0,0,2019-06-03 07:19:06.000,25,2019-06-03 07:37:20.313,0.25,-90,-180,90,-180,1
1185,214,0,1118.99,1,90,1,0.25,2,3,0.0,1.0,12,48.0,20.0,3,0.763,0.0,1119.864,0.15,1,2019-06-03 07:19:06.000,25,2019-06-03 07:37:44.990,0.25,90,-180,90,0,1
1186,215,0,1121.555,0,90,1,0.25,2,9,0.0,1.0,6,48.0,20.0,9,0.951,0.0,1122.694,0.0,0,2019-06-03 07:19:06.000,25,2019-06-03 07:37:47.555,0.25,90,0,-90,0,1
1313,158,0,1023.783,0,120,1,0.25,2,3,0.0,1.0,11,48.0,20.0,3,0.763,0.0,1023.974,0.15,1,2019-06-03 14:19:08.000,118,2019-06-03 14:36:11.783,0.25,90,-150,90,-30,1
1314,159,0,1034.045,0,120,1,0.25,2,9,0.0,1.0,5,48.0,20.0,9,0.951,1.0,1034.957,0.2,1,2019-06-03 14:19:08.000,118,2019-06-03 14:36:22.045,0.25,-90,30,-90,150,1
1315,160,0,1039.375,1,120,1,0.25,2,9,0.0,1.0,5,48.0,20.0,9,0.826,1.0,1039.652,0.2,1,2019-06-03 14:19:08.000,118,2019-06-03 14:36:27.375,0.25,-90,30,-90,150,1
1316,161,0,1041.141,0,120,1,0.25,2,3,0.0,1.0,11,48.0,20.0,3,0.888,1.0,1042.814,0.0,0,2019-06-03 14:19:08.000,118,2019-06-03 14:36:29.141,0.25,-90,-150,90,150,1
1317,163,0,1054.932,0,120,1,0.25,2,9,0.0,1.0,5,48.0,20.0,9,0.763,1.0,1055.663,0.2,1,2019-06-03 14:19:08.000,118,2019-06-03 14:36:42.932,0.25,-90,30,-90,150,1
1318,164,0,1059.275,1,120,1,0.25,2,9,0.0,1.0,5,48.0,20.0,9,0.888,1.0,1059.753,0.2,1,2019-06-03 14:19:08.000,118,2019-06-03 14:36:47.275,0.25,-90,30,-90,150,1
1319,165,0,1061.21,1,120,1,0.25,2,9,0.0,1.0,5,48.0,20.0,9,0.826,1.0,1062.683,0.2,1,2019-06-03 14:19:08.000,118,2019-06-03 14:36:49.210,0.25,-90,30,-90,150,1
1320,166,0,1064.35,0,120,1,0.25,2,9,0.0,1.0,5,48.0,20.0,9,0.951,1.0,1065.682,0.2,1,2019-06-03 14:19:08.000,118,2019-06-03 14:36:52.350,0.25,-90,30,-90,150,1
1321,167,0,1069.685,0,120,1,0.25,2,3,0.0,1.0,11,48.0,20.0,3,0.701,0.0,1071.512,0.15,1,2019-06-03 14:19:08.000,118,2019-06-03 14:36:57.685,0.25,90,-150,90,-30,1
1322,168,0,1074.677,0,120,1,0.25,2,3,0.0,1.0,11,48.0,20.0,3,0.763,0.0,1076.045,0.15,1,2019-06-03 14:19:08.000,118,2019-06-03 14:37:02.677,0.25,90,-150,90,-30,1
1477,195,0,942.083,0,150,1,0.25,2,9,0.0,1.0,4,48.0,20.0,9,0.826,1.0,943.402,0.15,1,2019-06-04 07:19:19.000,38,2019-06-04 07:35:01.083,0.25,-90,60,-90,120,1
1478,196,0,946.602,1,150,1,0.25,2,3,0.0,1.0,10,48.0,20.0,3,0.826,0.0,947.123,0.15,1,2019-06-04 07:19:19.000,38,2019-06-04 07:35:05.602,0.25,90,-120,90,-60,1
1479,197,0,948.978,1,150,1,0.25,2,3,0.0,1.0,10,48.0,20.0,3,0.951,0.0,950.466,0.15,1,2019-06-04 07:19:19.000,38,2019-06-04 07:35:07.978,0.25,90,-120,90,-60,1
1480,198,0,955.122,1,150,1,0.25,2,9,0.0,1.0,4,48.0,20.0,9,0.701,1.0,956.113,0.15,1,2019-06-04 07:19:19.000,38,2019-06-04 07:35:14.122,0.25,-90,60,-90,120,1
1481,199,0,958.011,1,150,1,0.25,2,9,0.0,1.0,4,48.0,20.0,9,0.888,1.0,959.183,0.15,1,2019-06-04 07:19:19.000,38,2019-06-04 07:35:17.011,0.25,-90,60,-90,120,1
1482,200,0,960.737,1,150,1,0.25,2,3,0.0,1.0,10,48.0,20.0,3,0.763,0.0,962.456,0.15,1,2019-06-04 07:19:19.000,38,2019-06-04 07:35:19.737,0.25,90,-120,90,-60,1
1483,201,0,964.027,0,150,1,0.25,2,9,0.0,1.0,4,48.0,20.0,9,0.701,0.0,965.743,0.0,0,2019-06-04 07:19:19.000,38,2019-06-04 07:35:23.027,0.25,90,60,-90,-60,1
1484,203,0,979.396,0,150,1,0.25,2,9,0.0,1.0,4,48.0,20.0,9,0.763,1.0,979.743,0.15,1,2019-06-04 07:19:19.000,38,2019-06-04 07:35:38.396,0.25,-90,60,-90,120,1
1485,204,0,984.785,1,150,1,0.25,2,3,0.0,1.0,10,48.0,20.0,3,0.951,0.0,985.134,0.15,1,2019-06-04 07:19:19.000,38,2019-06-04 07:35:43.785,0.25,90,-120,90,-60,1
1486,205,0,986.958,0,150,1,0.25,2,3,0.0,1.0,10,48.0,20.0,3,0.888,1.0,988.548,0.0,0,2019-06-04 07:19:19.000,38,2019-06-04 07:35:45.958,0.25,-90,-120,90,120,1
1639,197,0,1030.297,0,180,1,0.25,2,9,0.0,1.0,3,48.0,20.0,9,0.826,1.0,1030.623,0.15,1,2019-06-04 14:13:13.000,163,2019-06-04 14:30:23.297,0.25,-90,90,-90,90,1
1640,198,0,1035.092,0,180,1,0.25,2,9,0.0,1.0,3,48.0,20.0,9,0.701,0.0,1035.356,0.0,0,2019-06-04 14:13:13.000,163,2019-06-04 14:30:28.092,0.25,90,90,-90,-90,1
1641,200,0,1042.374,0,180,1,0.25,2,3,0.0,1.0,9,48.0,20.0,3,0.763,0.0,1044.299,0.15,1,2019-06-04 14:13:13.000,163,2019-06-04 14:30:35.374,0.25,90,-90,90,-90,1
1642,201,0,1048.134,0,180,1,0.25,2,3,0.0,1.0,9,48.0,20.0,3,0.763,0.0,1049.035,0.15,1,2019-06-04 14:13:13.000,163,2019-06-04 14:30:41.134,0.25,90,-90,90,-90,1
1643,202,0,1050.386,1,180,1,0.25,2,3,0.0,1.0,9,48.0,20.0,3,0.888,0.0,1050.89,0.15,1,2019-06-04 14:13:13.000,163,2019-06-04 14:30:43.386,0.25,90,-90,90,-90,1
1644,203,0,1053.564,0,180,1,0.25,2,9,0.0,1.0,3,48.0,20.0,9,0.701,0.0,1055.99,0.0,0,2019-06-04 14:13:13.000,163,2019-06-04 14:30:46.564,0.25,90,90,-90,-90,1
1645,205,0,1063.973,0,180,1,0.25,2,3,0.0,1.0,9,48.0,20.0,3,0.826,0.0,1064.203,0.15,1,2019-06-04 14:13:13.000,163,2019-06-04 14:30:56.973,0.25,90,-90,90,-90,1
1646,206,0,1067.751,1,180,1,0.25,2,3,0.0,1.0,9,48.0,20.0,3,0.951,0.0,1068.094,0.15,1,2019-06-04 14:13:13.000,163,2019-06-04 14:31:00.751,0.25,90,-90,90,-90,1
1647,207,0,1069.565,0,180,1,0.25,2,3,0.0,1.0,9,48.0,20.0,3,0.701,1.0,1071.218,0.0,0,2019-06-04 14:13:13.000,163,2019-06-04 14:31:02.565,0.25,-90,-90,90,90,1
1648,209,0,1078.951,0,180,1,0.25,2,3,0.0,1.0,9,48.0,20.0,3,0.826,1.0,1080.948,0.0,0,2019-06-04 14:13:13.000,163,2019-06-04 14:31:11.951,0.25,-90,-90,90,90,1
1755,150,0,848.307,0,-150,1,0.25,2,9,0.0,1.0,2,48.0,20.0,9,0.763,0.0,848.543,0.0,0,2019-06-05 08:43:28.000,131,2019-06-05 08:57:36.307,0.25,90,120,-90,-120,1
1756,152,0,855.75,0,-150,1,0.25,2,9,0.0,1.0,2,48.0,20.0,9,0.951,0.0,857.592,0.0,0,2019-06-05 08:43:28.000,131,2019-06-05 08:57:43.750,0.25,90,120,-90,-120,1
1757,154,0,871.13,0,-150,1,0.25,2,3,0.0,1.0,8,48.0,20.0,3,0.888,0.0,871.7539999999998,0.15,1,2019-06-05 08:43:28.000,131,2019-06-05 08:57:59.130,0.25,90,-60,90,-120,1
1758,155,0,874.863,0,-150,1,0.25,2,3,0.0,1.0,8,48.0,20.0,3,0.701,0.0,875.455,0.15,1,2019-06-05 08:43:28.000,131,2019-06-05 08:58:02.863,0.25,90,-60,90,-120,1
1759,156,0,878.438,0,-150,1,0.25,2,3,0.0,1.0,8,48.0,20.0,3,0.763,0.0,878.982,0.15,1,2019-06-05 08:43:28.000,131,2019-06-05 08:58:06.438,0.25,90,-60,90,-120,1
1760,157,0,882.0219999999998,1,-150,1,0.25,2,3,0.0,1.0,8,48.0,20.0,3,0.951,0.0,882.7130000000002,0.15,1,2019-06-05 08:43:28.000,131,2019-06-05 08:58:10.022,0.25,90,-60,90,-120,1
1761,158,0,884.283,0,-150,1,0.25,2,9,0.0,1.0,2,48.0,20.0,9,0.826,0.0,885.579,0.0,0,2019-06-05 08:43:28.000,131,2019-06-05 08:58:12.283,0.25,90,120,-90,-120,1
1762,160,0,895.168,0,-150,1,0.25,2,9,0.0,1.0,2,48.0,20.0,9,0.701,1.0,895.28,0.15,1,2019-06-05 08:43:28.000,131,2019-06-05 08:58:23.168,0.25,-90,120,-90,60,1
1763,161,0,905.248,1,-150,1,0.25,2,3,0.0,1.0,8,48.0,20.0,3,0.888,0.0,905.855,0.15,1,2019-06-05 08:43:28.000,131,2019-06-05 08:58:33.248,0.25,90,-60,90,-120,1
1764,162,0,907.651,0,-150,1,0.25,2,3,0.0,1.0,8,48.0,20.0,3,0.951,1.0,908.985,0.0,0,2019-06-05 08:43:28.000,131,2019-06-05 08:58:35.651,0.25,-90,-60,90,60,1
2035,171,0,973.418,0,-120,1,0.25,2,9,0.0,1.0,1,48.0,20.0,9,0.826,0.0,975.245,0.0,0,2019-06-06 08:40:23.000,188,2019-06-06 08:56:36.418,0.25,90,150,-90,-150,1
2036,173,0,984.483,1,-120,1,0.25,2,9,0.0,1.0,1,48.0,20.0,9,0.701,1.0,985.38,0.15,1,2019-06-06 08:40:23.000,188,2019-06-06 08:56:47.483,0.25,-90,150,-90,30,1
2037,174,0,986.934,0,-120,1,0.25,2,3,0.0,1.0,7,48.0,20.0,3,0.888,0.0,988.304,0.15,1,2019-06-06 08:40:23.000,188,2019-06-06 08:56:49.934,0.25,90,-30,90,-150,1
2038,175,0,991.776,1,-120,1,0.25,2,3,0.0,1.0,7,48.0,20.0,3,0.951,0.0,992.382,0.15,1,2019-06-06 08:40:23.000,188,2019-06-06 08:56:54.776,0.25,90,-30,90,-150,1
2039,176,0,997.036,1,-120,1,0.25,2,3,0.0,1.0,7,48.0,20.0,3,0.763,0.0,997.588,0.15,1,2019-06-06 08:40:23.000,188,2019-06-06 08:57:00.036,0.25,90,-30,90,-150,1
2040,177,0,999.001,0,-120,1,0.25,2,9,0.0,1.0,1,48.0,20.0,9,0.701,0.0,1001.126,0.0,0,2019-06-06 08:40:23.000,188,2019-06-06 08:57:02.001,0.25,90,150,-90,-150,1
2041,179,0,1007.549,0,-120,1,0.25,2,3,0.0,1.0,7,48.0,20.0,3,0.888,1.0,1008.961,0.0,0,2019-06-06 08:40:23.000,188,2019-06-06 08:57:10.549,0.25,-90,-30,90,30,1
2042,182,0,1035.425,0,-120,1,0.25,2,3,0.0,1.0,7,48.0,20.0,3,0.826,0.0,1036.022,0.15,1,2019-06-06 08:40:23.000,188,2019-06-06 08:57:38.425,0.25,90,-30,90,-150,1
2043,183,0,1039.367,1,-120,1,0.25,2,9,0.0,1.0,1,48.0,20.0,9,0.951,1.0,1039.679,0.15,1,2019-06-06 08:40:23.000,188,2019-06-06 08:57:42.367,0.25,-90,150,-90,30,1
2044,184,0,1041.071,0,-120,1,0.25,2,9,0.0,1.0,1,48.0,20.0,9,0.763,0.0,1042.273,0.0,0,2019-06-06 08:40:23.000,188,2019-06-06 08:57:44.071,0.25,90,150,-90,-150,1
2047,3,0,234.715,1,-90,1,0.25,2,3,0.0,1.0,6,48.0,20.0,3,0.763,0.0,235.43400000000003,0.15,1,2019-06-06 14:06:02.000,13,2019-06-06 14:09:56.715,0.25,90,0,90,-180,1
2048,4,0,238.919,0,-90,1,0.25,2,9,0.0,1.0,12,48.0,20.0,9,0.888,1.0,239.243,0.15,1,2019-06-06 14:06:02.000,13,2019-06-06 14:10:00.919,0.25,-90,-180,-90,0,1
2049,5,0,242.91,1,-90,1,0.25,2,9,0.0,1.0,12,48.0,20.0,9,0.826,1.0,243.819,0.15,1,2019-06-06 14:06:02.000,13,2019-06-06 14:10:04.910,0.25,-90,-180,-90,0,1
2050,6,0,247.555,0,-90,1,0.25,2,3,0.0,1.0,6,48.0,20.0,3,0.826,0.0,249.568,0.15,1,2019-06-06 14:06:02.000,13,2019-06-06 14:10:09.555,0.25,90,0,90,-180,1
2051,7,0,252.52,1,-90,1,0.25,2,9,0.0,1.0,12,48.0,20.0,9,0.701,1.0,253.117,0.15,1,2019-06-06 14:06:02.000,13,2019-06-06 14:10:14.520,0.25,-90,-180,-90,0,1
2052,8,0,254.843,0,-90,1,0.25,2,3,0.0,1.0,6,48.0,20.0,3,0.763,1.0,256.754,0.0,0,2019-06-06 14:06:02.000,13,2019-06-06 14:10:16.843,0.25,-90,0,90,0,1
2053,11,0,268.926,0,-90,1,0.25,2,9,0.0,1.0,12,48.0,20.0,9,0.888,0.0,270.8,0.0,0,2019-06-06 14:06:02.000,13,2019-06-06 14:10:30.926,0.25,90,-180,-90,-180,1
2054,13,0,285.785,0,-90,1,0.25,2,3,0.0,1.0,6,48.0,20.0,3,0.951,1.0,286.516,0.0,0,2019-06-06 14:06:02.000,13,2019-06-06 14:10:47.785,0.25,-90,0,90,0,1
2055,15,0,299.455,0,-90,1,0.25,2,9,0.0,1.0,12,48.0,20.0,9,0.763,0.0,301.772,0.0,0,2019-06-06 14:06:02.000,13,2019-06-06 14:11:01.455,0.25,90,-180,-90,-180,1
2056,17,0,308.467,0,-90,1,0.25,2,3,0.0,1.0,6,48.0,20.0,3,0.888,1.0,310.046,0.0,0,2019-06-06 14:06:02.000,13,2019-06-06 14:11:10.467,0.25,-90,0,90,0,1
2299,142,0,770.633,1,-60,1,0.25,2,9,0.0,1.0,11,48.0,20.0,9,0.951,1.0,770.9739999999998,0.15,1,2019-06-07 08:42:32.000,184,2019-06-07 08:55:22.633,0.25,-90,-150,-90,-30,1
2300,143,0,772.452,0,-60,1,0.25,2,3,0.0,1.0,5,48.0,20.0,3,0.701,0.0,774.347,0.15,1,2019-06-07 08:42:32.000,184,2019-06-07 08:55:24.452,0.25,90,30,90,150,1
2301,144,0,779.7860000000002,1,-60,1,0.25,2,3,0.0,1.0,5,48.0,20.0,3,0.888,0.0,780.2610000000002,0.15,1,2019-06-07 08:42:32.000,184,2019-06-07 08:55:31.786,0.25,90,30,90,150,1
2302,145,0,781.745,1,-60,1,0.25,2,9,0.0,1.0,11,48.0,20.0,9,0.826,1.0,783.225,0.15,1,2019-06-07 08:42:32.000,184,2019-06-07 08:55:33.745,0.25,-90,-150,-90,-30,1
2303,146,0,784.961,0,-60,1,0.25,2,9,0.0,1.0,11,48.0,20.0,9,0.951,0.0,786.922,0.0,0,2019-06-07 08:42:32.000,184,2019-06-07 08:55:36.961,0.25,90,-150,-90,150,1
2304,148,0,795.9860000000001,1,-60,1,0.25,2,3,0.0,1.0,5,48.0,20.0,3,0.701,0.0,796.9069999999998,0.15,1,2019-06-07 08:42:32.000,184,2019-06-07 08:55:47.986,0.25,90,30,90,150,1
2305,149,0,798.426,0,-60,1,0.25,2,3,0.0,1.0,5,48.0,20.0,3,0.826,1.0,799.9689999999998,0.0,0,2019-06-07 08:42:32.000,184,2019-06-07 08:55:50.426,0.25,-90,30,90,-30,1
2306,151,0,814.143,1,-60,1,0.25,2,9,0.0,1.0,11,48.0,20.0,9,0.763,1.0,814.477,0.15,1,2019-06-07 08:42:32.000,184,2019-06-07 08:56:06.143,0.25,-90,-150,-90,-30,1
2307,152,0,816.061,0,-60,1,0.25,2,3,0.0,1.0,5,48.0,20.0,3,0.888,1.0,817.3510000000001,0.0,0,2019-06-07 08:42:32.000,184,2019-06-07 08:56:08.061,0.25,-90,30,90,-30,1
2308,154,0,827.455,0,-60,1,0.25,2,9,0.0,1.0,11,48.0,20.0,9,0.763,0.0,828.052,0.0,0,2019-06-07 08:42:32.000,184,2019-06-07 08:56:19.455,0.25,90,-150,-90,150,1
2444,177,0,1091.728,1,-30,1,0.25,2,3,0.0,1.0,4,48.0,20.0,3,0.951,0.0,1092.811,0.17,1,2019-06-07 14:01:49.000,193,2019-06-07 14:20:00.728,0.25,90,60,90,120,1
2445,178,0,1094.119,0,-30,1,0.25,2,9,0.0,1.0,10,48.0,20.0,9,0.763,0.0,1095.514,0.0,0,2019-06-07 14:01:49.000,193,2019-06-07 14:20:03.119,0.25,90,-120,-90,120,1
2446,180,0,1102.056,0,-30,1,0.25,2,9,0.0,1.0,10,48.0,20.0,9,0.701,1.0,1103.175,0.13,1,2019-06-07 14:01:49.000,193,2019-06-07 14:20:11.056,0.25,-90,-120,-90,-60,1
2447,181,0,1106.524,0,-30,1,0.25,2,9,0.0,1.0,10,48.0,20.0,9,0.888,0.0,1107.609,0.0,0,2019-06-07 14:01:49.000,193,2019-06-07 14:20:15.524,0.25,90,-120,-90,120,1
2448,183,0,1116.984,1,-30,1,0.25,2,9,0.0,1.0,10,48.0,20.0,9,0.826,1.0,1118.212,0.13,1,2019-06-07 14:01:49.000,193,2019-06-07 14:20:25.984,0.25,-90,-120,-90,-60,1
2449,184,0,1119.787,0,-30,1,0.25,2,9,0.0,1.0,10,48.0,20.0,9,0.826,0.0,1120.93,0.0,0,2019-06-07 14:01:49.000,193,2019-06-07 14:20:28.787,0.25,90,-120,-90,120,1
2450,186,0,1133.606,1,-30,1,0.25,2,3,0.0,1.0,4,48.0,20.0,3,0.763,0.0,1134.061,0.17,1,2019-06-07 14:01:49.000,193,2019-06-07 14:20:42.606,0.25,90,60,90,120,1
2451,187,0,1135.545,0,-30,1,0.25,2,9,0.0,1.0,10,48.0,20.0,9,0.951,1.0,1136.636,0.13,1,2019-06-07 14:01:49.000,193,2019-06-07 14:20:44.545,0.25,-90,-120,-90,-60,1
2452,188,0,1139.518,1,-30,1,0.25,2,3,0.0,1.0,4,48.0,20.0,3,0.701,0.0,1139.881,0.17,1,2019-06-07 14:01:49.000,193,2019-06-07 14:20:48.518,0.25,90,60,90,120,1
2453,189,0,1141.521,0,-30,1,0.25,2,9,0.0,1.0,10,48.0,20.0,9,0.888,0.0,1142.904,0.0,0,2019-06-07 14:01:49.000,193,2019-06-07 14:20:50.521,0.25,90,-120,-90,120,1
2808,143,0,702.9789999999998,1,0,1,0.25,2,3,0.0,1.0,3,48.0,20.0,3,0.888,0.0,703.2189999999998,0.15,1,2019-06-11 08:36:57.000,10,2019-06-11 08:48:39.979,0.25,90,90,90,90,1
2809,144,0,704.75,0,0,1,0.25,2,3,0.0,1.0,3,48.0,20.0,3,0.951,0.0,705.5139999999999,0.15,1,2019-06-11 08:36:57.000,10,2019-06-11 08:48:41.750,0.25,90,90,90,90,1
2810,145,0,708.571,0,0,1,0.25,2,3,0.0,1.0,3,48.0,20.0,3,0.763,0.0,709.198,0.15,1,2019-06-11 08:36:57.000,10,2019-06-11 08:48:45.571,0.25,90,90,90,90,1
2811,146,0,715.393,1,0,1,0.25,2,9,0.0,1.0,9,48.0,20.0,9,0.826,1.0,715.755,0.15,1,2019-06-11 08:36:57.000,10,2019-06-11 08:48:52.393,0.25,-90,-90,-90,-90,1
2812,147,0,717.2489999999998,0,0,1,0.25,2,9,0.0,1.0,9,48.0,20.0,9,0.951,0.0,718.868,0.0,0,2019-06-11 08:36:57.000,10,2019-06-11 08:48:54.249,0.25,90,-90,-90,90,1
2813,149,0,725.451,0,0,1,0.25,2,3,0.0,1.0,3,48.0,20.0,3,0.701,1.0,727.6080000000002,0.0,0,2019-06-11 08:36:57.000,10,2019-06-11 08:49:02.451,0.25,-90,90,90,-90,1
2814,151,0,734.1310000000002,1,0,1,0.25,2,3,0.0,1.0,3,48.0,20.0,3,0.763,0.0,735.86,0.15,1,2019-06-11 08:36:57.000,10,2019-06-11 08:49:11.131,0.25,90,90,90,90,1
2815,152,0,737.434,0,0,1,0.25,2,9,0.0,1.0,9,48.0,20.0,9,0.888,0.0,738.926,0.0,0,2019-06-11 08:36:57.000,10,2019-06-11 08:49:14.434,0.25,90,-90,-90,90,1
2816,155,0,766.956,0,0,1,0.25,2,9,0.0,1.0,9,48.0,20.0,9,0.826,0.0,768.383,0.0,0,2019-06-11 08:36:57.000,10,2019-06-11 08:49:43.956,0.25,90,-90,-90,90,1
2817,157,0,775.056,0,0,1,0.25,2,3,0.0,1.0,3,48.0,20.0,3,0.951,1.0,776.415,0.0,0,2019-06-11 08:36:57.000,10,2019-06-11 08:49:52.056,0.25,-90,90,90,-90,1
3180,128,0,756.387,0,30,1,0.25,2,3,0.0,1.0,2,48.0,20.0,3,0.888,0.0,757.1039999999998,0.15,1,2019-06-12 13:52:25.000,199,2019-06-12 14:05:01.387,0.25,90,120,90,60,1
3181,129,0,763.6039999999998,1,30,1,0.25,2,9,0.0,1.0,8,48.0,20.0,9,0.763,1.0,764.0269999999998,0.15,1,2019-06-12 13:52:25.000,199,2019-06-12 14:05:08.604,0.25,-90,-60,-90,-120,1
3182,130,0,765.426,0,30,1,0.25,2,3,0.0,1.0,2,48.0,20.0,3,0.763,0.0,767.055,0.15,1,2019-06-12 13:52:25.000,199,2019-06-12 14:05:10.426,0.25,90,120,90,60,1
3183,131,0,772.3660000000001,1,30,1,0.25,2,9,0.0,1.0,8,48.0,20.0,9,0.826,1.0,772.423,0.15,1,2019-06-12 13:52:25.000,199,2019-06-12 14:05:17.366,0.25,-90,-60,-90,-120,1
3184,132,0,773.924,1,30,1,0.25,2,3,0.0,1.0,2,48.0,20.0,3,0.951,0.0,774.8739999999998,0.15,1,2019-06-12 13:52:25.000,199,2019-06-12 14:05:18.924,0.25,90,120,90,60,1
3185,133,0,776.248,0,30,1,0.25,2,3,0.0,1.0,8,48.0,20.0,3,0.701,0.0,777.632,0.15,1,2019-06-12 13:52:25.000,199,2019-06-12 14:05:21.248,0.25,90,-60,-90,60,1
3186,134,0,780.959,0,30,1,0.25,2,9,0.0,1.0,8,48.0,20.0,9,0.888,1.0,781.557,0.15,1,2019-06-12 13:52:25.000,199,2019-06-12 14:05:25.959,0.25,-90,-60,-90,-120,1
3187,135,0,785.163,1,30,1,0.25,2,9,0.0,1.0,8,48.0,20.0,9,0.701,1.0,785.677,0.15,1,2019-06-12 13:52:25.000,199,2019-06-12 14:05:30.163,0.25,-90,-60,-90,-120,1
3188,136,0,787.066,1,30,1,0.25,2,3,0.0,1.0,2,48.0,20.0,3,0.826,0.0,788.5039999999998,0.15,1,2019-06-12 13:52:25.000,199,2019-06-12 14:05:32.066,0.25,90,120,90,60,1
3189,137,0,790.2330000000002,0,30,1,0.25,2,3,0.0,1.0,2,48.0,20.0,3,0.951,1.0,791.515,0.0,0,2019-06-12 13:52:25.000,199,2019-06-12 14:05:35.233,0.25,-90,120,90,-120,1
3324,181,0,897.941,1,0,1,0.25,2,9,0.0,1.0,9,48.0,20.0,9,0.888,1.0,898.216,0.15,1,2019-06-13 08:28:59.000,201,2019-06-13 08:43:56.941,0.25,-90,-90,-90,-90,1
3325,182,0,899.4989999999998,0,0,1,0.25,2,9,0.0,1.0,9,48.0,20.0,9,0.701,0.0,901.167,0.0,0,2019-06-13 08:28:59.000,201,2019-06-13 08:43:58.499,0.25,90,-90,-90,90,1
3326,184,0,910.383,0,0,1,0.25,2,3,0.0,1.0,3,48.0,20.0,3,0.763,0.0,912.016,0.15,1,2019-06-13 08:28:59.000,201,2019-06-13 08:44:09.383,0.25,90,90,90,90,1
3327,185,0,915.668,0,0,1,0.25,2,9,0.0,1.0,9,48.0,20.0,9,0.951,1.0,915.811,0.15,1,2019-06-13 08:28:59.000,201,2019-06-13 08:44:14.668,0.25,-90,-90,-90,-90,1
3328,186,0,919.022,0,0,1,0.25,2,9,0.0,1.0,9,48.0,20.0,9,0.888,1.0,919.444,0.15,1,2019-06-13 08:28:59.000,201,2019-06-13 08:44:18.022,0.25,-90,-90,-90,-90,1
3329,187,0,922.575,0,0,1,0.25,2,9,0.0,1.0,9,48.0,20.0,9,0.826,1.0,922.774,0.15,1,2019-06-13 08:28:59.000,201,2019-06-13 08:44:21.575,0.25,-90,-90,-90,-90,1
3330,188,0,925.823,0,0,1,0.25,2,9,0.0,1.0,9,48.0,20.0,9,0.951,1.0,926.301,0.15,1,2019-06-13 08:28:59.000,201,2019-06-13 08:44:24.823,0.25,-90,-90,-90,-90,1
3331,189,0,929.378,0,0,1,0.25,2,9,0.0,1.0,9,48.0,20.0,9,0.826,1.0,929.556,0.15,1,2019-06-13 08:28:59.000,201,2019-06-13 08:44:28.378,0.25,-90,-90,-90,-90,1
3332,190,0,933.026,0,0,1,0.25,2,3,0.0,1.0,3,48.0,20.0,3,0.701,0.0,933.873,0.15,1,2019-06-13 08:28:59.000,201,2019-06-13 08:44:32.026,0.25,90,90,90,90,1
3333,191,0,937.683,0,0,1,0.25,2,9,0.0,1.0,9,48.0,20.0,9,0.888,0.0,938.122,0.0,0,2019-06-13 08:28:59.000,201,2019-06-13 08:44:36.683,0.25,90,-90,-90,90,1
3709,197,0,1075.903,0,60,1,0.25,2,9,0.0,1.0,7,48.0,20.0,9,0.763,1.0,1078.031,0.15,1,2019-06-14 08:49:45.000,205,2019-06-14 09:07:40.903,0.25,-90,-30,-90,-150,1
3710,198,0,1084.639,0,60,1,0.25,2,3,0.0,1.0,1,48.0,20.0,3,0.951,1.0,1084.956,0.0,0,2019-06-14 08:49:45.000,205,2019-06-14 09:07:49.639,0.25,-90,150,90,-150,1
3711,200,0,1092.339,1,60,1,0.25,2,3,0.0,1.0,1,48.0,20.0,3,0.826,0.0,1094.68,0.15,1,2019-06-14 08:49:45.000,205,2019-06-14 09:07:57.339,0.25,90,150,90,30,1
3712,201,0,1095.843,0,60,1,0.25,2,9,0.0,1.0,7,48.0,20.0,9,0.701,0.0,1098.428,0.0,0,2019-06-14 08:49:45.000,205,2019-06-14 09:08:00.843,0.25,90,-30,-90,30,1
3713,204,0,1112.221,0,60,1,0.25,2,3,0.0,1.0,1,48.0,20.0,3,0.701,1.0,1113.716,0.0,0,2019-06-14 08:49:45.000,205,2019-06-14 09:08:17.221,0.25,-90,150,90,-150,1
3714,206,0,1123.654,0,60,1,0.25,2,9,0.0,1.0,7,48.0,20.0,9,0.888,1.0,1123.973,0.15,1,2019-06-14 08:49:45.000,205,2019-06-14 09:08:28.654,0.25,-90,-30,-90,-150,1
3716,208,0,1129.22,0,60,1,0.25,2,9,0.0,1.0,7,48.0,20.0,9,0.763,0.0,1130.982,0.0,0,2019-06-14 08:49:45.000,205,2019-06-14 09:08:34.220,0.25,90,-30,-90,30,1
3717,211,0,1151.38,0,60,1,0.25,2,9,0.0,1.0,7,48.0,20.0,9,0.951,1.0,1151.418,0.15,1,2019-06-14 08:49:45.000,205,2019-06-14 09:08:56.380,0.25,-90,-30,-90,-150,1
3718,212,0,1161.764,0,60,1,0.25,2,9,0.0,1.0,7,48.0,20.0,9,0.951,1.0,1162.056,0.15,1,2019-06-14 08:49:45.000,205,2019-06-14 09:09:06.764,0.25,-90,-30,-90,-150,1
3719,213,0,1163.389,0,60,1,0.25,2,3,0.0,1.0,1,48.0,20.0,3,0.826,1.0,1163.552,0.0,0,2019-06-14 08:49:45.000,205,2019-06-14 09:09:08.389,0.25,-90,150,90,-150,1
3986,150,0,1014.791,0,0,1,0.25,2,90,0.0,1.0,9,48.0,20.0,9,0.888,1.0,1015.644,0.15,1,2019-06-24 08:42:06.000,67,2019-06-24 08:59:00.791,0.25,-90,-90,-90,-90,1
3987,151,0,1019.527,1,0,1,0.25,2,90,0.0,1.0,9,48.0,20.0,9,0.763,0.0,1022.078,0.0,0,2019-06-24 08:42:06.000,67,2019-06-24 08:59:05.527,0.25,90,-90,-90,90,1
3988,153,0,1032.279,1,0,1,0.25,2,90,0.0,1.0,9,48.0,20.0,9,0.888,0.0,1034.663,0.0,0,2019-06-24 08:42:06.000,67,2019-06-24 08:59:18.279,0.25,90,-90,-90,90,1
3989,157,0,1067.177,0,0,1,0.25,2,90,0.0,1.0,9,48.0,20.0,9,0.701,1.0,1068.44,0.15,1,2019-06-24 08:42:06.000,67,2019-06-24 08:59:53.177,0.25,-90,-90,-90,-90,1
3990,158,0,1073.452,0,0,1,0.25,2,90,0.0,1.0,9,48.0,20.0,9,0.826,1.0,1073.646,0.15,1,2019-06-24 08:42:06.000,67,2019-06-24 08:59:59.452,0.25,-90,-90,-90,-90,1
3991,159,0,1076.895,0,0,1,0.25,2,90,0.0,1.0,9,48.0,20.0,9,0.951,1.0,1078.2089999999996,0.15,1,2019-06-24 08:42:06.000,67,2019-06-24 09:00:02.895,0.25,-90,-90,-90,-90,1
3992,160,0,1081.369,0,0,1,0.25,2,30,0.0,1.0,3,48.0,20.0,3,0.888,1.0,1082.054,0.0,0,2019-06-24 08:42:06.000,67,2019-06-24 09:00:07.369,0.25,-90,90,90,-90,1
3993,162,0,1114.488,0,0,1,0.25,2,90,0.0,1.0,9,48.0,20.0,9,0.701,1.0,1115.484,0.15,1,2019-06-24 08:42:06.000,67,2019-06-24 09:00:40.488,0.25,-90,-90,-90,-90,1
3994,163,0,1119.664,0,0,1,0.25,2,90,0.0,1.0,9,48.0,20.0,9,0.763,1.0,1121.075,0.15,1,2019-06-24 08:42:06.000,67,2019-06-24 09:00:45.664,0.25,-90,-90,-90,-90,1
3995,164,0,1125.104,0,0,1,0.25,2,30,0.0,1.0,3,48.0,20.0,3,0.826,0.0,1127.202,0.15,1,2019-06-24 08:42:06.000,67,2019-06-24 09:00:51.104,0.25,90,90,90,90,1
4422,140,0,739.273,1,-60,1,0.25,2,9,0.0,1.0,11,48.0,20.0,9,0.763,1.0,742.1489999999999,0.15,1,2019-06-26 14:09:50.000,250,2019-06-26 14:22:09.273,0.25,-90,-150,-90,-30,1
4423,141,0,746.153,1,-60,1,0.25,2,3,0.0,1.0,5,48.0,20.0,3,0.701,0.0,750.0169999999998,0.15,1,2019-06-26 14:09:50.000,250,2019-06-26 14:22:16.153,0.25,90,30,90,150,1
4424,142,0,754.2869999999998,0,-60,1,0.25,2,3,0.0,1.0,5,48.0,20.0,3,0.888,1.0,754.8760000000002,0.0,0,2019-06-26 14:09:50.000,250,2019-06-26 14:22:24.287,0.25,-90,30,90,-30,1
4425,144,0,764.227,1,-60,1,0.25,2,9,0.0,1.0,11,48.0,20.0,9,0.763,1.0,768.422,0.15,1,2019-06-26 14:09:50.000,250,2019-06-26 14:22:34.227,0.25,-90,-150,-90,-30,1
4426,145,0,773.072,0,-60,1,0.25,2,3,0.0,1.0,5,48.0,20.0,3,0.826,0.0,773.684,0.15,1,2019-06-26 14:09:50.000,250,2019-06-26 14:22:43.072,0.25,90,30,90,150,1
4428,147,0,783.4119999999998,0,-60,1,0.25,2,3,0.0,1.0,5,48.0,20.0,3,0.888,0.0,784.5889999999998,0.15,1,2019-06-26 14:09:50.000,250,2019-06-26 14:22:53.412,0.25,90,30,90,150,1
4429,148,0,786.8610000000001,0,-60,1,0.25,2,3,0.0,1.0,5,48.0,20.0,3,0.826,0.0,787.334,0.15,1,2019-06-26 14:09:50.000,250,2019-06-26 14:22:56.861,0.25,90,30,90,150,1
4430,149,0,795.09,0,-60,1,0.25,2,3,0.0,1.0,5,48.0,20.0,3,0.701,0.0,796.5210000000002,0.15,1,2019-06-26 14:09:50.000,250,2019-06-26 14:23:05.090,0.25,90,30,90,150,1
4431,150,0,799.445,1,-60,1,0.25,2,9,0.0,1.0,11,48.0,20.0,9,0.951,1.0,799.7289999999998,0.15,1,2019-06-26 14:09:50.000,250,2019-06-26 14:23:09.445,0.25,-90,-150,-90,-30,1
4432,151,0,802.79,0,-60,1,0.25,2,3,0.0,1.0,5,48.0,20.0,3,0.888,0.0,805.1189999999998,0.15,1,2019-06-26 14:09:50.000,250,2019-06-26 14:23:12.790,0.25,90,30,90,150,1
4582,200,0,1188.85,0,150,1,0.25,2,9,0.0,1.0,4,48.0,20.0,9,0.701,1.0,1189.644,0.15,1,2019-06-27 09:01:25.000,254,2019-06-27 09:21:13.850,0.25,-90,60,-90,120,1
4583,201,0,1192.755,0,150,1,0.25,2,3,0.0,1.0,10,48.0,20.0,3,0.888,0.0,1192.99,0.15,1,2019-06-27 09:01:25.000,254,2019-06-27 09:21:17.755,0.25,90,-120,90,-60,1
4585,203,0,1206.567,0,150,1,0.25,2,9,0.0,1.0,4,48.0,20.0,9,0.951,0.0,1207.101,0.0,0,2019-06-27 09:01:25.000,254,2019-06-27 09:21:31.567,0.25,90,60,-90,-60,1
4586,205,0,1217.842,1,150,1,0.25,2,9,0.0,1.0,4,48.0,20.0,9,0.701,0.0,1221.196,0.0,0,2019-06-27 09:01:25.000,254,2019-06-27 09:21:42.842,0.25,90,60,-90,-60,1
4587,207,0,1230.649,0,150,1,0.25,2,9,0.0,1.0,4,48.0,20.0,9,0.951,1.0,1231.669,0.15,1,2019-06-27 09:01:25.000,254,2019-06-27 09:21:55.649,0.25,-90,60,-90,120,1
4588,208,0,1234.704,0,150,1,0.25,2,3,0.0,1.0,10,48.0,20.0,3,0.826,0.0,1234.932,0.15,1,2019-06-27 09:01:25.000,254,2019-06-27 09:21:59.704,0.25,90,-120,90,-60,1
4589,209,0,1240.474,0,150,1,0.25,2,9,0.0,1.0,4,48.0,20.0,9,0.888,0.0,1241.219,0.0,0,2019-06-27 09:01:25.000,254,2019-06-27 09:22:05.474,0.25,90,60,-90,-60,1
4590,211,0,1246.94,0,150,1,0.25,2,3,0.0,1.0,10,48.0,20.0,3,0.701,0.0,1247.542,0.15,1,2019-06-27 09:01:25.000,254,2019-06-27 09:22:11.940,0.25,90,-120,90,-60,1
4591,212,0,1256.454,0,150,1,0.25,2,9,0.0,1.0,4,48.0,20.0,9,0.763,1.0,1257.432,0.15,1,2019-06-27 09:01:25.000,254,2019-06-27 09:22:21.454,0.25,-90,60,-90,120,1
4592,213,0,1263.67,0,150,1,0.25,2,3,0.0,1.0,10,48.0,20.0,3,0.888,0.0,1264.854,0.15,1,2019-06-27 09:01:25.000,254,2019-06-27 09:22:28.670,0.25,90,-120,90,-60,1
4652,84,0,507.976,0,60,1,0.25,2,9,0.0,1.0,7,48.0,20.0,9,0.951,1.0,508.471,0.15,1,2019-06-27 14:32:20.000,318,2019-06-27 14:40:47.976,0.25,-90,-30,-90,-150,1
4653,85,0,511.324,0,60,1,0.25,2,9,0.0,1.0,7,48.0,20.0,9,0.826,0.0,511.856,0.0,0,2019-06-27 14:32:20.000,318,2019-06-27 14:40:51.324,0.25,90,-30,-90,30,1
4654,87,0,520.4630000000002,0,60,1,0.25,2,9,0.0,1.0,7,48.0,20.0,9,0.951,0.0,521.078,0.0,0,2019-06-27 14:32:20.000,318,2019-06-27 14:41:00.463,0.25,90,-30,-90,30,1
4655,89,0,527.06,0,60,1,0.25,2,9,0.0,1.0,7,48.0,20.0,9,0.701,1.0,527.494,0.15,1,2019-06-27 14:32:20.000,318,2019-06-27 14:41:07.060,0.25,-90,-30,-90,-150,1
4656,90,0,530.764,0,60,1,0.25,2,9,0.0,1.0,7,48.0,20.0,9,0.826,1.0,531.123,0.15,1,2019-06-27 14:32:20.000,318,2019-06-27 14:41:10.764,0.25,-90,-30,-90,-150,1
4657,91,0,533.673,0,60,1,0.25,2,9,0.0,1.0,7,48.0,20.0,9,0.763,1.0,534.018,0.15,1,2019-06-27 14:32:20.000,318,2019-06-27 14:41:13.673,0.25,-90,-30,-90,-150,1
4658,92,0,537.775,0,60,1,0.25,2,9,0.0,1.0,7,48.0,20.0,9,0.701,1.0,538.24,0.15,1,2019-06-27 14:32:20.000,318,2019-06-27 14:41:17.775,0.25,-90,-30,-90,-150,1
4659,93,0,541.356,0,60,1,0.25,2,9,0.0,1.0,7,48.0,20.0,9,0.888,1.0,541.762,0.15,1,2019-06-27 14:32:20.000,318,2019-06-27 14:41:21.356,0.25,-90,-30,-90,-150,1
4660,94,0,546.211,0,60,1,0.25,2,9,0.0,1.0,7,48.0,20.0,9,0.826,0.0,546.5830000000002,0.0,0,2019-06-27 14:32:20.000,318,2019-06-27 14:41:26.211,0.25,90,-30,-90,30,1
4661,96,0,553.779,0,60,1,0.25,2,9,0.0,1.0,7,48.0,20.0,9,0.701,0.0,554.086,0.0,0,2019-06-27 14:32:20.000,318,2019-06-27 14:41:33.779,0.25,90,-30,-90,30,1
4756,132,0,792.165,0,-30,1,0.25,2,3,0.0,1.0,4,48.0,20.0,3,0.826,0.0,792.448,0.15,1,2019-06-28 08:39:05.000,291,2019-06-28 08:52:17.165,0.25,90,60,90,120,1
4757,133,0,795.6189999999998,1,-30,1,0.25,2,3,0.0,1.0,4,48.0,20.0,3,0.701,0.0,800.8430000000002,0.15,1,2019-06-28 08:39:05.000,291,2019-06-28 08:52:20.619,0.25,90,60,90,120,1
4758,134,0,805.301,1,-30,1,0.25,2,3,0.0,1.0,4,48.0,20.0,3,0.951,0.0,809.909,0.15,1,2019-06-28 08:39:05.000,291,2019-06-28 08:52:30.301,0.25,90,60,90,120,1
4759,135,0,812.8389999999998,0,-30,1,0.25,2,3,0.0,1.0,4,48.0,20.0,3,0.763,1.0,813.868,0.0,0,2019-06-28 08:39:05.000,291,2019-06-28 08:52:37.839,0.25,-90,60,90,-60,1
4760,137,0,827.186,0,-30,1,0.25,2,9,0.0,1.0,10,48.0,20.0,9,0.826,1.0,828.834,0.15,1,2019-06-28 08:39:05.000,291,2019-06-28 08:52:52.186,0.25,-90,-120,-90,-60,1
4761,138,0,832.65,1,-30,1,0.25,2,3,0.0,1.0,4,48.0,20.0,3,0.701,1.0,835.6189999999998,0.0,0,2019-06-28 08:39:05.000,291,2019-06-28 08:52:57.650,0.25,-90,60,90,-60,1
4762,140,0,845.007,0,-30,1,0.25,2,9,0.0,1.0,10,48.0,20.0,9,0.888,0.0,846.1139999999998,0.0,0,2019-06-28 08:39:05.000,291,2019-06-28 08:53:10.007,0.25,90,-120,-90,120,1
4763,142,0,851.73,0,-30,1,0.25,2,3,0.0,1.0,4,48.0,20.0,3,0.701,0.0,852.8960000000002,0.15,1,2019-06-28 08:39:05.000,291,2019-06-28 08:53:16.730,0.25,90,60,90,120,1
4764,143,0,856.811,0,-30,1,0.25,2,3,0.0,1.0,4,48.0,20.0,3,0.763,0.0,857.2860000000002,0.15,1,2019-06-28 08:39:05.000,291,2019-06-28 08:53:21.811,0.25,90,60,90,120,1
4765,144,0,861.628,0,-30,1,0.25,2,3,0.0,1.0,4,48.0,20.0,3,0.826,0.0,862.515,0.15,1,2019-06-28 08:39:05.000,291,2019-06-28 08:53:26.628,0.25,90,60,90,120,1
4904,39,0,256.128,0,0,1,0.25,2,3,0.0,1.0,3,48.0,20.0,3,0.826,0.0,257.675,0.15,1,2019-07-01 08:47:36.000,243,2019-07-01 08:51:52.128,0.25,90,90,90,90,1
4905,40,0,262.58,0,0,1,0.25,2,9,0.0,1.0,9,48.0,20.0,9,0.888,1.0,263.108,0.15,1,2019-07-01 08:47:36.000,243,2019-07-01 08:51:58.580,0.25,-90,-90,-90,-90,1
4906,41,0,266.88,0,0,1,0.25,2,3,0.0,1.0,3,48.0,20.0,3,0.826,0.0,268.209,0.15,1,2019-07-01 08:47:36.000,243,2019-07-01 08:52:02.880,0.25,90,90,90,90,1
4907,42,0,269.81,0,0,1,0.25,2,9,0.0,1.0,9,48.0,20.0,9,0.763,1.0,270.967,0.15,1,2019-07-01 08:47:36.000,243,2019-07-01 08:52:05.810,0.25,-90,-90,-90,-90,1
4908,43,0,274.507,0,0,1,0.25,2,3,0.0,1.0,3,48.0,20.0,3,0.888,1.0,275.223,0.0,0,2019-07-01 08:47:36.000,243,2019-07-01 08:52:10.507,0.25,-90,90,90,-90,1
4909,46,0,307.413,0,0,1,0.25,2,3,0.0,1.0,3,48.0,20.0,3,0.951,0.0,307.853,0.15,1,2019-07-01 08:47:36.000,243,2019-07-01 08:52:43.413,0.25,90,90,90,90,1
4911,48,0,316.465,1,0,1,0.25,2,9,0.0,1.0,9,48.0,20.0,9,0.826,0.0,319.664,0.0,0,2019-07-01 08:47:36.000,243,2019-07-01 08:52:52.465,0.25,90,-90,-90,90,1
4912,51,0,329.398,0,0,1,0.25,2,3,0.0,1.0,3,48.0,20.0,3,0.763,1.0,329.875,0.0,0,2019-07-01 08:47:36.000,243,2019-07-01 08:53:05.398,0.25,-90,90,90,-90,1
4913,53,0,335.995,0,0,1,0.25,2,9,0.0,1.0,9,48.0,20.0,9,0.951,1.0,336.516,0.15,1,2019-07-01 08:47:36.000,243,2019-07-01 08:53:11.995,0.25,-90,-90,-90,-90,1
4916,56,0,347.272,0,0,1,0.25,2,3,0.0,1.0,3,48.0,20.0,3,0.701,0.0,347.73800000000006,0.15,1,2019-07-01 08:47:36.000,243,2019-07-01 08:53:23.272,0.25,90,90,90,90,1
5145,95,0,508.554,0,90,1,0.25,2,3,0.0,1.0,12,48.0,20.0,3,0.888,0.0,509.695,0.15,1,2019-07-02 08:38:11.000,222,2019-07-02 08:46:39.554,0.25,90,-180,90,0,1
5146,96,0,515.637,0,90,1,0.25,2,3,0.0,1.0,12,48.0,20.0,3,0.763,0.0,516.79,0.15,1,2019-07-02 08:38:11.000,222,2019-07-02 08:46:46.637,0.25,90,-180,90,0,1
5147,97,0,522.677,0,90,1,0.25,2,9,0.0,1.0,6,48.0,20.0,9,0.951,1.0,523.502,0.15,1,2019-07-02 08:38:11.000,222,2019-07-02 08:46:53.677,0.25,-90,0,-90,-180,1
5148,98,0,526.229,0,90,1,0.25,2,9,0.0,1.0,6,48.0,20.0,9,0.888,0.0,526.386,0.0,0,2019-07-02 08:38:11.000,222,2019-07-02 08:46:57.229,0.25,90,0,-90,0,1
5149,100,0,534.974,0,90,1,0.25,2,3,0.0,1.0,12,48.0,20.0,3,0.701,0.0,535.381,0.15,1,2019-07-02 08:38:11.000,222,2019-07-02 08:47:05.974,0.25,90,-180,90,0,1
5150,101,0,541.913,0,90,1,0.25,2,3,0.0,1.0,12,48.0,20.0,3,0.826,0.0,542.303,0.15,1,2019-07-02 08:38:11.000,222,2019-07-02 08:47:12.913,0.25,90,-180,90,0,1
5152,103,0,550.105,0,90,1,0.25,2,3,0.0,1.0,12,48.0,20.0,3,0.951,0.0,550.6030000000002,0.15,1,2019-07-02 08:38:11.000,222,2019-07-02 08:47:21.105,0.25,90,-180,90,0,1
5153,104,0,554.375,0,90,1,0.25,2,3,0.0,1.0,12,48.0,20.0,3,0.763,0.0,554.884,0.15,1,2019-07-02 08:38:11.000,222,2019-07-02 08:47:25.375,0.25,90,-180,90,0,1
5154,105,0,558.045,0,90,1,0.25,2,9,0.0,1.0,6,48.0,20.0,9,0.888,1.0,558.508,0.15,1,2019-07-02 08:38:11.000,222,2019-07-02 08:47:29.045,0.25,-90,0,-90,-180,1
5156,107,0,566.205,0,90,1,0.25,2,9,0.0,1.0,6,48.0,20.0,9,0.701,0.0,567.211,0.0,0,2019-07-02 08:38:11.000,222,2019-07-02 08:47:37.205,0.25,90,0,-90,0,1
5447,221,0,1097.617,0,180,1,0.25,2,9,0.0,1.0,3,48.0,20.0,9,0.951,0.0,1098.168,0.0,0,2019-07-03 08:41:18.000,223,2019-07-03 08:59:35.617,0.25,90,90,-90,-90,1
5448,223,0,1106.453,1,180,1,0.25,2,3,0.0,1.0,9,48.0,20.0,3,0.826,1.0,1109.31,0.0,0,2019-07-03 08:41:18.000,223,2019-07-03 08:59:44.453,0.25,-90,-90,90,90,1
5449,225,0,1114.386,0,180,1,0.25,2,3,0.0,1.0,9,48.0,20.0,3,0.888,0.0,1116.123,0.15,1,2019-07-03 08:41:18.000,223,2019-07-03 08:59:52.386,0.25,90,-90,90,-90,1
5450,226,0,1121.193,0,180,1,0.25,2,9,0.0,1.0,3,48.0,20.0,9,0.951,0.0,1121.757,0.0,0,2019-07-03 08:41:18.000,223,2019-07-03 08:59:59.193,0.25,90,90,-90,-90,1
5452,229,0,1130.967,0,180,1,0.25,2,3,0.0,1.0,9,48.0,20.0,3,0.701,0.0,1131.525,0.15,1,2019-07-03 08:41:18.000,223,2019-07-03 09:00:08.967,0.25,90,-90,90,-90,1
5453,230,0,1133.985,0,180,1,0.25,2,3,0.0,1.0,9,48.0,20.0,3,0.826,0.0,1134.888,0.15,1,2019-07-03 08:41:18.000,223,2019-07-03 09:00:11.985,0.25,90,-90,90,-90,1
5454,231,0,1137.188,0,180,1,0.25,2,9,0.0,1.0,3,48.0,20.0,9,0.701,1.0,1137.8010000000004,0.15,1,2019-07-03 08:41:18.000,223,2019-07-03 09:00:15.188,0.25,-90,90,-90,90,1
5455,232,0,1148.907,0,180,1,0.25,2,3,0.0,1.0,9,48.0,20.0,3,0.826,0.0,1149.3239999999996,0.15,1,2019-07-03 08:41:18.000,223,2019-07-03 09:00:26.907,0.25,90,-90,90,-90,1
5456,233,0,1151.871,0,180,1,0.25,2,3,0.0,1.0,9,48.0,20.0,3,0.951,1.0,1152.5410000000004,0.0,0,2019-07-03 08:41:18.000,223,2019-07-03 09:00:29.871,0.25,-90,-90,90,90,1
5457,235,0,1162.442,0,180,1,0.25,2,9,0.0,1.0,3,48.0,20.0,9,0.888,1.0,1162.517,0.15,1,2019-07-03 08:41:18.000,223,2019-07-03 09:00:40.442,0.25,-90,90,-90,90,1
5552,131,0,788.931,0,-90,1,0.25,2,3,0.0,1.0,6,48.0,20.0,3,0.951,1.0,789.9060000000002,0.0,0,2019-07-03 14:16:41.000,211,2019-07-03 14:29:49.931,0.25,-90,0,90,0,1
5553,133,0,797.1439999999999,0,-90,1,0.25,2,9,0.0,1.0,12,48.0,20.0,9,0.826,1.0,798.653,0.15,1,2019-07-03 14:16:41.000,211,2019-07-03 14:29:58.144,0.25,-90,-180,-90,0,1
5554,134,0,801.7,0,-90,1,0.25,2,9,0.0,1.0,12,48.0,20.0,9,0.888,0.0,802.5239999999999,0.0,0,2019-07-03 14:16:41.000,211,2019-07-03 14:30:02.700,0.25,90,-180,-90,-180,1
5555,136,0,810.74,0,-90,1,0.25,2,3,0.0,1.0,6,48.0,20.0,3,0.763,0.0,811.715,0.15,1,2019-07-03 14:16:41.000,211,2019-07-03 14:30:11.740,0.25,90,0,90,-180,1
5556,137,0,817.1,0,-90,1,0.25,2,9,0.0,1.0,12,48.0,20.0,9,0.701,1.0,818.1619999999998,0.15,1,2019-07-03 14:16:41.000,211,2019-07-03 14:30:18.100,0.25,-90,-180,-90,0,1
5557,138,0,824.956,1,-90,1,0.25,2,3,0.0,1.0,6,48.0,20.0,3,0.826,1.0,827.882,0.0,0,2019-07-03 14:16:41.000,211,2019-07-03 14:30:25.956,0.25,-90,0,90,0,1
5558,140,0,835.078,0,-90,1,0.25,2,3,0.0,1.0,6,48.0,20.0,3,0.951,1.0,836.26,0.0,0,2019-07-03 14:16:41.000,211,2019-07-03 14:30:36.078,0.25,-90,0,90,0,1
5559,142,0,841.591,0,-90,1,0.25,2,3,0.0,1.0,6,48.0,20.0,3,0.763,0.0,842.788,0.15,1,2019-07-03 14:16:41.000,211,2019-07-03 14:30:42.591,0.25,90,0,90,-180,1
5560,143,0,845.81,0,-90,1,0.25,2,3,0.0,1.0,6,48.0,20.0,3,0.826,0.0,846.4960000000002,0.15,1,2019-07-03 14:16:41.000,211,2019-07-03 14:30:46.810,0.25,90,0,90,-180,1
5561,144,0,849.143,0,-90,1,0.25,2,3,0.0,1.0,6,48.0,20.0,3,0.701,0.0,850.238,0.15,1,2019-07-03 14:16:41.000,211,2019-07-03 14:30:50.143,0.25,90,0,90,-180,1
5638,97,0,636.073,0,-120,1,0.25,2,90,0.0,1.0,1,48.0,20.0,9,0.951,1.0,636.883,0.15,1,2019-07-04 08:57:29.000,129,2019-07-04 09:08:05.073,0.25,-90,150,-90,30,1
5639,98,0,639.394,0,-120,1,0.25,2,90,0.0,1.0,1,48.0,20.0,9,0.701,1.0,639.877,0.15,1,2019-07-04 08:57:29.000,129,2019-07-04 09:08:08.394,0.25,-90,150,-90,30,1
5640,99,0,643.11,0,-120,1,0.25,2,30,0.0,1.0,7,48.0,20.0,3,0.826,0.0,644.231,0.15,1,2019-07-04 08:57:29.000,129,2019-07-04 09:08:12.110,0.25,90,-30,90,-150,1
5641,100,0,646.703,0,-120,1,0.25,2,30,0.0,1.0,7,48.0,20.0,3,0.763,1.0,647.578,0.0,0,2019-07-04 08:57:29.000,129,2019-07-04 09:08:15.703,0.25,-90,-30,90,30,1
5642,102,0,665.7869999999998,0,-120,1,0.25,2,30,0.0,1.0,7,48.0,20.0,3,0.951,0.0,666.8760000000002,0.15,1,2019-07-04 08:57:29.000,129,2019-07-04 09:08:34.787,0.25,90,-30,90,-150,1
5643,103,0,671.419,0,-120,1,0.25,2,30,0.0,1.0,7,48.0,20.0,3,0.888,0.0,672.0010000000002,0.15,1,2019-07-04 08:57:29.000,129,2019-07-04 09:08:40.419,0.25,90,-30,90,-150,1
5644,104,0,674.5930000000002,0,-120,1,0.25,2,30,0.0,1.0,7,48.0,20.0,3,0.701,0.0,675.567,0.15,1,2019-07-04 08:57:29.000,129,2019-07-04 09:08:43.593,0.25,90,-30,90,-150,1
5645,105,0,678.047,0,-120,1,0.25,2,90,0.0,1.0,1,48.0,20.0,9,0.826,1.0,678.674,0.15,1,2019-07-04 08:57:29.000,129,2019-07-04 09:08:47.047,0.25,-90,150,-90,30,1
5646,106,0,686.325,0,-120,1,0.25,2,90,0.0,1.0,1,48.0,20.0,9,0.763,1.0,687.071,0.15,1,2019-07-04 08:57:29.000,129,2019-07-04 09:08:55.325,0.25,-90,150,-90,30,1
5647,107,0,690.487,0,-120,1,0.25,2,90,0.0,1.0,1,48.0,20.0,9,0.826,1.0,691.493,0.15,1,2019-07-04 08:57:29.000,129,2019-07-04 09:08:59.487,0.25,-90,150,-90,30,1
6177,135,0,896.539,0,150,1,0.25,2,9,0.0,1.0,4,48.0,20.0,9,0.888,0.0,897.688,0.0,0,2019-07-08 14:09:47.000,270,2019-07-08 14:24:43.539,0.25,90,60,-90,-60,1
6178,138,0,910.169,0,150,1,0.25,2,9,0.0,1.0,4,48.0,20.0,9,0.763,0.0,910.249,0.0,0,2019-07-08 14:09:47.000,270,2019-07-08 14:24:57.169,0.25,90,60,-90,-60,1
6180,142,0,923.623,0,150,1,0.25,2,9,0.0,1.0,4,48.0,20.0,9,0.763,0.0,925.288,0.0,0,2019-07-08 14:09:47.000,270,2019-07-08 14:25:10.623,0.25,90,60,-90,-60,1
6181,147,0,952.657,0,150,1,0.25,2,3,0.0,1.0,10,48.0,20.0,3,0.888,0.0,953.529,0.15,1,2019-07-08 14:09:47.000,270,2019-07-08 14:25:39.657,0.25,90,-120,90,-60,1
6182,148,0,956.465,0,150,1,0.25,2,3,0.0,1.0,10,48.0,20.0,3,0.763,0.0,957.93,0.15,1,2019-07-08 14:09:47.000,270,2019-07-08 14:25:43.465,0.25,90,-120,90,-60,1
6183,149,0,961.188,0,150,1,0.25,2,9,0.0,1.0,4,48.0,20.0,9,0.826,0.0,962.396,0.0,0,2019-07-08 14:09:47.000,270,2019-07-08 14:25:48.188,0.25,90,60,-90,-60,1
6184,151,0,967.394,0,150,1,0.25,2,9,0.0,1.0,4,48.0,20.0,9,0.763,0.0,968.494,0.0,0,2019-07-08 14:09:47.000,270,2019-07-08 14:25:54.394,0.25,90,60,-90,-60,1
6185,153,0,975.03,0,150,1,0.25,2,9,0.0,1.0,4,48.0,20.0,9,0.951,0.0,976.146,0.0,0,2019-07-08 14:09:47.000,270,2019-07-08 14:26:02.030,0.25,90,60,-90,-60,1
6186,155,0,985.239,0,150,1,0.25,2,9,0.0,1.0,4,48.0,20.0,9,0.826,0.0,986.55,0.0,0,2019-07-08 14:09:47.000,270,2019-07-08 14:26:12.239,0.25,90,60,-90,-60,1
6188,158,0,1000.865,0,150,1,0.25,2,3,0.0,1.0,10,48.0,20.0,3,0.701,0.0,1002.198,0.15,1,2019-07-08 14:09:47.000,270,2019-07-08 14:26:27.865,0.25,90,-120,90,-60,1
6261,106,0,566.607,0,30,1,0.25,2,9,0.0,1.0,8,48.0,20.0,9,0.826,0.0,567.9580000000002,0.0,0,2019-07-09 08:51:31.000,285,2019-07-09 09:00:57.607,0.25,90,-60,-90,60,1
6262,108,0,574.931,1,30,1,0.25,2,9,0.0,1.0,8,48.0,20.0,9,0.701,0.0,577.328,0.0,0,2019-07-09 08:51:31.000,285,2019-07-09 09:01:05.931,0.25,90,-60,-90,60,1
6263,110,0,582.751,0,30,1,0.25,2,3,0.0,1.0,2,48.0,20.0,3,0.888,0.0,583.255,0.15,1,2019-07-09 08:51:31.000,285,2019-07-09 09:01:13.751,0.25,90,120,90,60,1
6264,111,0,587.225,0,30,1,0.25,2,3,0.0,1.0,2,48.0,20.0,3,0.763,0.0,588.27,0.15,1,2019-07-09 08:51:31.000,285,2019-07-09 09:01:18.225,0.25,90,120,90,60,1
6265,112,0,598.7669999999998,0,30,1,0.25,2,9,0.0,1.0,8,48.0,20.0,9,0.826,0.0,599.578,0.0,0,2019-07-09 08:51:31.000,285,2019-07-09 09:01:29.767,0.25,90,-60,-90,60,1
6266,115,0,611.359,0,30,1,0.25,2,3,0.0,1.0,2,48.0,20.0,3,0.701,0.0,612.559,0.15,1,2019-07-09 08:51:31.000,285,2019-07-09 09:01:42.359,0.25,90,120,90,60,1
6267,116,0,615.149,0,30,1,0.25,2,3,0.0,1.0,2,48.0,20.0,3,0.701,0.0,616.311,0.15,1,2019-07-09 08:51:31.000,285,2019-07-09 09:01:46.149,0.25,90,120,90,60,1
6268,117,0,619.946,0,30,1,0.25,2,9,0.0,1.0,8,48.0,20.0,9,0.763,0.0,621.5319999999998,0.0,0,2019-07-09 08:51:31.000,285,2019-07-09 09:01:50.946,0.25,90,-60,-90,60,1
6269,119,0,629.192,0,30,1,0.25,2,9,0.0,1.0,8,48.0,20.0,9,0.888,1.0,629.852,0.15,1,2019-07-09 08:51:31.000,285,2019-07-09 09:02:00.192,0.25,-90,-60,-90,-120,1
6271,121,0,638.712,0,30,1,0.25,2,9,0.0,1.0,8,48.0,20.0,9,0.701,1.0,639.266,0.15,1,2019-07-09 08:51:31.000,285,2019-07-09 09:02:09.712,0.25,-90,-60,-90,-120,1
6894,54,0,338.904,0,90,1,0.25,2,9,0.0,1.0,6,48.0,20.0,9,0.763,1.0,339.725,0.15,1,2019-07-12 15:34:36.000,256,2019-07-12 15:40:14.904,0.25,-90,0,-90,-180,1
6895,55,0,343.147,0,90,1,0.25,2,9,0.0,1.0,6,48.0,20.0,9,0.826,1.0,344.041,0.15,1,2019-07-12 15:34:36.000,256,2019-07-12 15:40:19.147,0.25,-90,0,-90,-180,1
6896,56,0,346.858,0,90,1,0.25,2,9,0.0,1.0,6,48.0,20.0,9,0.763,0.0,348.059,0.0,0,2019-07-12 15:34:36.000,256,2019-07-12 15:40:22.858,0.25,90,0,-90,0,1
6897,58,0,354.634,0,90,1,0.25,2,3,0.0,1.0,12,48.0,20.0,3,0.701,0.0,355.461,0.15,1,2019-07-12 15:34:36.000,256,2019-07-12 15:40:30.634,0.25,90,-180,90,0,1
6898,59,0,360.166,0,90,1,0.25,2,9,0.0,1.0,6,48.0,20.0,9,0.826,1.0,360.934,0.15,1,2019-07-12 15:34:36.000,256,2019-07-12 15:40:36.166,0.25,-90,0,-90,-180,1
6899,60,0,364.1880000000001,1,90,1,0.25,2,9,0.0,1.0,6,48.0,20.0,9,0.951,0.0,369.242,0.0,0,2019-07-12 15:34:36.000,256,2019-07-12 15:40:40.188,0.25,90,0,-90,0,1
6900,62,0,376.034,0,90,1,0.25,2,9,0.0,1.0,6,48.0,20.0,9,0.888,1.0,376.967,0.15,1,2019-07-12 15:34:36.000,256,2019-07-12 15:40:52.034,0.25,-90,0,-90,-180,1
6901,63,0,380.966,0,90,1,0.25,2,3,0.0,1.0,12,48.0,20.0,3,0.826,0.0,381.543,0.15,1,2019-07-12 15:34:36.000,256,2019-07-12 15:40:56.966,0.25,90,-180,90,0,1
6902,64,0,386.429,0,90,1,0.25,2,9,0.0,1.0,6,48.0,20.0,9,0.763,1.0,387.298,0.15,1,2019-07-12 15:34:36.000,256,2019-07-12 15:41:02.429,0.25,-90,0,-90,-180,1
6903,65,0,390.244,0,90,1,0.25,2,3,0.0,1.0,12,48.0,20.0,3,0.701,0.0,391.261,0.15,1,2019-07-12 15:34:36.000,256,2019-07-12 15:41:06.244,0.25,90,-180,90,0,1
6942,55,0,312.356,0,0,1,0.25,2,3,0.0,1.0,3,48.0,20.0,3,0.888,0.0,313.178,0.15,1,2019-07-22 08:26:33.000,271,2019-07-22 08:31:45.356,0.25,90,90,90,90,1
6943,56,0,318.898,0,0,1,0.25,2,9,0.0,1.0,9,48.0,20.0,9,0.826,0.0,318.598,0.0,0,2019-07-22 08:26:33.000,271,2019-07-22 08:31:51.898,0.25,90,-90,-90,90,1
6944,59,0,332.093,0,0,1,0.25,2,3,0.0,1.0,3,48.0,20.0,3,0.701,0.0,333.521,0.15,1,2019-07-22 08:26:33.000,271,2019-07-22 08:32:05.093,0.25,90,90,90,90,1
6945,60,0,384.489,0,0,1,0.25,2,9,0.0,1.0,9,48.0,20.0,9,0.888,1.0,384.945,0.15,1,2019-07-22 08:26:33.000,271,2019-07-22 08:32:57.489,0.25,-90,-90,-90,-90,1
6946,61,0,391.318,0,0,1,0.25,2,3,0.0,1.0,3,48.0,20.0,3,0.888,0.0,391.725,0.15,1,2019-07-22 08:26:33.000,271,2019-07-22 08:33:04.318,0.25,90,90,90,90,1
6947,62,0,396.059,0,0,1,0.25,2,9,0.0,1.0,9,48.0,20.0,9,0.701,1.0,396.882,0.15,1,2019-07-22 08:26:33.000,271,2019-07-22 08:33:09.059,0.25,-90,-90,-90,-90,1
6948,63,0,401.112,0,0,1,0.25,2,3,0.0,1.0,3,48.0,20.0,3,0.826,0.0,402.646,0.15,1,2019-07-22 08:26:33.000,271,2019-07-22 08:33:14.112,0.25,90,90,90,90,1
6949,64,0,405.619,0,0,1,0.25,2,3,0.0,1.0,3,48.0,20.0,3,0.763,0.0,407.138,0.15,1,2019-07-22 08:26:33.000,271,2019-07-22 08:33:18.619,0.25,90,90,90,90,1
6950,65,0,410.99300000000005,0,0,1,0.25,2,3,0.0,1.0,3,48.0,20.0,3,0.951,0.0,411.819,0.15,1,2019-07-22 08:26:33.000,271,2019-07-22 08:33:23.993,0.25,90,90,90,90,1
6951,66,0,432.978,0,0,1,0.25,2,3,0.0,1.0,3,48.0,20.0,3,0.826,0.0,434.156,0.15,1,2019-07-22 08:26:33.000,271,2019-07-22 08:33:45.978,0.25,90,90,90,90,1
7052,144,0,905.447,0,-120,1,0.25,2,3,0.0,1.0,7,48.0,20.0,3,0.888,0.0,906.691,0.15,1,2019-07-22 14:02:24.000,322,2019-07-22 14:17:29.447,0.25,90,-30,90,-150,1
7053,145,0,921.858,0,-120,1,0.25,2,3,0.0,1.0,7,48.0,20.0,3,0.826,1.0,922.902,0.0,0,2019-07-22 14:02:24.000,322,2019-07-22 14:17:45.858,0.25,-90,-30,90,30,1
7054,147,0,932.833,0,-120,1,0.25,2,3,0.0,1.0,7,48.0,20.0,3,0.826,0.0,934.276,0.15,1,2019-07-22 14:02:24.000,322,2019-07-22 14:17:56.833,0.25,90,-30,90,-150,1
7055,148,0,937.812,0,-120,1,0.25,2,3,0.0,1.0,7,48.0,20.0,3,0.701,1.0,938.646,0.0,0,2019-07-22 14:02:24.000,322,2019-07-22 14:18:01.812,0.25,-90,-30,90,30,1
7056,150,0,950.644,0,-120,1,0.25,2,9,0.0,1.0,1,48.0,20.0,9,0.888,1.0,951.308,0.15,1,2019-07-22 14:02:24.000,322,2019-07-22 14:18:14.644,0.25,-90,150,-90,30,1
7057,151,0,959.094,0,-120,1,0.25,2,9,0.0,1.0,1,48.0,20.0,9,0.888,1.0,960.228,0.15,1,2019-07-22 14:02:24.000,322,2019-07-22 14:18:23.094,0.25,-90,150,-90,30,1
7058,152,0,963.369,0,-120,1,0.25,2,3,0.0,1.0,7,48.0,20.0,3,0.763,0.0,964.347,0.15,1,2019-07-22 14:02:24.000,322,2019-07-22 14:18:27.369,0.25,90,-30,90,-150,1
7059,153,0,987.76,0,-120,1,0.25,2,9,0.0,1.0,1,48.0,20.0,9,0.701,1.0,988.858,0.15,1,2019-07-22 14:02:24.000,322,2019-07-22 14:18:51.760,0.25,-90,150,-90,30,1
7060,154,0,992.088,0,-120,1,0.25,2,9,0.0,1.0,1,48.0,20.0,9,0.826,1.0,992.592,0.15,1,2019-07-22 14:02:24.000,322,2019-07-22 14:18:56.088,0.25,-90,150,-90,30,1
7061,155,0,996.44,0,-120,1,0.25,2,9,0.0,1.0,1,48.0,20.0,9,0.951,1.0,997.551,0.15,1,2019-07-22 14:02:24.000,322,2019-07-22 14:19:00.440,0.25,-90,150,-90,30,1
7134,109,0,580.006,0,120,1,0.25,2,3,0.0,1.0,11,48.0,20.0,3,0.951,0.0,580.611,0.15,1,2019-07-23 08:39:19.000,316,2019-07-23 08:48:59.006,0.25,90,-150,90,-30,1
7135,110,0,585.175,1,120,1,0.25,2,3,0.0,1.0,11,48.0,20.0,3,0.826,0.0,589.013,0.15,1,2019-07-23 08:39:19.000,316,2019-07-23 08:49:04.175,0.25,90,-150,90,-30,1
7136,111,0,594.696,0,120,1,0.25,2,9,0.0,1.0,5,48.0,20.0,9,0.763,1.0,596.2669999999998,0.15,1,2019-07-23 08:39:19.000,316,2019-07-23 08:49:13.696,0.25,-90,30,-90,150,1
7137,112,0,598.982,0,120,1,0.25,2,9,0.0,1.0,5,48.0,20.0,9,0.888,0.0,599.175,0.0,0,2019-07-23 08:39:19.000,316,2019-07-23 08:49:17.982,0.25,90,30,-90,-30,1
7138,114,0,605.569,0,120,1,0.25,2,9,0.0,1.0,5,48.0,20.0,9,0.951,0.0,606.504,0.0,0,2019-07-23 08:39:19.000,316,2019-07-23 08:49:24.569,0.25,90,30,-90,-30,1
7139,118,0,625.0459999999998,0,120,1,0.25,2,3,0.0,1.0,11,48.0,20.0,3,0.888,0.0,625.944,0.15,1,2019-07-23 08:39:19.000,316,2019-07-23 08:49:44.046,0.25,90,-150,90,-30,1
7140,119,0,629.185,1,120,1,0.25,2,3,0.0,1.0,11,48.0,20.0,3,0.951,0.0,631.2669999999998,0.15,1,2019-07-23 08:39:19.000,316,2019-07-23 08:49:48.185,0.25,90,-150,90,-30,1
7141,120,0,635.474,0,120,1,0.25,2,9,0.0,1.0,5,48.0,20.0,9,0.763,1.0,637.052,0.15,1,2019-07-23 08:39:19.000,316,2019-07-23 08:49:54.474,0.25,-90,30,-90,150,1
7142,121,0,641.321,0,120,1,0.25,2,9,0.0,1.0,5,48.0,20.0,9,0.951,0.0,642.263,0.0,0,2019-07-23 08:39:19.000,316,2019-07-23 08:50:00.321,0.25,90,30,-90,-30,1
7143,123,0,648.217,0,120,1,0.25,2,9,0.0,1.0,5,48.0,20.0,9,0.763,0.0,649.198,0.0,0,2019-07-23 08:39:19.000,316,2019-07-23 08:50:07.217,0.25,90,30,-90,-30,1
7147,5,0,55.7,0,150,1,0.25,2,9,0.0,1.0,4,48.0,20.0,9,0.701,1.0,56.633,0.15,1,2019-07-23 14:09:07.000,265,2019-07-23 14:10:02.700,0.25,-90,60,-90,120,1
7148,6,0,60.146,0,150,1,0.25,2,3,0.0,1.0,10,48.0,20.0,3,0.888,0.0,60.993,0.15,1,2019-07-23 14:09:07.000,265,2019-07-23 14:10:07.146,0.25,90,-120,90,-60,1
7149,7,0,64.17,1,150,1,0.25,2,3,0.0,1.0,10,48.0,20.0,3,0.701,0.0,67.78399999999999,0.15,1,2019-07-23 14:09:07.000,265,2019-07-23 14:10:11.170,0.25,90,-120,90,-60,1
7150,8,0,71.095,0,150,1,0.25,2,3,0.0,1.0,10,48.0,20.0,3,0.951,0.0,72.46,0.15,1,2019-07-23 14:09:07.000,265,2019-07-23 14:10:18.095,0.25,90,-120,90,-60,1
7151,9,0,75.32,0,150,1,0.25,2,3,0.0,1.0,10,48.0,20.0,3,0.763,0.0,76.873,0.15,1,2019-07-23 14:09:07.000,265,2019-07-23 14:10:22.320,0.25,90,-120,90,-60,1
7152,10,0,80.928,1,150,1,0.25,2,3,0.0,1.0,10,48.0,20.0,3,0.826,0.0,85.303,0.15,1,2019-07-23 14:09:07.000,265,2019-07-23 14:10:27.928,0.25,90,-120,90,-60,1
7153,11,0,88.59899999999998,0,150,1,0.25,2,3,0.0,1.0,10,48.0,20.0,3,0.888,0.0,90.331,0.15,1,2019-07-23 14:09:07.000,265,2019-07-23 14:10:35.599,0.25,90,-120,90,-60,1
7154,12,0,93.305,0,150,1,0.25,2,3,0.0,1.0,10,48.0,20.0,3,0.701,0.0,94.428,0.15,1,2019-07-23 14:09:07.000,265,2019-07-23 14:10:40.305,0.25,90,-120,90,-60,1
7155,13,0,99.525,0,150,1,0.25,2,9,0.0,1.0,4,48.0,20.0,9,0.763,0.0,100.722,0.0,0,2019-07-23 14:09:07.000,265,2019-07-23 14:10:46.525,0.25,90,60,-90,-60,1
7156,15,0,107.432,1,150,1,0.25,2,9,0.0,1.0,4,48.0,20.0,9,0.826,0.0,110.592,0.0,0,2019-07-23 14:09:07.000,265,2019-07-23 14:10:54.432,0.25,90,60,-90,-60,1
7214,89,0,510.579,0,90,1,0.25,2,3,0.0,1.0,12,48.0,20.0,3,0.763,0.0,512.385,0.15,1,2019-07-24 08:39:28.000,308,2019-07-24 08:47:58.579,0.25,90,-180,90,0,1
7215,90,0,515.71,0,90,1,0.25,2,3,0.0,1.0,12,48.0,20.0,3,0.951,1.0,516.886,0.0,0,2019-07-24 08:39:28.000,308,2019-07-24 08:48:03.710,0.25,-90,-180,90,-180,1
7216,92,0,524.509,0,90,1,0.25,2,3,0.0,1.0,12,48.0,20.0,3,0.888,0.0,525.845,0.15,1,2019-07-24 08:39:28.000,308,2019-07-24 08:48:12.509,0.25,90,-180,90,0,1
7217,93,0,529.521,0,90,1,0.25,2,9,0.0,1.0,6,48.0,20.0,9,0.951,1.0,530.628,0.15,1,2019-07-24 08:39:28.000,308,2019-07-24 08:48:17.521,0.25,-90,0,-90,-180,1
7218,94,0,534.5269999999998,0,90,1,0.25,2,9,0.0,1.0,6,48.0,20.0,9,0.826,0.0,534.45,0.0,0,2019-07-24 08:39:28.000,308,2019-07-24 08:48:22.527,0.25,90,0,-90,0,1
7219,96,0,543.7080000000002,0,90,1,0.25,2,9,0.0,1.0,6,48.0,20.0,9,0.888,1.0,545.137,0.15,1,2019-07-24 08:39:28.000,308,2019-07-24 08:48:31.708,0.25,-90,0,-90,-180,1
7220,97,0,548.325,0,90,1,0.25,2,3,0.0,1.0,12,48.0,20.0,3,0.826,0.0,548.84,0.15,1,2019-07-24 08:39:28.000,308,2019-07-24 08:48:36.325,0.25,90,-180,90,0,1
7221,98,0,553.903,0,90,1,0.25,2,3,0.0,1.0,12,48.0,20.0,3,0.701,0.0,554.929,0.15,1,2019-07-24 08:39:28.000,308,2019-07-24 08:48:41.903,0.25,90,-180,90,0,1
7222,99,0,559.623,0,90,1,0.25,2,3,0.0,1.0,12,48.0,20.0,3,0.763,0.0,561.089,0.15,1,2019-07-24 08:39:28.000,308,2019-07-24 08:48:47.623,0.25,90,-180,90,0,1
7223,100,0,565.071,0,90,1,0.25,2,3,0.0,1.0,12,48.0,20.0,3,0.951,0.0,565.9169999999998,0.15,1,2019-07-24 08:39:28.000,308,2019-07-24 08:48:53.071,0.25,90,-180,90,0,1
7491,112,0,891.1460000000002,0,60,1,0.25,2,9,0.0,1.0,7,48.0,20.0,9,0.701,1.0,892.664,0.15,1,2019-07-25 16:19:26.000,219,2019-07-25 16:34:17.146,0.25,-90,-30,-90,-150,1
7492,113,0,899.0930000000002,0,60,1,0.25,2,3,0.0,1.0,1,48.0,20.0,3,0.7759999999999999,0.0,899.9169999999998,0.15,1,2019-07-25 16:19:26.000,219,2019-07-25 16:34:25.093,0.25,90,150,90,30,1
7494,115,0,911.039,0,60,1,0.25,2,9,0.0,1.0,7,48.0,20.0,9,0.726,1.0,912.668,0.15,1,2019-07-25 16:19:26.000,219,2019-07-25 16:34:37.039,0.25,-90,-30,-90,-150,1
7495,116,0,916.54,0,60,1,0.25,2,9,0.0,1.0,7,48.0,20.0,9,0.8009999999999999,1.0,917.358,0.15,1,2019-07-25 16:19:26.000,219,2019-07-25 16:34:42.540,0.25,-90,-30,-90,-150,1
7496,117,0,920.303,0,60,1,0.25,2,3,0.0,1.0,1,48.0,20.0,3,0.701,0.0,920.612,0.15,1,2019-07-25 16:19:26.000,219,2019-07-25 16:34:46.303,0.25,90,150,90,30,1
7497,118,0,924.248,1,60,1,0.25,2,9,0.0,1.0,7,48.0,20.0,9,0.726,1.0,929.557,0.15,1,2019-07-25 16:19:26.000,219,2019-07-25 16:34:50.248,0.25,-90,-30,-90,-150,1
7498,119,0,934.053,0,60,1,0.25,2,3,0.0,1.0,1,48.0,20.0,3,0.7759999999999999,0.0,936.537,0.15,1,2019-07-25 16:19:26.000,219,2019-07-25 16:35:00.053,0.25,90,150,90,30,1
7500,121,0,951.86,0,60,1,0.25,2,3,0.0,1.0,1,48.0,20.0,3,0.8009999999999999,0.0,952.489,0.15,1,2019-07-25 16:19:26.000,219,2019-07-25 16:35:17.860,0.25,90,150,90,30,1
7501,122,0,956.321,0,60,1,0.25,2,9,0.0,1.0,7,48.0,20.0,9,0.701,1.0,957.22,0.15,1,2019-07-25 16:19:26.000,219,2019-07-25 16:35:22.321,0.25,-90,-30,-90,-150,1
7502,123,0,964.997,0,60,1,0.25,2,3,0.0,1.0,1,48.0,20.0,3,0.7759999999999999,0.0,965.392,0.15,1,2019-07-25 16:19:26.000,219,2019-07-25 16:35:30.997,0.25,90,150,90,30,1
7551,62,0,399.907,0,30,1,0.25,2,9,0.0,1.0,8,48.0,20.0,9,0.826,1.0,400.931,0.15,1,2019-07-26 09:14:13.000,266,2019-07-26 09:20:52.907,0.25,-90,-60,-90,-120,1
7552,63,0,408.934,0,30,1,0.25,2,9,0.0,1.0,8,48.0,20.0,9,0.763,1.0,410.291,0.15,1,2019-07-26 09:14:13.000,266,2019-07-26 09:21:01.934,0.25,-90,-60,-90,-120,1
7554,65,0,422.202,0,30,1,0.25,2,9,0.0,1.0,8,48.0,20.0,9,0.701,0.0,423.337,0.0,0,2019-07-26 09:14:13.000,266,2019-07-26 09:21:15.202,0.25,90,-60,-90,60,1
7555,68,0,441.577,0,30,1,0.25,2,3,0.0,1.0,2,48.0,20.0,3,0.763,0.0,442.223,0.15,1,2019-07-26 09:14:13.000,266,2019-07-26 09:21:34.577,0.25,90,120,90,60,1
7556,69,0,445.698,0,30,1,0.25,2,3,0.0,1.0,2,48.0,20.0,3,0.701,0.0,446.503,0.15,1,2019-07-26 09:14:13.000,266,2019-07-26 09:21:38.698,0.25,90,120,90,60,1
7557,70,0,454.149,0,30,1,0.25,2,3,0.0,1.0,2,48.0,20.0,3,0.951,0.0,454.93,0.15,1,2019-07-26 09:14:13.000,266,2019-07-26 09:21:47.149,0.25,90,120,90,60,1
7558,71,0,460.747,0,30,1,0.25,2,9,0.0,1.0,8,48.0,20.0,9,0.701,1.0,461.344,0.15,1,2019-07-26 09:14:13.000,266,2019-07-26 09:21:53.747,0.25,-90,-60,-90,-120,1
7560,73,0,469.199,0,30,1,0.25,2,9,0.0,1.0,8,48.0,20.0,9,0.888,1.0,470.223,0.15,1,2019-07-26 09:14:13.000,266,2019-07-26 09:22:02.199,0.25,-90,-60,-90,-120,1
7561,74,0,475.847,0,30,1,0.25,2,3,0.0,1.0,2,48.0,20.0,3,0.951,0.0,476.427,0.15,1,2019-07-26 09:14:13.000,266,2019-07-26 09:22:08.847,0.25,90,120,90,60,1
7562,75,0,481.023,0,30,1,0.25,2,3,0.0,1.0,2,48.0,20.0,3,0.763,1.0,481.515,0.0,0,2019-07-26 09:14:13.000,266,2019-07-26 09:22:14.023,0.25,-90,120,90,-120,1
7756,88,0,512.785,0,0,1,0.25,2,3,0.0,1.0,3,48.0,20.0,3,0.701,0.0,513.694,0.15,1,2019-07-29 14:54:51.000,331,2019-07-29 15:03:23.785,0.25,90,90,90,90,1
7758,90,0,530.342,1,0,1,0.25,2,9,0.0,1.0,9,48.0,20.0,9,0.826,1.0,534.698,0.15,1,2019-07-29 14:54:51.000,331,2019-07-29 15:03:41.342,0.25,-90,-90,-90,-90,1
7759,91,0,537.48,0,0,1,0.25,2,3,0.0,1.0,3,48.0,20.0,3,0.888,0.0,538.453,0.15,1,2019-07-29 14:54:51.000,331,2019-07-29 15:03:48.480,0.25,90,90,90,90,1
7761,93,0,552.5419999999998,0,0,1,0.25,2,3,0.0,1.0,3,48.0,20.0,3,0.701,0.0,553.77,0.15,1,2019-07-29 14:54:51.000,331,2019-07-29 15:04:03.542,0.25,90,90,90,90,1
7762,94,0,559.087,1,0,1,0.25,2,9,0.0,1.0,9,48.0,20.0,9,0.951,1.0,562.795,0.15,1,2019-07-29 14:54:51.000,331,2019-07-29 15:04:10.087,0.25,-90,-90,-90,-90,1
7763,95,0,565.643,0,0,1,0.25,2,9,0.0,1.0,9,48.0,20.0,9,0.763,1.0,567.231,0.15,1,2019-07-29 14:54:51.000,331,2019-07-29 15:04:16.643,0.25,-90,-90,-90,-90,1
7764,96,0,570.905,0,0,1,0.25,2,3,0.0,1.0,3,48.0,20.0,3,0.826,0.0,571.988,0.15,1,2019-07-29 14:54:51.000,331,2019-07-29 15:04:21.905,0.25,90,90,90,90,1
7765,97,0,576.57,0,0,1,0.25,2,3,0.0,1.0,3,48.0,20.0,3,0.951,0.0,577.719,0.15,1,2019-07-29 14:54:51.000,331,2019-07-29 15:04:27.570,0.25,90,90,90,90,1
7766,98,0,583.085,0,0,1,0.25,2,3,0.0,1.0,3,48.0,20.0,3,0.888,0.0,584.279,0.15,1,2019-07-29 14:54:51.000,331,2019-07-29 15:04:34.085,0.25,90,90,90,90,1
7768,100,0,592.621,0,0,1,0.25,2,3,0.0,1.0,3,48.0,20.0,3,0.763,0.0,593.7040000000002,0.15,1,2019-07-29 14:54:51.000,331,2019-07-29 15:04:43.621,0.25,90,90,90,90,1
8045,132,0,738.2489999999998,0,-90,1,0.25,2,3,0.0,1.0,6,48.0,20.0,3,0.888,0.0,739.263,0.15,1,2019-08-02 10:11:36.000,286,2019-08-02 10:23:54.249,0.25,90,0,90,-180,1
8046,133,0,743.2360000000001,0,-90,1,0.25,2,3,0.0,1.0,6,48.0,20.0,3,0.951,0.0,743.64,0.15,1,2019-08-02 10:11:36.000,286,2019-08-02 10:23:59.236,0.25,90,0,90,-180,1
8047,134,0,746.812,0,-90,1,0.25,2,9,0.0,1.0,12,48.0,20.0,9,0.763,0.0,748.303,0.0,0,2019-08-02 10:11:36.000,286,2019-08-02 10:24:02.812,0.25,90,-180,-90,-180,1
8048,136,0,754.275,0,-90,1,0.25,2,9,0.0,1.0,12,48.0,20.0,9,0.826,1.0,755.1189999999998,0.15,1,2019-08-02 10:11:36.000,286,2019-08-02 10:24:10.275,0.25,-90,-180,-90,0,1
8049,137,0,759.961,1,-90,1,0.25,2,9,0.0,1.0,12,48.0,20.0,9,0.763,1.0,761.135,0.15,1,2019-08-02 10:11:36.000,286,2019-08-02 10:24:15.961,0.25,-90,-180,-90,0,1
8050,138,0,765.6469999999998,0,-90,1,0.25,2,9,0.0,1.0,12,48.0,20.0,9,0.888,1.0,768.367,0.15,1,2019-08-02 10:11:36.000,286,2019-08-02 10:24:21.647,0.25,-90,-180,-90,0,1
8051,139,0,771.8910000000002,0,-90,1,0.25,2,3,0.0,1.0,6,48.0,20.0,3,0.701,0.0,771.959,0.15,1,2019-08-02 10:11:36.000,286,2019-08-02 10:24:27.891,0.25,90,0,90,-180,1
8053,141,0,781.21,0,-90,1,0.25,2,3,0.0,1.0,6,48.0,20.0,3,0.888,0.0,781.453,0.15,1,2019-08-02 10:11:36.000,286,2019-08-02 10:24:37.210,0.25,90,0,90,-180,1
8054,142,0,787.383,1,-90,1,0.25,2,9,0.0,1.0,12,48.0,20.0,9,0.763,0.0,788.408,0.0,0,2019-08-02 10:11:36.000,286,2019-08-02 10:24:43.383,0.25,90,-180,-90,-180,1
8055,144,0,803.1469999999998,0,-90,1,0.25,2,9,0.0,1.0,12,48.0,20.0,9,0.826,0.0,804.082,0.0,0,2019-08-02 10:11:36.000,286,2019-08-02 10:24:59.147,0.25,90,-180,-90,-180,1
8127,83,0,490.616,0,-30,1,0.25,2,9,0.0,1.0,10,48.0,20.0,9,0.826,1.0,491.629,0.15,1,2019-08-02 15:38:59.000,238,2019-08-02 15:47:09.616,0.25,-90,-120,-90,-60,1
8128,84,0,496.834,0,-30,1,0.25,2,3,0.0,1.0,4,48.0,20.0,3,0.763,0.0,497.571,0.15,1,2019-08-02 15:38:59.000,238,2019-08-02 15:47:15.834,0.25,90,60,90,120,1
8130,86,0,504.817,0,-30,1,0.25,2,9,0.0,1.0,10,48.0,20.0,9,0.826,0.0,505.464,0.0,0,2019-08-02 15:38:59.000,238,2019-08-02 15:47:23.817,0.25,90,-120,-90,120,1
8131,88,0,512.432,0,-30,1,0.25,2,3,0.0,1.0,4,48.0,20.0,3,0.888,0.0,513.175,0.15,1,2019-08-02 15:38:59.000,238,2019-08-02 15:47:31.432,0.25,90,60,90,120,1
8132,89,0,517.984,1,-30,1,0.25,2,9,0.0,1.0,10,48.0,20.0,9,0.763,0.0,521.462,0.0,0,2019-08-02 15:38:59.000,238,2019-08-02 15:47:36.984,0.25,90,-120,-90,120,1
8133,91,0,528.378,0,-30,1,0.25,2,9,0.0,1.0,10,48.0,20.0,9,0.826,1.0,530.085,0.15,1,2019-08-02 15:38:59.000,238,2019-08-02 15:47:47.378,0.25,-90,-120,-90,-60,1
8135,93,0,537.687,0,-30,1,0.25,2,9,0.0,1.0,10,48.0,20.0,9,0.763,0.0,538.471,0.0,0,2019-08-02 15:38:59.000,238,2019-08-02 15:47:56.687,0.25,90,-120,-90,120,1
8136,95,0,544.438,0,-30,1,0.25,2,3,0.0,1.0,4,48.0,20.0,3,0.951,0.0,545.2719999999998,0.15,1,2019-08-02 15:38:59.000,238,2019-08-02 15:48:03.438,0.25,90,60,90,120,1
8137,96,0,548.752,0,-30,1,0.25,2,9,0.0,1.0,10,48.0,20.0,9,0.826,0.0,549.788,0.0,0,2019-08-02 15:38:59.000,238,2019-08-02 15:48:07.752,0.25,90,-120,-90,120,1
8138,98,0,557.572,0,-30,1,0.25,2,9,0.0,1.0,10,48.0,20.0,9,0.951,0.0,558.217,0.0,0,2019-08-02 15:38:59.000,238,2019-08-02 15:48:16.572,0.25,90,-120,-90,120,1
8293,68,0,367.669,0,-120,1,0.25,2,9,0.0,1.0,1,48.0,20.0,9,0.701,0.0,369.182,0.0,0,2019-08-06 09:07:02.000,234,2019-08-06 09:13:09.669,0.25,90,150,-90,-150,1
8294,71,0,382.978,1,-120,1,0.25,2,3,0.0,1.0,7,48.0,20.0,3,0.888,0.0,383.916,0.15,1,2019-08-06 09:07:02.000,234,2019-08-06 09:13:24.978,0.25,90,-30,90,-150,1
8295,72,0,387.091,1,-120,1,0.25,2,9,0.0,1.0,1,48.0,20.0,9,0.826,0.0,387.754,0.0,0,2019-08-06 09:07:02.000,234,2019-08-06 09:13:29.091,0.25,90,150,-90,-150,1
8296,74,0,395.453,0,-120,1,0.25,2,3,0.0,1.0,7,48.0,20.0,3,0.951,0.0,395.513,0.15,1,2019-08-06 09:07:02.000,234,2019-08-06 09:13:37.453,0.25,90,-30,90,-150,1
8297,75,0,401.538,0,-120,1,0.25,2,3,0.0,1.0,7,48.0,20.0,3,0.701,0.0,402.462,0.15,1,2019-08-06 09:07:02.000,234,2019-08-06 09:13:43.538,0.25,90,-30,90,-150,1
8298,76,0,406.0630000000001,0,-120,1,0.25,2,3,0.0,1.0,7,48.0,20.0,3,0.888,0.0,406.825,0.15,1,2019-08-06 09:07:02.000,234,2019-08-06 09:13:48.063,0.25,90,-30,90,-150,1
8299,77,0,411.153,0,-120,1,0.25,2,9,0.0,1.0,1,48.0,20.0,9,0.951,0.0,412.391,0.0,0,2019-08-06 09:07:02.000,234,2019-08-06 09:13:53.153,0.25,90,150,-90,-150,1
8300,80,0,457.451,0,-120,1,0.25,2,9,0.0,1.0,1,48.0,20.0,9,0.826,0.0,458.274,0.0,0,2019-08-06 09:07:02.000,234,2019-08-06 09:14:39.451,0.25,90,150,-90,-150,1
8301,82,0,466.594,0,-120,1,0.25,2,9,0.0,1.0,1,48.0,20.0,9,0.888,0.0,467.418,0.0,0,2019-08-06 09:07:02.000,234,2019-08-06 09:14:48.594,0.25,90,150,-90,-150,1
8303,85,0,484.466,0,-120,1,0.25,2,9,0.0,1.0,1,48.0,20.0,9,0.826,0.0,485.44,0.0,0,2019-08-06 09:07:02.000,234,2019-08-06 09:15:06.466,0.25,90,150,-90,-150,1
8541,189,0,1231.475,0,-150,1,0.25,2,3,0.0,1.0,8,48.0,20.0,3,0.888,0.0,1232.531,0.15,1,2019-08-07 09:36:40.000,306,2019-08-07 09:57:11.475,0.25,90,-60,90,-120,1
8542,190,0,1235.72,0,-150,1,0.25,2,9,0.0,1.0,2,48.0,20.0,9,0.701,1.0,1237.17,0.15,1,2019-08-07 09:36:40.000,306,2019-08-07 09:57:15.720,0.25,-90,120,-90,60,1
8544,192,0,1244.636,0,-150,1,0.25,2,3,0.0,1.0,8,48.0,20.0,3,0.701,0.0,1246.478,0.15,1,2019-08-07 09:36:40.000,306,2019-08-07 09:57:24.636,0.25,90,-60,90,-120,1
8545,193,0,1251.095,0,-150,1,0.25,2,9,0.0,1.0,2,48.0,20.0,9,0.763,1.0,1252.613,0.15,1,2019-08-07 09:36:40.000,306,2019-08-07 09:57:31.095,0.25,-90,120,-90,60,1
8546,194,0,1256.654,0,-150,1,0.25,2,9,0.0,1.0,2,48.0,20.0,9,0.826,0.0,1257.971,0.0,0,2019-08-07 09:36:40.000,306,2019-08-07 09:57:36.654,0.25,90,120,-90,-120,1
8548,198,0,1279.973,0,-150,1,0.25,2,3,0.0,1.0,8,48.0,20.0,3,0.701,0.0,1281.164,0.15,1,2019-08-07 09:36:40.000,306,2019-08-07 09:57:59.973,0.25,90,-60,90,-120,1
8549,199,0,1286.609,0,-150,1,0.25,2,3,0.0,1.0,8,48.0,20.0,3,0.951,0.0,1286.925,0.15,1,2019-08-07 09:36:40.000,306,2019-08-07 09:58:06.609,0.25,90,-60,90,-120,1
8550,200,0,1290.328,0,-150,1,0.25,2,3,0.0,1.0,8,48.0,20.0,3,0.763,0.0,1291.861,0.15,1,2019-08-07 09:36:40.000,306,2019-08-07 09:58:10.328,0.25,90,-60,90,-120,1
8551,201,0,1295.193,0,-150,1,0.25,2,9,0.0,1.0,2,48.0,20.0,9,0.701,0.0,1296.741,0.0,0,2019-08-07 09:36:40.000,306,2019-08-07 09:58:15.193,0.25,90,120,-90,-120,1
8552,203,0,1305.535,0,-150,1,0.25,2,3,0.0,1.0,8,48.0,20.0,3,0.763,1.0,1303.64,0.0,0,2019-08-07 09:36:40.000,306,2019-08-07 09:58:25.535,0.25,-90,-60,90,60,1
8712,130,0,729.378,0,120,1,0.25,2,3,0.0,1.0,11,48.0,20.0,3,0.951,0.0,730.2489999999998,0.15,1,2019-08-08 09:14:16.000,325,2019-08-08 09:26:25.378,0.25,90,-150,90,-30,1
8714,132,0,738.4810000000001,0,120,1,0.25,2,3,0.0,1.0,11,48.0,20.0,3,0.826,0.0,739.5089999999999,0.15,1,2019-08-08 09:14:16.000,325,2019-08-08 09:26:34.481,0.25,90,-150,90,-30,1
8715,133,0,743.303,1,120,1,0.25,2,3,0.0,1.0,11,48.0,20.0,3,0.763,0.0,746.8739999999998,0.15,1,2019-08-08 09:14:16.000,325,2019-08-08 09:26:39.303,0.25,90,-150,90,-30,1
8716,134,0,750.2280000000002,0,120,1,0.25,2,3,0.0,1.0,11,48.0,20.0,3,0.701,0.0,751.248,0.15,1,2019-08-08 09:14:16.000,325,2019-08-08 09:26:46.228,0.25,90,-150,90,-30,1
8717,135,0,754.8810000000002,0,120,1,0.25,2,9,0.0,1.0,5,48.0,20.0,9,0.951,0.0,756.05,0.0,0,2019-08-08 09:14:16.000,325,2019-08-08 09:26:50.881,0.25,90,30,-90,-30,1
8719,138,0,766.503,0,120,1,0.25,2,3,0.0,1.0,11,48.0,20.0,3,0.826,0.0,767.238,0.15,1,2019-08-08 09:14:16.000,325,2019-08-08 09:27:02.503,0.25,90,-150,90,-30,1
8720,139,0,770.632,0,120,1,0.25,2,3,0.0,1.0,11,48.0,20.0,3,0.763,0.0,772.13,0.15,1,2019-08-08 09:14:16.000,325,2019-08-08 09:27:06.632,0.25,90,-150,90,-30,1
8721,140,0,781.5930000000002,0,120,1,0.25,2,3,0.0,1.0,11,48.0,20.0,3,0.888,0.0,783.408,0.15,1,2019-08-08 09:14:16.000,325,2019-08-08 09:27:17.593,0.25,90,-150,90,-30,1
8722,141,0,786.706,0,120,1,0.25,2,9,0.0,1.0,5,48.0,20.0,9,0.826,0.0,787.908,0.0,0,2019-08-08 09:14:16.000,325,2019-08-08 09:27:22.706,0.25,90,30,-90,-30,1
8723,143,0,793.6439999999999,0,120,1,0.25,2,9,0.0,1.0,5,48.0,20.0,9,0.763,1.0,794.318,0.15,1,2019-08-08 09:14:16.000,325,2019-08-08 09:27:29.644,0.25,-90,30,-90,150,1
8902,87,0,591.852,0,30,1,0.25,2,9,0.0,1.0,8,48.0,20.0,9,0.951,1.0,592.927,0.15,1,2019-08-09 09:20:30.000,260,2019-08-09 09:30:21.852,0.25,-90,-60,-90,-120,1
8904,89,0,601.688,1,30,1,0.25,2,9,0.0,1.0,8,48.0,20.0,9,0.826,1.0,605.155,0.15,1,2019-08-09 09:20:30.000,260,2019-08-09 09:30:31.688,0.25,-90,-60,-90,-120,1
8905,90,0,607.748,0,30,1,0.25,2,3,0.0,1.0,2,48.0,20.0,3,0.888,0.0,608.761,0.15,1,2019-08-09 09:20:30.000,260,2019-08-09 09:30:37.748,0.25,90,120,90,60,1
8906,91,0,612.0880000000002,0,30,1,0.25,2,9,0.0,1.0,8,48.0,20.0,9,0.951,0.0,613.205,0.0,0,2019-08-09 09:20:30.000,260,2019-08-09 09:30:42.088,0.25,90,-60,-90,60,1
8907,93,0,623.149,0,30,1,0.25,2,3,0.0,1.0,2,48.0,20.0,3,0.888,0.0,624.367,0.15,1,2019-08-09 09:20:30.000,260,2019-08-09 09:30:53.149,0.25,90,120,90,60,1
8908,94,0,627.198,0,30,1,0.25,2,3,0.0,1.0,2,48.0,20.0,3,0.763,1.0,628.564,0.0,0,2019-08-09 09:20:30.000,260,2019-08-09 09:30:57.198,0.25,-90,120,90,-120,1
8909,96,0,638.387,0,30,1,0.25,2,3,0.0,1.0,2,48.0,20.0,3,0.951,0.0,638.694,0.15,1,2019-08-09 09:20:30.000,260,2019-08-09 09:31:08.387,0.25,90,120,90,60,1
8910,97,0,641.965,0,30,1,0.25,2,3,0.0,1.0,2,48.0,20.0,3,0.826,0.0,643.2040000000002,0.15,1,2019-08-09 09:20:30.000,260,2019-08-09 09:31:11.965,0.25,90,120,90,60,1
8911,98,0,648.0369999999998,0,30,1,0.25,2,3,0.0,1.0,2,48.0,20.0,3,0.763,0.0,648.955,0.15,1,2019-08-09 09:20:30.000,260,2019-08-09 09:31:18.037,0.25,90,120,90,60,1
8912,99,0,651.6619999999998,0,30,1,0.25,2,3,0.0,1.0,2,48.0,20.0,3,0.888,0.0,652.404,0.15,1,2019-08-09 09:20:30.000,260,2019-08-09 09:31:21.662,0.25,90,120,90,60,1
8962,63,0,365.826,0,-60,1,0.25,2,3,0.0,1.0,5,48.0,20.0,3,0.951,0.0,366.948,0.15,1,2019-08-09 14:45:54.000,272,2019-08-09 14:51:59.826,0.25,90,30,90,150,1
8963,64,0,369.91,1,-60,1,0.25,2,3,0.0,1.0,5,48.0,20.0,3,0.826,0.0,373.374,0.15,1,2019-08-09 14:45:54.000,272,2019-08-09 14:52:03.910,0.25,90,30,90,150,1
8964,65,0,377.80300000000005,0,-60,1,0.25,2,3,0.0,1.0,5,48.0,20.0,3,0.888,0.0,378.802,0.15,1,2019-08-09 14:45:54.000,272,2019-08-09 14:52:11.803,0.25,90,30,90,150,1
8965,66,0,383.207,0,-60,1,0.25,2,3,0.0,1.0,5,48.0,20.0,3,0.763,0.0,384.672,0.15,1,2019-08-09 14:45:54.000,272,2019-08-09 14:52:17.207,0.25,90,30,90,150,1
8966,67,0,397.681,0,-60,1,0.25,2,9,0.0,1.0,11,48.0,20.0,9,0.951,1.0,398.103,0.15,1,2019-08-09 14:45:54.000,272,2019-08-09 14:52:31.681,0.25,-90,-150,-90,-30,1
8967,68,0,401.242,0,-60,1,0.25,2,3,0.0,1.0,5,48.0,20.0,3,0.701,0.0,402.115,0.15,1,2019-08-09 14:45:54.000,272,2019-08-09 14:52:35.242,0.25,90,30,90,150,1
8969,70,0,413.075,0,-60,1,0.25,2,9,0.0,1.0,11,48.0,20.0,9,0.888,1.0,414.097,0.15,1,2019-08-09 14:45:54.000,272,2019-08-09 14:52:47.075,0.25,-90,-150,-90,-30,1
8971,72,0,425.134,0,-60,1,0.25,2,9,0.0,1.0,11,48.0,20.0,9,0.888,1.0,420.774,0.15,1,2019-08-09 14:45:54.000,272,2019-08-09 14:52:59.134,0.25,-90,-150,-90,-30,1
8972,73,0,431.99300000000005,0,-60,1,0.25,2,9,0.0,1.0,11,48.0,20.0,9,0.701,1.0,430.696,0.15,1,2019-08-09 14:45:54.000,272,2019-08-09 14:53:05.993,0.25,-90,-150,-90,-30,1
8973,74,0,434.489,0,-60,1,0.25,2,3,0.0,1.0,5,48.0,20.0,3,0.826,1.0,430.696,0.0,0,2019-08-09 14:45:54.000,272,2019-08-09 14:53:08.489,0.25,-90,30,90,-30,1
9192,86,0,477.241,0,180,1,0.25,2,9,0.0,1.0,3,48.0,20.0,9,0.701,1.0,478.835,0.15,1,2019-08-13 08:08:03.000,252,2019-08-13 08:16:00.241,0.25,-90,90,-90,90,1
9193,87,0,482.324,0,180,1,0.25,2,9,0.0,1.0,3,48.0,20.0,9,0.888,1.0,484.35,0.15,1,2019-08-13 08:08:03.000,252,2019-08-13 08:16:05.324,0.25,-90,90,-90,90,1
9194,88,0,489.459,0,180,1,0.25,2,9,0.0,1.0,3,48.0,20.0,9,0.951,0.0,490.4980000000001,0.0,0,2019-08-13 08:08:03.000,252,2019-08-13 08:16:12.459,0.25,90,90,-90,-90,1
9196,92,0,510.692,0,180,1,0.25,2,9,0.0,1.0,3,48.0,20.0,9,0.701,1.0,511.532,0.15,1,2019-08-13 08:08:03.000,252,2019-08-13 08:16:33.692,0.25,-90,90,-90,90,1
9197,93,0,517.6759999999998,0,180,1,0.25,2,9,0.0,1.0,3,48.0,20.0,9,0.888,0.0,518.766,0.0,0,2019-08-13 08:08:03.000,252,2019-08-13 08:16:40.676,0.25,90,90,-90,-90,1
9198,95,0,524.371,0,180,1,0.25,2,3,0.0,1.0,9,48.0,20.0,3,0.826,0.0,525.54,0.15,1,2019-08-13 08:08:03.000,252,2019-08-13 08:16:47.371,0.25,90,-90,90,-90,1
9199,96,0,528.589,0,180,1,0.25,2,9,0.0,1.0,3,48.0,20.0,9,0.888,1.0,529.781,0.15,1,2019-08-13 08:08:03.000,252,2019-08-13 08:16:51.589,0.25,-90,90,-90,90,1
9200,97,0,532.981,0,180,1,0.25,2,3,0.0,1.0,9,48.0,20.0,3,0.763,0.0,533.555,0.15,1,2019-08-13 08:08:03.000,252,2019-08-13 08:16:55.981,0.25,90,-90,90,-90,1
9201,98,0,536.836,0,180,1,0.25,2,9,0.0,1.0,3,48.0,20.0,9,0.826,0.0,538.245,0.0,0,2019-08-13 08:08:03.000,252,2019-08-13 08:16:59.836,0.25,90,90,-90,-90,1
9202,100,0,543.96,0,180,1,0.25,2,3,0.0,1.0,9,48.0,20.0,3,0.701,0.0,545.337,0.15,1,2019-08-13 08:08:03.000,252,2019-08-13 08:17:06.960,0.25,90,-90,90,-90,1
9407,121,0,648.3430000000002,1,-150,1,0.25,2,9,0.0,1.0,2,48.0,20.0,9,0.763,0.0,651.882,0.0,0,2019-08-14 08:59:27.000,309,2019-08-14 09:10:15.343,0.25,90,120,-90,-120,1
9409,124,0,663.738,0,-150,1,0.25,2,3,0.0,1.0,8,48.0,20.0,3,0.826,0.0,664.83,0.15,1,2019-08-14 08:59:27.000,309,2019-08-14 09:10:30.738,0.25,90,-60,90,-120,1
9410,125,0,667.7810000000002,1,-150,1,0.25,2,3,0.0,1.0,8,48.0,20.0,3,0.701,0.0,671.9580000000002,0.15,1,2019-08-14 08:59:27.000,309,2019-08-14 09:10:34.781,0.25,90,-60,90,-120,1
9411,126,0,675.0830000000002,0,-150,1,0.25,2,3,0.0,1.0,8,48.0,20.0,3,0.951,0.0,676.88,0.15,1,2019-08-14 08:59:27.000,309,2019-08-14 09:10:42.083,0.25,90,-60,90,-120,1
9412,127,0,679.565,0,-150,1,0.25,2,9,0.0,1.0,2,48.0,20.0,9,0.763,0.0,681.2280000000002,0.0,0,2019-08-14 08:59:27.000,309,2019-08-14 09:10:46.565,0.25,90,120,-90,-120,1
9414,130,0,691.081,0,-150,1,0.25,2,3,0.0,1.0,8,48.0,20.0,3,0.888,0.0,691.7330000000002,0.15,1,2019-08-14 08:59:27.000,309,2019-08-14 09:10:58.081,0.25,90,-60,90,-120,1
9415,131,0,694.451,0,-150,1,0.25,2,9,0.0,1.0,2,48.0,20.0,9,0.826,1.0,695.987,0.15,1,2019-08-14 08:59:27.000,309,2019-08-14 09:11:01.451,0.25,-90,120,-90,60,1
9416,132,0,700.665,0,-150,1,0.25,2,9,0.0,1.0,2,48.0,20.0,9,0.701,1.0,701.732,0.15,1,2019-08-14 08:59:27.000,309,2019-08-14 09:11:07.665,0.25,-90,120,-90,60,1
9417,133,0,705.727,0,-150,1,0.25,2,9,0.0,1.0,2,48.0,20.0,9,0.763,1.0,706.61,0.15,1,2019-08-14 08:59:27.000,309,2019-08-14 09:11:12.727,0.25,-90,120,-90,60,1
9418,134,0,710.64,0,-150,1,0.25,2,9,0.0,1.0,2,48.0,20.0,9,0.888,1.0,711.418,0.15,1,2019-08-14 08:59:27.000,309,2019-08-14 09:11:17.640,0.25,-90,120,-90,60,1
9583,81,0,421.615,0,-90,1,0.25,2,3,0.0,1.0,6,48.0,20.0,3,0.763,0.0,423.187,0.15,1,2019-08-15 08:42:40.000,233,2019-08-15 08:49:41.615,0.25,90,0,90,-180,1
9584,82,0,426.216,0,-90,1,0.25,2,3,0.0,1.0,6,48.0,20.0,3,0.701,0.0,427.127,0.15,1,2019-08-15 08:42:40.000,233,2019-08-15 08:49:46.216,0.25,90,0,90,-180,1
9585,83,0,430.322,0,-90,1,0.25,2,9,0.0,1.0,12,48.0,20.0,9,0.888,0.0,431.932,0.0,0,2019-08-15 08:42:40.000,233,2019-08-15 08:49:50.322,0.25,90,-180,-90,-180,1
9586,86,0,447.836,0,-90,1,0.25,2,3,0.0,1.0,6,48.0,20.0,3,0.826,0.0,448.4380000000001,0.15,1,2019-08-15 08:42:40.000,233,2019-08-15 08:50:07.836,0.25,90,0,90,-180,1
9587,87,0,451.918,0,-90,1,0.25,2,9,0.0,1.0,12,48.0,20.0,9,0.763,0.0,453.246,0.0,0,2019-08-15 08:42:40.000,233,2019-08-15 08:50:11.918,0.25,90,-180,-90,-180,1
9588,89,0,458.831,0,-90,1,0.25,2,3,0.0,1.0,6,48.0,20.0,3,0.951,0.0,460.212,0.15,1,2019-08-15 08:42:40.000,233,2019-08-15 08:50:18.831,0.25,90,0,90,-180,1
9589,90,0,624.528,0,-90,1,0.25,2,9,0.0,1.0,12,48.0,20.0,9,0.701,1.0,625.111,0.15,1,2019-08-15 08:42:40.000,233,2019-08-15 08:53:04.528,0.25,-90,-180,-90,0,1
9590,91,0,628.159,0,-90,1,0.25,2,3,0.0,1.0,6,48.0,20.0,3,0.826,0.0,629.274,0.15,1,2019-08-15 08:42:40.000,233,2019-08-15 08:53:08.159,0.25,90,0,90,-180,1
9591,92,0,632.179,0,-90,1,0.25,2,3,0.0,1.0,6,48.0,20.0,3,0.763,1.0,633.237,0.0,0,2019-08-15 08:42:40.000,233,2019-08-15 08:53:12.179,0.25,-90,0,90,0,1
9592,94,0,637.884,0,-90,1,0.25,2,3,0.0,1.0,6,48.0,20.0,3,0.888,0.0,638.717,0.15,1,2019-08-15 08:42:40.000,233,2019-08-15 08:53:17.884,0.25,90,0,90,-180,1
9673,100,0,567.927,0,180,1,0.25,2,9,0.0,1.0,3,48.0,20.0,9,0.888,0.0,569.618,0.0,0,2019-08-15 14:27:01.000,264,2019-08-15 14:36:28.927,0.25,90,90,-90,-90,1
9674,102,0,577.457,0,180,1,0.25,2,3,0.0,1.0,9,48.0,20.0,3,0.701,0.0,578.431,0.15,1,2019-08-15 14:27:01.000,264,2019-08-15 14:36:38.457,0.25,90,-90,90,-90,1
9675,103,0,581.599,0,180,1,0.25,2,9,0.0,1.0,3,48.0,20.0,9,0.888,0.0,582.53,0.0,0,2019-08-15 14:27:01.000,264,2019-08-15 14:36:42.599,0.25,90,90,-90,-90,1
9676,105,0,588.3290000000002,0,180,1,0.25,2,9,0.0,1.0,3,48.0,20.0,9,0.951,1.0,589.284,0.15,1,2019-08-15 14:27:01.000,264,2019-08-15 14:36:49.329,0.25,-90,90,-90,90,1
9677,106,0,593.695,0,180,1,0.25,2,3,0.0,1.0,9,48.0,20.0,3,0.701,0.0,594.619,0.15,1,2019-08-15 14:27:01.000,264,2019-08-15 14:36:54.695,0.25,90,-90,90,-90,1
9678,107,0,597.03,0,180,1,0.25,2,3,0.0,1.0,9,48.0,20.0,3,0.763,0.0,597.856,0.15,1,2019-08-15 14:27:01.000,264,2019-08-15 14:36:58.030,0.25,90,-90,90,-90,1
9679,108,0,602.2330000000002,1,180,1,0.25,2,3,0.0,1.0,9,48.0,20.0,3,0.888,0.0,606.254,0.15,1,2019-08-15 14:27:01.000,264,2019-08-15 14:37:03.233,0.25,90,-90,90,-90,1
9680,109,0,611.52,0,180,1,0.25,2,3,0.0,1.0,9,48.0,20.0,3,0.951,0.0,612.942,0.15,1,2019-08-15 14:27:01.000,264,2019-08-15 14:37:12.520,0.25,90,-90,90,-90,1
9681,110,0,615.83,0,180,1,0.25,2,9,0.0,1.0,3,48.0,20.0,9,0.826,1.0,616.932,0.15,1,2019-08-15 14:27:01.000,264,2019-08-15 14:37:16.830,0.25,-90,90,-90,90,1
9682,111,0,621.058,0,180,1,0.25,2,9,0.0,1.0,3,48.0,20.0,9,0.951,1.0,623.0790000000002,0.15,1,2019-08-15 14:27:01.000,264,2019-08-15 14:37:22.058,0.25,-90,90,-90,90,1
9987,63,0,460.689,1,-30,1,0.25,2,3,0.0,1.0,4,48.0,20.0,3,0.951,1.0,462.466,0.0,0,2019-08-30 14:38:38.000,246,2019-08-30 14:46:18.689,0.25,-90,60,90,-60,1
9988,65,0,472.087,0,-30,1,0.25,2,9,0.0,1.0,10,48.0,20.0,9,0.888,1.0,473.965,0.15,1,2019-08-30 14:38:38.000,246,2019-08-30 14:46:30.087,0.25,-90,-120,-90,-60,1
9989,66,0,477.23,0,-30,1,0.25,2,3,0.0,1.0,4,48.0,20.0,3,0.763,0.0,478.393,0.15,1,2019-08-30 14:38:38.000,246,2019-08-30 14:46:35.230,0.25,90,60,90,120,1
9991,68,0,485.526,0,-30,1,0.25,2,3,0.0,1.0,4,48.0,20.0,3,0.826,0.0,486.42800000000005,0.15,1,2019-08-30 14:38:38.000,246,2019-08-30 14:46:43.526,0.25,90,60,90,120,1
9992,69,0,489.581,0,-30,1,0.25,2,9,0.0,1.0,10,48.0,20.0,9,0.888,0.0,490.301,0.0,0,2019-08-30 14:38:38.000,246,2019-08-30 14:46:47.581,0.25,90,-120,-90,120,1
9994,72,0,534.22,0,-30,1,0.25,2,3,0.0,1.0,4,48.0,20.0,3,0.888,0.0,535.553,0.15,1,2019-08-30 14:38:38.000,246,2019-08-30 14:47:32.220,0.25,90,60,90,120,1
9995,73,0,538.264,1,-30,1,0.25,2,9,0.0,1.0,10,48.0,20.0,9,0.826,1.0,539.936,0.15,1,2019-08-30 14:38:38.000,246,2019-08-30 14:47:36.264,0.25,-90,-120,-90,-60,1
9996,74,0,543.84,0,-30,1,0.25,2,9,0.0,1.0,10,48.0,20.0,9,0.951,0.0,544.849,0.0,0,2019-08-30 14:38:38.000,246,2019-08-30 14:47:41.840,0.25,90,-120,-90,120,1
9997,76,0,552.611,1,-30,1,0.25,2,9,0.0,1.0,10,48.0,20.0,9,0.701,1.0,554.361,0.15,1,2019-08-30 14:38:38.000,246,2019-08-30 14:47:50.611,0.25,-90,-120,-90,-60,1
10000,79,0,568.762,0,-30,1,0.25,2,9,0.0,1.0,10,48.0,20.0,9,0.763,1.0,570.404,0.15,1,2019-08-30 14:38:38.000,246,2019-08-30 14:48:06.762,0.25,-90,-120,-90,-60,1
10023,55,0,444.361,1,0,1,0.25,2,9,0.0,1.0,9,48.0,20.0,9,0.701,1.0,446.57,0.15,1,2019-09-16 10:19:44.000,257,2019-09-16 10:27:08.361,0.25,-90,-90,-90,-90,1
10024,56,0,448.339,1,0,1,0.25,2,3,0.0,1.0,3,48.0,20.0,3,0.888,0.0,450.371,0.15,1,2019-09-16 10:19:44.000,257,2019-09-16 10:27:12.339,0.25,90,90,90,90,1
10025,57,0,452.064,1,0,1,0.25,2,3,0.0,1.0,3,48.0,20.0,3,0.951,0.0,455.739,0.15,1,2019-09-16 10:19:44.000,257,2019-09-16 10:27:16.064,0.25,90,90,90,90,1
10026,58,0,461.547,1,0,1,0.25,2,9,0.0,1.0,9,48.0,20.0,9,0.701,1.0,463.982,0.15,1,2019-09-16 10:19:44.000,257,2019-09-16 10:27:25.547,0.25,-90,-90,-90,-90,1
10027,59,0,468.07,1,0,1,0.25,2,3,0.0,1.0,3,48.0,20.0,3,0.763,0.0,471.256,0.15,1,2019-09-16 10:19:44.000,257,2019-09-16 10:27:32.070,0.25,90,90,90,90,1
10028,60,0,475.325,1,0,1,0.25,2,3,0.0,1.0,3,48.0,20.0,3,0.826,1.0,478.225,0.0,0,2019-09-16 10:19:44.000,257,2019-09-16 10:27:39.325,0.25,-90,90,90,-90,1
10029,62,0,485.608,1,0,1,0.25,2,3,0.0,1.0,3,48.0,20.0,3,0.888,0.0,487.668,0.15,1,2019-09-16 10:19:44.000,257,2019-09-16 10:27:49.608,0.25,90,90,90,90,1
10030,63,0,491.456,1,0,1,0.25,2,9,0.0,1.0,9,48.0,20.0,9,0.826,0.0,493.661,0.0,0,2019-09-16 10:19:44.000,257,2019-09-16 10:27:55.456,0.25,90,-90,-90,90,1
10031,65,0,501.413,1,0,1,0.25,2,3,0.0,1.0,3,48.0,20.0,3,0.951,0.0,502.985,0.15,1,2019-09-16 10:19:44.000,257,2019-09-16 10:28:05.413,0.25,90,90,90,90,1
10032,66,0,507.551,1,0,1,0.25,2,9,0.0,1.0,9,48.0,20.0,9,0.763,0.0,509.598,0.0,0,2019-09-16 10:19:44.000,257,2019-09-16 10:28:11.551,0.25,90,-90,-90,90,1
10174,60,0,445.268,0,60,1,0.25,2,9,0.0,1.0,7,48.0,20.0,9,0.951,1.0,445.656,0.15,1,2019-09-18 08:44:16.000,320,2019-09-18 08:51:41.268,0.25,-90,-30,-90,-150,1
10175,61,0,449.612,0,60,1,0.25,2,9,0.0,1.0,7,48.0,20.0,9,0.951,0.0,450.327,0.0,0,2019-09-18 08:44:16.000,320,2019-09-18 08:51:45.612,0.25,90,-30,-90,30,1
10176,63,0,458.445,0,60,1,0.25,2,3,0.0,1.0,1,48.0,20.0,3,0.888,1.0,458.961,0.0,0,2019-09-18 08:44:16.000,320,2019-09-18 08:51:54.445,0.25,-90,150,90,-150,1
10177,65,0,467.761,0,60,1,0.25,2,9,0.0,1.0,7,48.0,20.0,9,0.763,1.0,468.582,0.15,1,2019-09-18 08:44:16.000,320,2019-09-18 08:52:03.761,0.25,-90,-30,-90,-150,1
10178,66,0,472.18300000000005,0,60,1,0.25,2,3,0.0,1.0,1,48.0,20.0,3,0.826,0.0,473.148,0.15,1,2019-09-18 08:44:16.000,320,2019-09-18 08:52:08.183,0.25,90,150,90,30,1
10179,67,0,480.367,0,60,1,0.25,2,9,0.0,1.0,7,48.0,20.0,9,0.701,1.0,481.414,0.15,1,2019-09-18 08:44:16.000,320,2019-09-18 08:52:16.367,0.25,-90,-30,-90,-150,1
10180,68,0,488.539,0,60,1,0.25,2,3,0.0,1.0,1,48.0,20.0,3,0.888,0.0,489.49300000000005,0.15,1,2019-09-18 08:44:16.000,320,2019-09-18 08:52:24.539,0.25,90,150,90,30,1
10181,69,0,495.522,0,60,1,0.25,2,3,0.0,1.0,1,48.0,20.0,3,0.951,0.0,496.105,0.15,1,2019-09-18 08:44:16.000,320,2019-09-18 08:52:31.522,0.25,90,150,90,30,1
10182,70,0,499.33,0,60,1,0.25,2,3,0.0,1.0,1,48.0,20.0,3,0.763,0.0,500.311,0.15,1,2019-09-18 08:44:16.000,320,2019-09-18 08:52:35.330,0.25,90,150,90,30,1
10183,71,0,506.633,0,60,1,0.25,2,3,0.0,1.0,1,48.0,20.0,3,0.826,1.0,507.23,0.0,0,2019-09-18 08:44:16.000,320,2019-09-18 08:52:42.633,0.25,-90,150,90,-150,1
10337,61,0,425.888,0,-90,1,0.25,2,9,0.0,1.0,12,48.0,20.0,9,0.826,0.0,426.615,0.0,0,2019-09-19 08:46:41.000,299,2019-09-19 08:53:46.888,0.25,90,-180,-90,-180,1
10338,63,0,433.206,1,-90,1,0.25,2,3,0.0,1.0,6,48.0,20.0,3,0.951,0.0,436.29,0.15,1,2019-09-19 08:46:41.000,299,2019-09-19 08:53:54.206,0.25,90,0,90,-180,1
10340,65,0,446.364,0,-90,1,0.25,2,3,0.0,1.0,6,48.0,20.0,3,0.763,0.0,448.165,0.15,1,2019-09-19 08:46:41.000,299,2019-09-19 08:54:07.364,0.25,90,0,90,-180,1
10341,66,0,461.299,0,-90,1,0.25,2,3,0.0,1.0,6,48.0,20.0,3,0.888,0.0,461.859,0.15,1,2019-09-19 08:46:41.000,299,2019-09-19 08:54:22.299,0.25,90,0,90,-180,1
10343,68,0,470.423,0,-90,1,0.25,2,3,0.0,1.0,6,48.0,20.0,3,0.763,0.0,471.317,0.15,1,2019-09-19 08:46:41.000,299,2019-09-19 08:54:31.423,0.25,90,0,90,-180,1
10344,69,0,473.971,0,-90,1,0.25,2,3,0.0,1.0,6,48.0,20.0,3,0.701,0.0,475.681,0.15,1,2019-09-19 08:46:41.000,299,2019-09-19 08:54:34.971,0.25,90,0,90,-180,1
10345,70,0,490.139,0,-90,1,0.25,2,3,0.0,1.0,6,48.0,20.0,3,0.826,1.0,490.88,0.0,0,2019-09-19 08:46:41.000,299,2019-09-19 08:54:51.139,0.25,-90,0,90,0,1
10347,73,0,533.2819999999998,0,-90,1,0.25,2,3,0.0,1.0,6,48.0,20.0,3,0.763,1.0,533.817,0.0,0,2019-09-19 08:46:41.000,299,2019-09-19 08:55:34.282,0.25,-90,0,90,0,1
10348,76,0,552.435,0,-90,1,0.25,2,9,0.0,1.0,12,48.0,20.0,9,0.701,1.0,553.3530000000002,0.15,1,2019-09-19 08:46:41.000,299,2019-09-19 08:55:53.435,0.25,-90,-180,-90,0,1
10349,77,0,556.669,0,-90,1,0.25,2,3,0.0,1.0,6,48.0,20.0,3,0.951,0.0,557.339,0.15,1,2019-09-19 08:46:41.000,299,2019-09-19 08:55:57.669,0.25,90,0,90,-180,1
10490,150,0,964.741,0,90,1,0.25,2,3,0.0,1.0,12,48.0,20.0,3,0.763,1.0,965.672,0.0,0,2019-09-20 09:04:43.000,328,2019-09-20 09:20:47.741,0.25,-90,-180,90,-180,1
10491,153,0,978.435,0,90,1,0.25,2,9,0.0,1.0,6,48.0,20.0,9,0.701,1.0,979.295,0.15,1,2019-09-20 09:04:43.000,328,2019-09-20 09:21:01.435,0.25,-90,0,-90,-180,1
10492,154,0,989.442,0,90,1,0.25,2,9,0.0,1.0,6,48.0,20.0,9,0.826,0.0,990.711,0.0,0,2019-09-20 09:04:43.000,328,2019-09-20 09:21:12.442,0.25,90,0,-90,0,1
10493,156,0,999.322,0,90,1,0.25,2,3,0.0,1.0,12,48.0,20.0,3,0.701,1.0,1000.693,0.0,0,2019-09-20 09:04:43.000,328,2019-09-20 09:21:22.322,0.25,-90,-180,90,-180,1
10494,158,0,1009.168,0,90,1,0.25,2,3,0.0,1.0,12,48.0,20.0,3,0.951,0.0,1010.276,0.15,1,2019-09-20 09:04:43.000,328,2019-09-20 09:21:32.168,0.25,90,-180,90,0,1
10495,159,0,1013.921,0,90,1,0.25,2,9,0.0,1.0,6,48.0,20.0,9,0.888,1.0,1014.616,0.15,1,2019-09-20 09:04:43.000,328,2019-09-20 09:21:36.921,0.25,-90,0,-90,-180,1
10496,160,0,1020.126,0,90,1,0.25,2,9,0.0,1.0,6,48.0,20.0,9,0.763,1.0,1020.931,0.15,1,2019-09-20 09:04:43.000,328,2019-09-20 09:21:43.126,0.25,-90,0,-90,-180,1
10497,161,0,1025.669,0,90,1,0.25,2,3,0.0,1.0,12,48.0,20.0,3,0.826,1.0,1026.847,0.0,0,2019-09-20 09:04:43.000,328,2019-09-20 09:21:48.669,0.25,-90,-180,90,-180,1
10498,163,0,1033.359,0,90,1,0.25,2,3,0.0,1.0,12,48.0,20.0,3,0.701,0.0,1034.313,0.15,1,2019-09-20 09:04:43.000,328,2019-09-20 09:21:56.359,0.25,90,-180,90,0,1
10499,164,0,1038.532,0,90,1,0.25,2,3,0.0,1.0,12,48.0,20.0,3,0.888,0.0,1039.052,0.15,1,2019-09-20 09:04:43.000,328,2019-09-20 09:22:01.532,0.25,90,-180,90,0,1
10641,134,0,961.233,0,0,1,0.25,2,9,0.0,1.0,9,48.0,20.0,9,0.763,0.0,961.929,0.0,0,2019-09-23 09:08:48.000,305,2019-09-23 09:24:49.233,0.25,90,-90,-90,90,1
10642,136,0,976.442,0,0,1,0.25,2,9,0.0,1.0,9,48.0,20.0,9,0.951,1.0,977.186,0.15,1,2019-09-23 09:08:48.000,305,2019-09-23 09:25:04.442,0.25,-90,-90,-90,-90,1
10643,137,0,984.29,0,0,1,0.25,2,9,0.0,1.0,9,48.0,20.0,9,0.701,1.0,984.795,0.15,1,2019-09-23 09:08:48.000,305,2019-09-23 09:25:12.290,0.25,-90,-90,-90,-90,1
10644,138,0,989.91,0,0,1,0.25,2,9,0.0,1.0,9,48.0,20.0,9,0.826,1.0,990.578,0.15,1,2019-09-23 09:08:48.000,305,2019-09-23 09:25:17.910,0.25,-90,-90,-90,-90,1
10645,139,0,996.928,0,0,1,0.25,2,3,0.0,1.0,3,48.0,20.0,3,0.763,1.0,997.623,0.0,0,2019-09-23 09:08:48.000,305,2019-09-23 09:25:24.928,0.25,-90,90,90,-90,1
10646,141,0,1005.845,0,0,1,0.25,2,9,0.0,1.0,9,48.0,20.0,9,0.763,0.0,1006.586,0.0,0,2019-09-23 09:08:48.000,305,2019-09-23 09:25:33.845,0.25,90,-90,-90,90,1
10647,143,0,1013.395,0,0,1,0.25,2,3,0.0,1.0,3,48.0,20.0,3,0.701,0.0,1014.277,0.15,1,2019-09-23 09:08:48.000,305,2019-09-23 09:25:41.395,0.25,90,90,90,90,1
10648,144,0,1018.41,0,0,1,0.25,2,3,0.0,1.0,3,48.0,20.0,3,0.888,0.0,1018.687,0.15,1,2019-09-23 09:08:48.000,305,2019-09-23 09:25:46.410,0.25,90,90,90,90,1
10649,145,0,1022.81,0,0,1,0.25,2,3,0.0,1.0,3,48.0,20.0,3,0.826,0.0,1023.409,0.15,1,2019-09-23 09:08:48.000,305,2019-09-23 09:25:50.810,0.25,90,90,90,90,1
10650,146,0,1027.5410000000004,0,0,1,0.25,2,9,0.0,1.0,9,48.0,20.0,9,0.826,0.0,1028.099,0.0,0,2019-09-23 09:08:48.000,305,2019-09-23 09:25:55.541,0.25,90,-90,-90,90,1
10865,153,0,992.668,0,-120,1,0.25,2,9,0.0,1.0,1,48.0,20.0,9,0.888,1.0,993.017,0.15,1,2019-09-24 10:08:35.000,213,2019-09-24 10:25:07.668,0.25,-90,150,-90,30,1
10866,154,0,999.787,0,-120,1,0.25,2,3,0.0,1.0,7,48.0,20.0,3,0.701,1.0,1000.583,0.0,0,2019-09-24 10:08:35.000,213,2019-09-24 10:25:14.787,0.25,-90,-30,90,30,1
10867,156,0,1008.482,0,-120,1,0.25,2,9,0.0,1.0,1,48.0,20.0,9,0.826,1.0,1008.962,0.15,1,2019-09-24 10:08:35.000,213,2019-09-24 10:25:23.482,0.25,-90,150,-90,30,1
10868,157,0,1017.257,0,-120,1,0.25,2,3,0.0,1.0,7,48.0,20.0,3,0.763,0.0,1017.731,0.15,1,2019-09-24 10:08:35.000,213,2019-09-24 10:25:32.257,0.25,90,-30,90,-150,1
10869,158,0,1021.428,0,-120,1,0.25,2,3,0.0,1.0,7,48.0,20.0,3,0.951,1.0,1021.873,0.0,0,2019-09-24 10:08:35.000,213,2019-09-24 10:25:36.428,0.25,-90,-30,90,30,1
10870,160,0,1029.752,0,-120,1,0.25,2,3,0.0,1.0,7,48.0,20.0,3,0.888,1.0,1030.581,0.0,0,2019-09-24 10:08:35.000,213,2019-09-24 10:25:44.752,0.25,-90,-30,90,30,1
10871,162,0,1040.546,0,-120,1,0.25,2,3,0.0,1.0,7,48.0,20.0,3,0.888,0.0,1041.124,0.15,1,2019-09-24 10:08:35.000,213,2019-09-24 10:25:55.546,0.25,90,-30,90,-150,1
10872,163,0,1044.752,0,-120,1,0.25,2,9,0.0,1.0,1,48.0,20.0,9,0.763,1.0,1045.566,0.15,1,2019-09-24 10:08:35.000,213,2019-09-24 10:25:59.752,0.25,-90,150,-90,30,1
10873,164,0,1050.0410000000004,0,-120,1,0.25,2,3,0.0,1.0,7,48.0,20.0,3,0.701,1.0,1051.626,0.0,0,2019-09-24 10:08:35.000,213,2019-09-24 10:26:05.041,0.25,-90,-30,90,30,1
10874,166,0,1061.779,0,-120,1,0.25,2,9,0.0,1.0,1,48.0,20.0,9,0.826,0.0,1062.593,0.0,0,2019-09-24 10:08:35.000,213,2019-09-24 10:26:16.779,0.25,90,150,-90,-150,1
11053,94,0,761.7689999999999,0,120,1,0.25,2,9,0.0,1.0,5,48.0,20.0,9,0.701,0.0,762.543,0.0,0,2019-09-25 09:18:09.000,215,2019-09-25 09:30:50.769,0.25,90,30,-90,-30,1
11054,96,0,770.454,0,120,1,0.25,2,9,0.0,1.0,5,48.0,20.0,9,0.951,1.0,771.0830000000002,0.15,1,2019-09-25 09:18:09.000,215,2019-09-25 09:30:59.454,0.25,-90,30,-90,150,1
11055,97,0,780.908,0,120,1,0.25,2,3,0.0,1.0,11,48.0,20.0,3,0.763,0.0,781.51,0.15,1,2019-09-25 09:18:09.000,215,2019-09-25 09:31:09.908,0.25,90,-150,90,-30,1
11056,98,0,795.784,0,120,1,0.25,2,3,0.0,1.0,11,48.0,20.0,3,0.701,0.0,796.316,0.15,1,2019-09-25 09:18:09.000,215,2019-09-25 09:31:24.784,0.25,90,-150,90,-30,1
11057,99,0,802.779,0,120,1,0.25,2,9,0.0,1.0,5,48.0,20.0,9,0.826,1.0,803.472,0.15,1,2019-09-25 09:18:09.000,215,2019-09-25 09:31:31.779,0.25,-90,30,-90,150,1
11058,100,0,808.4019999999998,0,120,1,0.25,2,3,0.0,1.0,11,48.0,20.0,3,0.888,0.0,808.823,0.15,1,2019-09-25 09:18:09.000,215,2019-09-25 09:31:37.402,0.25,90,-150,90,-30,1
11059,101,0,812.9889999999998,0,120,1,0.25,2,3,0.0,1.0,11,48.0,20.0,3,0.888,0.0,813.765,0.15,1,2019-09-25 09:18:09.000,215,2019-09-25 09:31:41.989,0.25,90,-150,90,-30,1
11060,102,0,817.29,0,120,1,0.25,2,9,0.0,1.0,5,48.0,20.0,9,0.763,0.0,817.953,0.0,0,2019-09-25 09:18:09.000,215,2019-09-25 09:31:46.290,0.25,90,30,-90,-30,1
11061,105,0,839.929,0,120,1,0.25,2,9,0.0,1.0,5,48.0,20.0,9,0.951,0.0,840.383,0.0,0,2019-09-25 09:18:09.000,215,2019-09-25 09:32:08.929,0.25,90,30,-90,-30,1
11063,108,0,867.3689999999998,0,120,1,0.25,2,3,0.0,1.0,11,48.0,20.0,3,0.763,0.0,867.918,0.15,1,2019-09-25 09:18:09.000,215,2019-09-25 09:32:36.369,0.25,90,-150,90,-30,1
11228,88,0,611.779,0,180,1,0.25,2,3,0.0,1.0,9,48.0,20.0,3,0.701,0.0,612.31,0.13,1,2019-09-26 09:24:19.000,229,2019-09-26 09:34:30.779,0.25,90,-90,90,-90,1
11229,89,0,615.941,0,180,1,0.25,2,3,0.0,1.0,9,48.0,20.0,3,0.951,0.0,616.404,0.13,1,2019-09-26 09:24:19.000,229,2019-09-26 09:34:34.941,0.25,90,-90,90,-90,1
11230,90,0,619.757,0,180,1,0.25,2,9,0.0,1.0,3,48.0,20.0,9,0.701,1.0,620.9730000000002,0.17,1,2019-09-26 09:24:19.000,229,2019-09-26 09:34:38.757,0.25,-90,90,-90,90,1
11231,91,0,627.4680000000002,0,180,1,0.25,2,9,0.0,1.0,3,48.0,20.0,9,0.763,1.0,628.497,0.17,1,2019-09-26 09:24:19.000,229,2019-09-26 09:34:46.468,0.25,-90,90,-90,90,1
11232,92,0,633.07,0,180,1,0.25,2,9,0.0,1.0,3,48.0,20.0,9,0.888,1.0,633.795,0.17,1,2019-09-26 09:24:19.000,229,2019-09-26 09:34:52.070,0.25,-90,90,-90,90,1
11233,93,0,659.368,0,180,1,0.25,2,9,0.0,1.0,3,48.0,20.0,9,0.951,0.0,660.047,0.0,0,2019-09-26 09:24:19.000,229,2019-09-26 09:35:18.368,0.25,90,90,-90,-90,1
11234,97,0,691.4789999999998,0,180,1,0.25,2,9,0.0,1.0,3,48.0,20.0,9,0.888,1.0,692.16,0.17,1,2019-09-26 09:24:19.000,229,2019-09-26 09:35:50.479,0.25,-90,90,-90,90,1
11235,98,0,697.033,0,180,1,0.25,2,9,0.0,1.0,3,48.0,20.0,9,0.763,1.0,698.073,0.17,1,2019-09-26 09:24:19.000,229,2019-09-26 09:35:56.033,0.25,-90,90,-90,90,1
11236,99,0,702.8689999999998,0,180,1,0.25,2,3,0.0,1.0,9,48.0,20.0,3,0.826,0.0,703.563,0.13,1,2019-09-26 09:24:19.000,229,2019-09-26 09:36:01.869,0.25,90,-90,90,-90,1
11237,100,0,707.492,0,180,1,0.25,2,9,0.0,1.0,3,48.0,20.0,9,0.701,1.0,707.823,0.17,1,2019-09-26 09:24:19.000,229,2019-09-26 09:36:06.492,0.25,-90,90,-90,90,1
11249,18,0,125.513,0,30,1,0.25,2,9,0.0,1.0,8,48.0,20.0,9,0.951,1.0,126.035,0.15,1,2019-09-26 14:50:47.000,230,2019-09-26 14:52:52.513,0.25,-90,-60,-90,-120,1
11250,19,0,133.46200000000002,0,30,1,0.25,2,3,0.0,1.0,2,48.0,20.0,3,0.826,1.0,134.181,0.0,0,2019-09-26 14:50:47.000,230,2019-09-26 14:53:00.462,0.25,-90,120,90,-120,1
11251,21,0,148.73,0,30,1,0.25,2,9,0.0,1.0,8,48.0,20.0,9,0.763,1.0,149.408,0.15,1,2019-09-26 14:50:47.000,230,2019-09-26 14:53:15.730,0.25,-90,-60,-90,-120,1
11252,22,0,154.797,0,30,1,0.25,2,3,0.0,1.0,2,48.0,20.0,3,0.826,0.0,155.09,0.15,1,2019-09-26 14:50:47.000,230,2019-09-26 14:53:21.797,0.25,90,120,90,60,1
11253,23,0,158.355,0,30,1,0.25,2,3,0.0,1.0,2,48.0,20.0,3,0.701,0.0,158.97899999999996,0.15,1,2019-09-26 14:50:47.000,230,2019-09-26 14:53:25.355,0.25,90,120,90,60,1
11254,24,0,164.582,0,30,1,0.25,2,3,0.0,1.0,2,48.0,20.0,3,0.888,0.0,164.75599999999997,0.15,1,2019-09-26 14:50:47.000,230,2019-09-26 14:53:31.582,0.25,90,120,90,60,1
11255,25,0,172.71200000000005,0,30,1,0.25,2,3,0.0,1.0,2,48.0,20.0,3,0.951,1.0,173.24,0.0,0,2019-09-26 14:50:47.000,230,2019-09-26 14:53:39.712,0.25,-90,120,90,-120,1
11257,28,0,198.927,0,30,1,0.25,2,3,0.0,1.0,2,48.0,20.0,3,0.888,0.0,199.294,0.15,1,2019-09-26 14:50:47.000,230,2019-09-26 14:54:05.927,0.25,90,120,90,60,1
11258,29,0,206.487,0,30,1,0.25,2,9,0.0,1.0,8,48.0,20.0,9,0.951,1.0,206.804,0.15,1,2019-09-26 14:50:47.000,230,2019-09-26 14:54:13.487,0.25,-90,-60,-90,-120,1
11259,30,0,210.582,0,30,1,0.25,2,3,0.0,1.0,8,48.0,20.0,3,0.826,1.0,210.984,0.0,0,2019-09-26 14:50:47.000,230,2019-09-26 14:54:17.582,0.25,-90,-60,-90,-120,1
11620,103,0,709.227,0,0,1,0.25,2,3,0.0,1.0,3,48.0,20.0,3,0.888,1.0,709.916,0.0,0,2019-09-30 15:29:39.000,289,2019-09-30 15:41:28.227,0.25,-90,90,90,-90,1
11621,105,0,715.4730000000002,1,0,1,0.25,2,9,0.0,1.0,9,48.0,20.0,9,0.763,1.0,718.571,0.15,1,2019-09-30 15:29:39.000,289,2019-09-30 15:41:34.473,0.25,-90,-90,-90,-90,1
11622,106,0,722.132,0,0,1,0.25,2,9,0.0,1.0,9,48.0,20.0,9,0.763,1.0,724.4630000000002,0.15,1,2019-09-30 15:29:39.000,289,2019-09-30 15:41:41.132,0.25,-90,-90,-90,-90,1
11623,107,0,728.169,0,0,1,0.25,2,3,0.0,1.0,3,48.0,20.0,3,0.951,1.0,729.1289999999998,0.0,0,2019-09-30 15:29:39.000,289,2019-09-30 15:41:47.169,0.25,-90,90,90,-90,1
11625,110,0,743.6010000000001,0,0,1,0.25,2,3,0.0,1.0,3,48.0,20.0,3,0.701,1.0,745.135,0.0,0,2019-09-30 15:29:39.000,289,2019-09-30 15:42:02.601,0.25,-90,90,90,-90,1
11626,112,0,765.1,0,0,1,0.25,2,9,0.0,1.0,9,48.0,20.0,9,0.888,0.0,765.954,0.0,0,2019-09-30 15:29:39.000,289,2019-09-30 15:42:24.100,0.25,90,-90,-90,90,1
11628,115,0,785.1519999999998,1,0,1,0.25,2,3,0.0,1.0,3,48.0,20.0,3,0.826,1.0,787.498,0.0,0,2019-09-30 15:29:39.000,289,2019-09-30 15:42:44.152,0.25,-90,90,90,-90,1
11629,117,0,905.612,1,0,1,0.25,2,9,0.0,1.0,9,48.0,20.0,9,0.763,1.0,907.734,0.15,1,2019-09-30 15:29:39.000,289,2019-09-30 15:44:44.612,0.25,-90,-90,-90,-90,1
11630,118,0,910.327,1,0,1,0.25,2,3,0.0,1.0,3,48.0,20.0,3,0.826,0.0,912.899,0.15,1,2019-09-30 15:29:39.000,289,2019-09-30 15:44:49.327,0.25,90,90,90,90,1
11631,119,0,916.21,0,0,1,0.25,2,3,0.0,1.0,3,48.0,20.0,3,0.951,0.0,917.284,0.15,1,2019-09-30 15:29:39.000,289,2019-09-30 15:44:55.210,0.25,90,90,90,90,1
11695,80,0,540.149,0,-120,1,0.25,2,3,0.0,1.0,7,48.0,20.0,3,0.826,1.0,540.862,0.0,0,2019-10-01 09:29:57.000,281,2019-10-01 09:38:57.149,0.25,-90,-30,90,30,1
11696,82,0,546.607,0,-120,1,0.25,2,3,0.0,1.0,7,48.0,20.0,3,0.826,0.0,547.4680000000002,0.15,1,2019-10-01 09:29:57.000,281,2019-10-01 09:39:03.607,0.25,90,-30,90,-150,1
11697,83,0,551.712,0,-120,1,0.25,2,3,0.0,1.0,7,48.0,20.0,3,0.701,0.0,552.936,0.15,1,2019-10-01 09:29:57.000,281,2019-10-01 09:39:08.712,0.25,90,-30,90,-150,1
11698,84,0,557.901,0,-120,1,0.25,2,9,0.0,1.0,1,48.0,20.0,9,0.888,0.0,558.479,0.0,0,2019-10-01 09:29:57.000,281,2019-10-01 09:39:14.901,0.25,90,150,-90,-150,1
11699,86,0,565.653,0,-120,1,0.25,2,9,0.0,1.0,1,48.0,20.0,9,0.951,1.0,566.2,0.15,1,2019-10-01 09:29:57.000,281,2019-10-01 09:39:22.653,0.25,-90,150,-90,30,1
11700,87,0,572.383,0,-120,1,0.25,2,3,0.0,1.0,7,48.0,20.0,3,0.826,0.0,574.12,0.15,1,2019-10-01 09:29:57.000,281,2019-10-01 09:39:29.383,0.25,90,-30,90,-150,1
11702,89,0,589.172,0,-120,1,0.25,2,3,0.0,1.0,7,48.0,20.0,3,0.763,1.0,589.697,0.0,0,2019-10-01 09:29:57.000,281,2019-10-01 09:39:46.172,0.25,-90,-30,90,30,1
11703,91,0,618.021,0,-120,1,0.25,2,3,0.0,1.0,7,48.0,20.0,3,0.701,1.0,618.707,0.0,0,2019-10-01 09:29:57.000,281,2019-10-01 09:40:15.021,0.25,-90,-30,90,30,1
11704,94,0,663.922,0,-120,1,0.25,2,9,0.0,1.0,1,48.0,20.0,9,0.888,1.0,664.316,0.15,1,2019-10-01 09:29:57.000,281,2019-10-01 09:41:00.922,0.25,-90,150,-90,30,1
11705,95,0,669.36,0,-120,1,0.25,2,9,0.0,1.0,1,48.0,20.0,9,0.826,1.0,669.597,0.15,1,2019-10-01 09:29:57.000,281,2019-10-01 09:41:06.360,0.25,-90,150,-90,30,1
11778,95,0,635.563,0,-30,1,0.25,2,9,0.0,1.0,10,48.0,20.0,9,0.701,1.0,637.31,0.13,1,2019-10-01 15:05:16.000,302,2019-10-01 15:15:51.563,0.25,-90,-120,-90,-60,1
11779,96,0,641.706,0,-30,1,0.25,2,3,0.0,1.0,4,48.0,20.0,3,0.826,0.0,643.873,0.18,1,2019-10-01 15:05:16.000,302,2019-10-01 15:15:57.706,0.25,90,60,90,120,1
11780,97,0,649.697,0,-30,1,0.25,2,3,0.0,1.0,4,48.0,20.0,3,0.701,0.0,650.712,0.18,1,2019-10-01 15:05:16.000,302,2019-10-01 15:16:05.697,0.25,90,60,90,120,1
11781,98,0,659.0260000000002,0,-30,1,0.25,2,3,0.0,1.0,4,48.0,20.0,3,0.888,0.0,659.8430000000002,0.18,1,2019-10-01 15:05:16.000,302,2019-10-01 15:16:15.026,0.25,90,60,90,120,1
11782,99,0,663.5110000000002,0,-30,1,0.25,2,3,0.0,1.0,4,48.0,20.0,3,0.763,0.0,664.33,0.18,1,2019-10-01 15:05:16.000,302,2019-10-01 15:16:19.511,0.25,90,60,90,120,1
11783,100,0,669.2739999999999,1,-30,1,0.25,2,3,0.0,1.0,4,48.0,20.0,3,0.951,0.0,673.194,0.18,1,2019-10-01 15:05:16.000,302,2019-10-01 15:16:25.274,0.25,90,60,90,120,1
11784,101,0,677.452,0,-30,1,0.25,2,3,0.0,1.0,4,48.0,20.0,3,0.951,0.0,679.4839999999998,0.18,1,2019-10-01 15:05:16.000,302,2019-10-01 15:16:33.452,0.25,90,60,90,120,1
11785,102,0,686.294,0,-30,1,0.25,2,3,0.0,1.0,4,48.0,20.0,3,0.888,0.0,687.408,0.18,1,2019-10-01 15:05:16.000,302,2019-10-01 15:16:42.294,0.25,90,60,90,120,1
11786,103,0,691.5939999999998,0,-30,1,0.25,2,3,0.0,1.0,4,48.0,20.0,3,0.763,0.0,692.39,0.18,1,2019-10-01 15:05:16.000,302,2019-10-01 15:16:47.594,0.25,90,60,90,120,1
11787,104,0,703.165,0,-30,1,0.25,2,9,0.0,1.0,10,48.0,20.0,9,0.701,0.0,703.918,0.0,0,2019-10-01 15:05:16.000,302,2019-10-01 15:16:59.165,0.25,90,-120,-90,120,1
11899,144,0,975.553,0,60,1,0.25,2,3,0.0,1.0,1,48.0,20.0,3,0.888,0.0,976.173,0.15,1,2019-10-02 09:53:24.000,267,2019-10-02 10:09:39.553,0.25,90,150,90,30,1
11900,145,0,980.041,0,60,1,0.25,2,9,0.0,1.0,7,48.0,20.0,9,0.951,0.0,980.533,0.0,0,2019-10-02 09:53:24.000,267,2019-10-02 10:09:44.041,0.25,90,-30,-90,30,1
11901,147,0,990.354,1,60,1,0.25,2,3,0.0,1.0,1,48.0,20.0,3,0.701,0.0,993.421,0.15,1,2019-10-02 09:53:24.000,267,2019-10-02 10:09:54.354,0.25,90,150,90,30,1
11902,148,0,996.609,0,60,1,0.25,2,9,0.0,1.0,7,48.0,20.0,9,0.826,0.0,997.921,0.0,0,2019-10-02 09:53:24.000,267,2019-10-02 10:10:00.609,0.25,90,-30,-90,30,1
11903,150,0,1003.69,0,60,1,0.25,2,9,0.0,1.0,7,48.0,20.0,9,0.888,1.0,1005.43,0.15,1,2019-10-02 09:53:24.000,267,2019-10-02 10:10:07.690,0.25,-90,-30,-90,-150,1
11905,152,0,1025.651,0,60,1,0.25,2,9,0.0,1.0,7,48.0,20.0,9,0.826,1.0,1027.058,0.15,1,2019-10-02 09:53:24.000,267,2019-10-02 10:10:29.651,0.25,-90,-30,-90,-150,1
11906,153,0,1030.776,0,60,1,0.25,2,9,0.0,1.0,7,48.0,20.0,9,0.888,1.0,1031.419,0.15,1,2019-10-02 09:53:24.000,267,2019-10-02 10:10:34.776,0.25,-90,-30,-90,-150,1
11907,154,0,1034.3339999999996,0,60,1,0.25,2,3,0.0,1.0,1,48.0,20.0,3,0.951,0.0,1035.045,0.15,1,2019-10-02 09:53:24.000,267,2019-10-02 10:10:38.334,0.25,90,150,90,30,1
11908,155,0,1038.673,0,60,1,0.25,2,3,0.0,1.0,1,48.0,20.0,3,0.763,0.0,1039.609,0.15,1,2019-10-02 09:53:24.000,267,2019-10-02 10:10:42.673,0.25,90,150,90,30,1
11909,156,0,1044.062,0,60,1,0.25,2,3,0.0,1.0,1,48.0,20.0,3,0.701,0.0,1044.539,0.15,1,2019-10-02 09:53:24.000,267,2019-10-02 10:10:48.062,0.25,90,150,90,30,1
12006,126,0,797.6080000000002,0,120,1,0.25,2,3,0.0,1.0,11,48.0,20.0,3,0.701,0.0,798.341,0.15,1,2019-10-02 14:43:38.000,330,2019-10-02 14:56:55.608,0.25,90,-150,90,-30,1
12007,127,0,801.91,0,120,1,0.25,2,9,0.0,1.0,5,48.0,20.0,9,0.763,1.0,802.679,0.15,1,2019-10-02 14:43:38.000,330,2019-10-02 14:56:59.910,0.25,-90,30,-90,150,1
12008,128,0,807.73,0,120,1,0.25,2,3,0.0,1.0,11,48.0,20.0,3,0.951,1.0,809.648,0.0,0,2019-10-02 14:43:38.000,330,2019-10-02 14:57:05.730,0.25,-90,-150,90,150,1
12009,130,0,816.7189999999998,0,120,1,0.25,2,9,0.0,1.0,5,48.0,20.0,9,0.826,1.0,817.6030000000002,0.15,1,2019-10-02 14:43:38.000,330,2019-10-02 14:57:14.719,0.25,-90,30,-90,150,1
12010,131,0,821.169,0,120,1,0.25,2,3,0.0,1.0,11,48.0,20.0,3,0.951,0.0,822.018,0.15,1,2019-10-02 14:43:38.000,330,2019-10-02 14:57:19.169,0.25,90,-150,90,-30,1
12011,132,0,829.199,1,120,1,0.25,2,9,0.0,1.0,5,48.0,20.0,9,0.826,1.0,831.672,0.15,1,2019-10-02 14:43:38.000,330,2019-10-02 14:57:27.199,0.25,-90,30,-90,150,1
12012,133,0,836.36,0,120,1,0.25,2,3,0.0,1.0,11,48.0,20.0,3,0.763,1.0,838.88,0.0,0,2019-10-02 14:43:38.000,330,2019-10-02 14:57:34.360,0.25,-90,-150,90,150,1
12013,135,0,848.7869999999998,0,120,1,0.25,2,9,0.0,1.0,5,48.0,20.0,9,0.701,1.0,851.7280000000002,0.15,1,2019-10-02 14:43:38.000,330,2019-10-02 14:57:46.787,0.25,-90,30,-90,150,1
12014,136,0,856.268,0,120,1,0.25,2,3,0.0,1.0,11,48.0,20.0,3,0.701,0.0,858.341,0.15,1,2019-10-02 14:43:38.000,330,2019-10-02 14:57:54.268,0.25,90,-150,90,-30,1
12015,137,0,861.7280000000002,0,120,1,0.25,2,3,0.0,1.0,11,48.0,20.0,3,0.826,1.0,862.972,0.0,0,2019-10-02 14:43:38.000,330,2019-10-02 14:57:59.728,0.25,-90,-150,90,150,1
12077,85,0,504.05,0,-150,1,0.25,2,9,0.0,1.0,2,48.0,20.0,9,0.763,1.0,504.766,0.15,1,2019-10-03 09:31:16.000,287,2019-10-03 09:39:40.050,0.25,-90,120,-90,60,1
12078,86,0,509.241,0,-150,1,0.25,2,9,0.0,1.0,2,48.0,20.0,9,0.951,1.0,510.015,0.15,1,2019-10-03 09:31:16.000,287,2019-10-03 09:39:45.241,0.25,-90,120,-90,60,1
12079,87,0,514.649,0,-150,1,0.25,2,9,0.0,1.0,2,48.0,20.0,9,0.701,1.0,516.012,0.15,1,2019-10-03 09:31:16.000,287,2019-10-03 09:39:50.649,0.25,-90,120,-90,60,1
12081,89,0,552.821,1,-150,1,0.25,2,9,0.0,1.0,2,48.0,20.0,9,0.888,1.0,553.929,0.15,1,2019-10-03 09:31:16.000,287,2019-10-03 09:40:28.821,0.25,-90,120,-90,60,1
12082,90,0,561.158,0,-150,1,0.25,2,3,0.0,1.0,8,48.0,20.0,3,0.763,1.0,562.038,0.0,0,2019-10-03 09:31:16.000,287,2019-10-03 09:40:37.158,0.25,-90,-60,90,60,1
12083,92,0,571.74,0,-150,1,0.25,2,9,0.0,1.0,2,48.0,20.0,9,0.763,0.0,572.7669999999998,0.0,0,2019-10-03 09:31:16.000,287,2019-10-03 09:40:47.740,0.25,90,120,-90,-120,1
12084,94,0,580.461,0,-150,1,0.25,2,9,0.0,1.0,2,48.0,20.0,9,0.826,1.0,581.501,0.15,1,2019-10-03 09:31:16.000,287,2019-10-03 09:40:56.461,0.25,-90,120,-90,60,1
12085,95,0,612.789,0,-150,1,0.25,2,9,0.0,1.0,2,48.0,20.0,9,0.701,0.0,613.02,0.0,0,2019-10-03 09:31:16.000,287,2019-10-03 09:41:28.789,0.25,90,120,-90,-120,1
