,Trial,CorrectionTrial,StartTime,CenterReward,CenterSpoutRotation,nStimReps,Duration,Modality,LED Location,LED_trial_V,LED_bgnd_V,Speaker Location,Speaker_trial_V,Speaker_bgnd_V,TargetSpout,HoldTime,Response,RespTime,ValveTime,Correct,SessionDate,SessionID,StartDateTime,StimulusTotalDuration,response_angle_world,speaker_angle_world,speaker_angle_platform,response_angle_platform,not_probe
340,198,0,940.834,0,-30,1,0.25,2,3,0.0,0.0,1,45.0,30.0,3,0.701,0.0,941.681,0.1,1,2019-10-01 09:08:42.000,207,2019-10-01 09:24:22.834,0.25,90,150,-180,120,1
341,199,0,943.556,0,-30,1,0.25,2,9,0.0,0.0,7,45.0,30.0,9,0.6509999999999999,1.0,944.044,0.16,1,2019-10-01 09:08:42.000,207,2019-10-01 09:24:25.556,0.25,-90,-30,0,-60,1
342,200,0,948.372,0,-30,1,0.25,2,3,0.0,0.0,1,45.0,30.0,3,0.6509999999999999,0.0,948.572,0.1,1,2019-10-01 09:08:42.000,207,2019-10-01 09:24:30.372,0.25,90,150,-180,120,1
343,201,0,952.555,0,-30,1,0.25,2,3,0.0,0.0,1,45.0,30.0,3,0.7509999999999999,0.0,953.299,0.1,1,2019-10-01 09:08:42.000,207,2019-10-01 09:24:34.555,0.25,90,150,-180,120,1
344,202,0,956.215,0,-30,1,0.25,2,3,0.0,0.0,1,45.0,30.0,3,0.8009999999999999,0.0,957.0,0.1,1,2019-10-01 09:08:42.000,207,2019-10-01 09:24:38.215,0.25,90,150,-180,120,1
345,203,0,959.802,0,-30,1,0.25,2,3,0.0,0.0,1,45.0,30.0,3,0.851,1.0,960.33,0.0,0,2019-10-01 09:08:42.000,207,2019-10-01 09:24:41.802,0.25,-90,150,-180,-60,1
346,206,0,969.628,0,-30,1,0.25,2,9,0.0,0.0,7,45.0,30.0,9,0.701,0.0,970.515,0.0,0,2019-10-01 09:08:42.000,207,2019-10-01 09:24:51.628,0.25,90,-30,0,120,1
347,208,0,976.985,0,-30,1,0.25,2,3,0.0,0.0,1,45.0,30.0,3,0.6509999999999999,0.0,977.545,0.1,1,2019-10-01 09:08:42.000,207,2019-10-01 09:24:58.985,0.25,90,150,-180,120,1
348,209,0,980.887,0,-30,1,0.25,2,3,0.0,0.0,1,45.0,30.0,3,0.7509999999999999,1.0,981.647,0.0,0,2019-10-01 09:08:42.000,207,2019-10-01 09:25:02.887,0.25,-90,150,-180,-60,1
349,211,0,988.826,0,-30,1,0.25,2,9,0.0,0.0,7,45.0,30.0,9,0.8009999999999999,0.0,989.549,0.0,0,2019-10-01 09:08:42.000,207,2019-10-01 09:25:10.826,0.25,90,-30,0,120,1
848,132,0,742.3710000000002,0,0,1,0.25,2,3,0.0,0.0,12,45.0,30.0,3,0.8009999999999999,0.0,742.673,0.1,1,2019-10-03 08:53:10.000,238,2019-10-03 09:05:32.371,0.25,90,-180,-180,90,1
849,133,0,745.4010000000002,0,0,1,0.25,2,3,0.0,0.0,12,45.0,30.0,3,0.851,1.0,746.1439999999999,0.0,0,2019-10-03 08:53:10.000,238,2019-10-03 09:05:35.401,0.25,-90,-180,-180,-90,1
850,135,0,752.788,0,0,1,0.25,2,9,0.0,0.0,6,45.0,30.0,9,0.6509999999999999,1.0,753.582,0.14,1,2019-10-03 08:53:10.000,238,2019-10-03 09:05:42.788,0.25,-90,0,0,-90,1
851,136,0,760.3480000000002,0,0,1,0.25,2,3,0.0,0.0,12,45.0,30.0,3,0.851,1.0,760.622,0.0,0,2019-10-03 08:53:10.000,238,2019-10-03 09:05:50.348,0.25,-90,-180,-180,-90,1
852,138,0,766.8560000000001,0,0,1,0.25,2,3,0.0,0.0,12,45.0,30.0,3,0.701,1.0,767.307,0.0,0,2019-10-03 08:53:10.000,238,2019-10-03 09:05:56.856,0.25,-90,-180,-180,-90,1
853,143,0,788.309,0,0,1,0.25,2,3,0.0,0.0,12,45.0,30.0,3,0.8009999999999999,0.0,788.948,0.1,1,2019-10-03 08:53:10.000,238,2019-10-03 09:06:18.309,0.25,90,-180,-180,90,1
854,144,0,792.592,0,0,1,0.25,2,3,0.0,0.0,12,45.0,30.0,3,0.701,0.0,793.3789999999998,0.1,1,2019-10-03 08:53:10.000,238,2019-10-03 09:06:22.592,0.25,90,-180,-180,90,1
855,145,0,797.171,0,0,1,0.25,2,9,0.0,0.0,6,45.0,30.0,9,0.851,1.0,797.505,0.14,1,2019-10-03 08:53:10.000,238,2019-10-03 09:06:27.171,0.25,-90,0,0,-90,1
856,146,0,801.757,0,0,1,0.25,2,3,0.0,0.0,12,45.0,30.0,3,0.7509999999999999,0.0,802.6,0.1,1,2019-10-03 08:53:10.000,238,2019-10-03 09:06:31.757,0.25,90,-180,-180,90,1
857,147,0,805.791,0,0,1,0.25,2,3,0.0,0.0,12,45.0,30.0,3,0.701,1.0,806.1469999999998,0.0,0,2019-10-03 08:53:10.000,238,2019-10-03 09:06:35.791,0.25,-90,-180,-180,-90,1
1941,136,0,649.9490000000002,0,-30,1,0.25,2,3,0.0,0.0,1,45.0,30.0,3,0.851,0.0,650.341,0.12,1,2019-10-09 08:48:18.000,134,2019-10-09 08:59:07.949,0.25,90,150,-180,120,1
1942,137,0,653.654,0,-30,1,0.25,2,9,0.0,0.0,7,45.0,30.0,9,0.701,1.0,654.4119999999998,0.14,1,2019-10-09 08:48:18.000,134,2019-10-09 08:59:11.654,0.25,-90,-30,0,-60,1
1943,138,0,658.4639999999998,0,-30,1,0.25,2,9,0.0,0.0,7,45.0,30.0,9,0.6509999999999999,1.0,658.9739999999998,0.14,1,2019-10-09 08:48:18.000,134,2019-10-09 08:59:16.464,0.25,-90,-30,0,-60,1
1944,139,0,664.704,0,-30,1,0.25,2,9,0.0,0.0,7,45.0,30.0,9,0.7509999999999999,0.0,665.4830000000002,0.0,0,2019-10-09 08:48:18.000,134,2019-10-09 08:59:22.704,0.25,90,-30,0,120,1
1945,141,0,671.6469999999998,0,-30,1,0.25,2,9,0.0,0.0,7,45.0,30.0,9,0.8009999999999999,1.0,672.057,0.14,1,2019-10-09 08:48:18.000,134,2019-10-09 08:59:29.647,0.25,-90,-30,0,-60,1
1946,142,0,676.909,0,-30,1,0.25,2,9,0.0,0.0,7,45.0,30.0,9,0.701,1.0,677.252,0.14,1,2019-10-09 08:48:18.000,134,2019-10-09 08:59:34.909,0.25,-90,-30,0,-60,1
1947,143,0,681.054,0,-30,1,0.25,2,3,0.0,0.0,1,45.0,30.0,3,0.851,0.0,681.3389999999998,0.12,1,2019-10-09 08:48:18.000,134,2019-10-09 08:59:39.054,0.25,90,150,-180,120,1
1948,144,0,684.172,0,-30,1,0.25,2,3,0.0,0.0,1,45.0,30.0,3,0.7509999999999999,1.0,685.0989999999998,0.0,0,2019-10-09 08:48:18.000,134,2019-10-09 08:59:42.172,0.25,-90,150,-180,-60,1
1949,146,0,692.699,0,-30,1,0.25,2,9,0.0,0.0,7,45.0,30.0,9,0.7509999999999999,0.0,693.694,0.0,0,2019-10-09 08:48:18.000,134,2019-10-09 08:59:50.699,0.25,90,-30,0,120,1
1950,150,0,708.203,0,-30,1,0.25,2,9,0.0,0.0,7,45.0,30.0,9,0.701,0.0,708.6610000000002,0.0,0,2019-10-09 08:48:18.000,134,2019-10-09 09:00:06.203,0.25,90,-30,0,120,1
2277,203,0,877.0989999999998,0,-60,1,0.25,2,9,0.0,0.0,8,45.0,30.0,9,0.851,0.0,877.543,0.0,0,2019-10-10 08:41:24.000,131,2019-10-10 08:56:01.099,0.25,90,-60,0,150,1
2278,205,0,884.4730000000002,0,-60,1,0.25,2,3,0.0,0.0,2,45.0,30.0,3,0.6509999999999999,1.0,885.177,0.0,0,2019-10-10 08:41:24.000,131,2019-10-10 08:56:08.473,0.25,-90,120,-180,-30,1
2279,207,0,890.2610000000002,0,-60,1,0.25,2,3,0.0,0.0,2,45.0,30.0,3,0.851,0.0,890.818,0.12,1,2019-10-10 08:41:24.000,131,2019-10-10 08:56:14.261,0.25,90,120,-180,150,1
2280,208,0,893.205,0,-60,1,0.25,2,9,0.0,0.0,8,45.0,30.0,9,0.7509999999999999,0.0,893.923,0.0,0,2019-10-10 08:41:24.000,131,2019-10-10 08:56:17.205,0.25,90,-60,0,150,1
2281,210,0,902.376,0,-60,1,0.25,2,3,0.0,0.0,2,45.0,30.0,3,0.8009999999999999,0.0,902.938,0.12,1,2019-10-10 08:41:24.000,131,2019-10-10 08:56:26.376,0.25,90,120,-180,150,1
2282,211,0,905.902,0,-60,1,0.25,2,9,0.0,0.0,8,45.0,30.0,9,0.6509999999999999,1.0,906.734,0.14,1,2019-10-10 08:41:24.000,131,2019-10-10 08:56:29.902,0.25,-90,-60,0,-30,1
2283,212,0,911.081,0,-60,1,0.25,2,9,0.0,0.0,8,45.0,30.0,9,0.701,0.0,911.718,0.0,0,2019-10-10 08:41:24.000,131,2019-10-10 08:56:35.081,0.25,90,-60,0,150,1
2284,214,0,918.163,0,-60,1,0.25,2,9,0.0,0.0,8,45.0,30.0,9,0.7509999999999999,1.0,918.571,0.14,1,2019-10-10 08:41:24.000,131,2019-10-10 08:56:42.163,0.25,-90,-60,0,-30,1
2285,215,0,924.616,0,-60,1,0.25,2,9,0.0,0.0,8,45.0,30.0,9,0.851,1.0,924.974,0.14,1,2019-10-10 08:41:24.000,131,2019-10-10 08:56:48.616,0.25,-90,-60,0,-30,1
2286,216,0,929.861,0,-60,1,0.25,2,9,0.0,0.0,8,45.0,30.0,9,0.851,0.0,930.277,0.0,0,2019-10-10 08:41:24.000,131,2019-10-10 08:56:53.861,0.25,90,-60,0,150,1
2504,282,0,1246.075,0,-90,1,0.25,2,3,0.0,0.0,3,45.0,30.0,3,0.851,0.0,1246.62,0.12,1,2019-10-10 15:09:57.000,56,2019-10-10 15:30:43.075,0.25,90,90,-180,-180,1
2505,283,0,1249.276,0,-90,1,0.25,2,3,0.0,0.0,3,45.0,30.0,3,0.6509999999999999,0.0,1250.202,0.12,1,2019-10-10 15:09:57.000,56,2019-10-10 15:30:46.276,0.25,90,90,-180,-180,1
2506,284,0,1253.419,0,-90,1,0.25,2,9,0.0,0.0,9,45.0,30.0,9,0.7509999999999999,1.0,1254.111,0.14,1,2019-10-10 15:09:57.000,56,2019-10-10 15:30:50.419,0.25,-90,-90,0,0,1
2507,285,0,1257.726,0,-90,1,0.25,2,3,0.0,0.0,3,45.0,30.0,3,0.701,0.0,1258.38,0.12,1,2019-10-10 15:09:57.000,56,2019-10-10 15:30:54.726,0.25,90,90,-180,-180,1
2508,286,0,1262.06,0,-90,1,0.25,2,3,0.0,0.0,3,45.0,30.0,3,0.7509999999999999,0.0,1263.109,0.12,1,2019-10-10 15:09:57.000,56,2019-10-10 15:30:59.060,0.25,90,90,-180,-180,1
2509,287,0,1266.121,0,-90,1,0.25,2,9,0.0,0.0,9,45.0,30.0,9,0.701,0.0,1267.405,0.0,0,2019-10-10 15:09:57.000,56,2019-10-10 15:31:03.121,0.25,90,-90,0,-180,1
2510,289,0,1274.861,0,-90,1,0.25,2,3,0.0,0.0,3,45.0,30.0,3,0.6509999999999999,0.0,1275.413,0.12,1,2019-10-10 15:09:57.000,56,2019-10-10 15:31:11.861,0.25,90,90,-180,-180,1
2511,290,0,1278.304,0,-90,1,0.25,2,9,0.0,0.0,9,45.0,30.0,9,0.851,1.0,1278.775,0.14,1,2019-10-10 15:09:57.000,56,2019-10-10 15:31:15.304,0.25,-90,-90,0,0,1
2512,291,0,1282.044,0,-90,1,0.25,2,3,0.0,0.0,3,45.0,30.0,3,0.6509999999999999,0.0,1282.684,0.12,1,2019-10-10 15:09:57.000,56,2019-10-10 15:31:19.044,0.25,90,90,-180,-180,1
2513,292,0,1286.05,0,-90,1,0.25,2,3,0.0,0.0,3,45.0,30.0,3,0.701,0.0,1287.368,0.12,1,2019-10-10 15:09:57.000,56,2019-10-10 15:31:23.050,0.25,90,90,-180,-180,1
2534,45,0,304.006,0,-120,1,0.25,2,9,0.0,0.0,10,45.0,30.0,9,0.851,0.0,304.348,0.0,0,2019-10-11 08:54:51.000,146,2019-10-11 08:59:55.006,0.25,90,-120,0,-150,1
2535,47,0,310.27,0,-120,1,0.25,2,9,0.0,0.0,10,45.0,30.0,9,0.6509999999999999,0.0,310.875,0.0,0,2019-10-11 08:54:51.000,146,2019-10-11 09:00:01.270,0.25,90,-120,0,-150,1
2536,49,0,317.726,0,-120,1,0.25,2,3,0.0,0.0,4,45.0,30.0,3,0.8009999999999999,1.0,318.415,0.0,0,2019-10-11 08:54:51.000,146,2019-10-11 09:00:08.726,0.25,-90,60,-180,30,1
2537,53,0,331.168,0,-120,1,0.25,2,3,0.0,0.0,4,45.0,30.0,3,0.8009999999999999,1.0,331.744,0.0,0,2019-10-11 08:54:51.000,146,2019-10-11 09:00:22.168,0.25,-90,60,-180,30,1
2538,55,0,337.33,0,-120,1,0.25,2,9,0.0,0.0,10,45.0,30.0,9,0.6509999999999999,0.0,338.367,0.0,0,2019-10-11 08:54:51.000,146,2019-10-11 09:00:28.330,0.25,90,-120,0,-150,1
2539,61,0,358.409,0,-120,1,0.25,2,3,0.0,0.0,4,45.0,30.0,3,0.701,1.0,358.9840000000001,0.0,0,2019-10-11 08:54:51.000,146,2019-10-11 09:00:49.409,0.25,-90,60,-180,30,1
2540,64,0,368.536,0,-120,1,0.25,2,3,0.0,0.0,4,45.0,30.0,3,0.8009999999999999,1.0,369.427,0.0,0,2019-10-11 08:54:51.000,146,2019-10-11 09:00:59.536,0.25,-90,60,-180,30,1
2541,66,0,375.559,0,-120,1,0.25,2,9,0.0,0.0,10,45.0,30.0,9,0.701,1.0,376.18,0.14,1,2019-10-11 08:54:51.000,146,2019-10-11 09:01:06.559,0.25,-90,-120,0,30,1
2542,67,0,380.577,0,-120,1,0.25,2,9,0.0,0.0,10,45.0,30.0,9,0.8009999999999999,1.0,381.163,0.14,1,2019-10-11 08:54:51.000,146,2019-10-11 09:01:11.577,0.25,-90,-120,0,30,1
2543,68,0,384.931,0,-120,1,0.25,2,3,0.0,0.0,4,45.0,30.0,3,0.851,1.0,385.445,0.0,0,2019-10-11 08:54:51.000,146,2019-10-11 09:01:15.931,0.25,-90,60,-180,30,1
2657,155,0,679.686,0,0,1,0.25,2,9,0.0,0.0,6,45.0,30.0,9,0.851,1.0,680.944,0.14,1,2019-10-11 09:02:30.000,8,2019-10-11 09:13:49.686,0.25,-90,0,0,-90,1
2658,156,0,685.691,0,0,1,0.25,2,3,0.0,0.0,12,45.0,30.0,3,0.701,0.0,686.039,0.12,1,2019-10-11 09:02:30.000,8,2019-10-11 09:13:55.691,0.25,90,-180,-180,90,1
2659,157,0,689.1089999999998,0,0,1,0.25,2,9,0.0,0.0,6,45.0,30.0,9,0.6509999999999999,1.0,690.012,0.14,1,2019-10-11 09:02:30.000,8,2019-10-11 09:13:59.109,0.25,-90,0,0,-90,1
2660,158,0,694.133,0,0,1,0.25,2,9,0.0,0.0,6,45.0,30.0,9,0.8009999999999999,1.0,694.763,0.14,1,2019-10-11 09:02:30.000,8,2019-10-11 09:14:04.133,0.25,-90,0,0,-90,1
2661,159,0,700.9860000000001,0,0,1,0.25,2,3,0.0,0.0,12,45.0,30.0,3,0.8009999999999999,0.0,701.4119999999998,0.12,1,2019-10-11 09:02:30.000,8,2019-10-11 09:14:10.986,0.25,90,-180,-180,90,1
2662,160,0,704.552,0,0,1,0.25,2,3,0.0,0.0,12,45.0,30.0,3,0.6509999999999999,0.0,705.4010000000002,0.12,1,2019-10-11 09:02:30.000,8,2019-10-11 09:14:14.552,0.25,90,-180,-180,90,1
2663,161,0,708.607,0,0,1,0.25,2,9,0.0,0.0,6,45.0,30.0,9,0.701,0.0,709.595,0.0,0,2019-10-11 09:02:30.000,8,2019-10-11 09:14:18.607,0.25,90,0,0,90,1
2664,163,0,718.115,0,0,1,0.25,2,9,0.0,0.0,6,45.0,30.0,9,0.851,1.0,718.988,0.14,1,2019-10-11 09:02:30.000,8,2019-10-11 09:14:28.115,0.25,-90,0,0,-90,1
2665,164,0,723.3919999999998,0,0,1,0.25,2,3,0.0,0.0,12,45.0,30.0,3,0.7509999999999999,0.0,723.785,0.12,1,2019-10-11 09:02:30.000,8,2019-10-11 09:14:33.392,0.25,90,-180,-180,90,1
2666,165,0,726.3560000000001,0,0,1,0.25,2,3,0.0,0.0,12,45.0,30.0,3,0.701,1.0,727.064,0.0,0,2019-10-11 09:02:30.000,8,2019-10-11 09:14:36.356,0.25,-90,-180,-180,-90,1
4259,98,0,583.798,0,30,1,0.25,2,9,0.0,0.0,5,45.0,30.0,9,0.7509999999999999,1.0,584.321,0.14,1,2019-10-31 08:41:18.000,132,2019-10-31 08:51:01.798,0.25,-90,30,0,-120,1
4260,99,0,609.5,0,30,1,0.25,2,9,0.0,0.0,5,45.0,30.0,9,0.851,1.0,609.931,0.14,1,2019-10-31 08:41:18.000,132,2019-10-31 08:51:27.500,0.25,-90,30,0,-120,1
4261,100,0,616.6659999999998,0,30,1,0.25,2,9,0.0,0.0,5,45.0,30.0,9,0.701,1.0,617.339,0.14,1,2019-10-31 08:41:18.000,132,2019-10-31 08:51:34.666,0.25,-90,30,0,-120,1
4262,101,0,626.607,0,30,1,0.25,2,9,0.0,0.0,5,45.0,30.0,9,0.8009999999999999,1.0,627.596,0.14,1,2019-10-31 08:41:18.000,132,2019-10-31 08:51:44.607,0.25,-90,30,0,-120,1
4263,102,0,632.398,0,30,1,0.25,2,9,0.0,0.0,5,45.0,30.0,9,0.6509999999999999,0.0,632.784,0.0,0,2019-10-31 08:41:18.000,132,2019-10-31 08:51:50.398,0.25,90,30,0,60,1
4264,105,0,641.77,0,30,1,0.25,2,9,0.0,0.0,5,45.0,30.0,9,0.8009999999999999,0.0,642.5219999999998,0.0,0,2019-10-31 08:41:18.000,132,2019-10-31 08:51:59.770,0.25,90,30,0,60,1
4265,107,0,649.72,0,30,1,0.25,2,9,0.0,0.0,5,45.0,30.0,9,0.701,0.0,650.23,0.0,0,2019-10-31 08:41:18.000,132,2019-10-31 08:52:07.720,0.25,90,30,0,60,1
4266,109,0,656.7869999999998,0,30,1,0.25,2,9,0.0,0.0,5,45.0,30.0,9,0.7509999999999999,0.0,657.422,0.0,0,2019-10-31 08:41:18.000,132,2019-10-31 08:52:14.787,0.25,90,30,0,60,1
4267,111,0,667.533,0,30,1,0.25,2,9,0.0,0.0,5,45.0,30.0,9,0.7509999999999999,1.0,668.1610000000002,0.14,1,2019-10-31 08:41:18.000,132,2019-10-31 08:52:25.533,0.25,-90,30,0,-120,1
4268,112,0,673.002,0,30,1,0.25,2,9,0.0,0.0,5,45.0,30.0,9,0.851,0.0,673.4010000000002,0.0,0,2019-10-31 08:41:18.000,132,2019-10-31 08:52:31.002,0.25,90,30,0,60,1
4828,125,0,1158.668,0,-30,1,0.25,2,9,0.0,0.0,7,45.0,30.0,9,0.901,0.0,1158.86,0.0,0,2019-11-06 10:27:58.000,24,2019-11-06 10:47:16.668,0.25,90,-30,0,120,1
4829,127,0,1175.053,0,-30,1,0.25,2,9,0.0,0.0,7,45.0,30.0,9,0.851,1.0,1175.783,0.17,1,2019-11-06 10:27:58.000,24,2019-11-06 10:47:33.053,0.25,-90,-30,0,-60,1
4830,128,0,1180.162,0,-30,1,0.25,2,9,0.0,0.0,7,45.0,30.0,9,0.701,1.0,1180.53,0.17,1,2019-11-06 10:27:58.000,24,2019-11-06 10:47:38.162,0.25,-90,-30,0,-60,1
4831,129,0,1194.2,0,-30,1,0.25,2,9,0.0,0.0,7,45.0,30.0,9,0.901,1.0,1194.693,0.17,1,2019-11-06 10:27:58.000,24,2019-11-06 10:47:52.200,0.25,-90,-30,0,-60,1
4832,130,0,1200.804,0,-30,1,0.25,2,3,0.0,0.0,1,45.0,30.0,3,0.7509999999999999,1.0,1201.144,0.0,0,2019-11-06 10:27:58.000,24,2019-11-06 10:47:58.804,0.25,-90,150,-180,-60,1
4833,133,0,1215.962,0,-30,1,0.25,2,9,0.0,0.0,7,45.0,30.0,9,0.851,1.0,1217.65,0.17,1,2019-11-06 10:27:58.000,24,2019-11-06 10:48:13.962,0.25,-90,-30,0,-60,1
4834,134,0,1232.249,0,-30,1,0.25,2,9,0.0,0.0,7,45.0,30.0,9,0.8009999999999999,1.0,1232.965,0.17,1,2019-11-06 10:27:58.000,24,2019-11-06 10:48:30.249,0.25,-90,-30,0,-60,1
4835,135,0,1237.689,0,-30,1,0.25,2,9,0.0,0.0,7,45.0,30.0,9,0.701,1.0,1238.038,0.17,1,2019-11-06 10:27:58.000,24,2019-11-06 10:48:35.689,0.25,-90,-30,0,-60,1
4836,136,0,1242.898,0,-30,1,0.25,2,3,0.0,0.0,1,45.0,30.0,3,0.701,1.0,1243.143,0.0,0,2019-11-06 10:27:58.000,24,2019-11-06 10:48:40.898,0.25,-90,150,-180,-60,1
4837,138,0,1251.769,0,-30,1,0.25,2,9,0.0,0.0,7,45.0,30.0,9,0.851,0.0,1252.479,0.0,0,2019-11-06 10:27:58.000,24,2019-11-06 10:48:49.769,0.25,90,-30,0,120,1
5108,62,0,526.661,0,-60,1,0.25,2,3,0.0,0.0,2,45.0,30.0,3,0.901,1.0,527.052,0.0,0,2019-11-08 08:35:58.000,116,2019-11-08 08:44:44.661,0.25,-90,120,-180,-30,1
5109,64,0,537.869,0,-60,1,0.25,2,3,0.0,0.0,2,45.0,30.0,3,0.701,1.0,538.697,0.0,0,2019-11-08 08:35:58.000,116,2019-11-08 08:44:55.869,0.25,-90,120,-180,-30,1
5110,66,0,547.778,0,-60,1,0.25,2,9,0.0,0.0,8,45.0,30.0,9,0.7509999999999999,1.0,548.265,0.17,1,2019-11-08 08:35:58.000,116,2019-11-08 08:45:05.778,0.25,-90,-60,0,-30,1
5111,67,0,557.168,0,-60,1,0.25,2,9,0.0,0.0,8,45.0,30.0,9,0.8009999999999999,1.0,557.575,0.17,1,2019-11-08 08:35:58.000,116,2019-11-08 08:45:15.168,0.25,-90,-60,0,-30,1
5112,68,0,562.133,0,-60,1,0.25,2,9,0.0,0.0,8,45.0,30.0,9,0.851,1.0,562.225,0.17,1,2019-11-08 08:35:58.000,116,2019-11-08 08:45:20.133,0.25,-90,-60,0,-30,1
5113,69,0,566.16,0,-60,1,0.25,2,9,0.0,0.0,8,45.0,30.0,9,0.701,1.0,566.693,0.17,1,2019-11-08 08:35:58.000,116,2019-11-08 08:45:24.160,0.25,-90,-60,0,-30,1
5114,70,0,578.094,0,-60,1,0.25,2,9,0.0,0.0,8,45.0,30.0,9,0.901,1.0,578.655,0.17,1,2019-11-08 08:35:58.000,116,2019-11-08 08:45:36.094,0.25,-90,-60,0,-30,1
5115,71,0,585.4019999999998,0,-60,1,0.25,2,9,0.0,0.0,8,45.0,30.0,9,0.851,1.0,585.939,0.17,1,2019-11-08 08:35:58.000,116,2019-11-08 08:45:43.402,0.25,-90,-60,0,-30,1
5116,72,0,597.178,0,-60,1,0.25,2,3,0.0,0.0,2,45.0,30.0,3,0.901,0.0,598.0269999999998,0.13,1,2019-11-08 08:35:58.000,116,2019-11-08 08:45:55.178,0.25,90,120,-180,150,1
5117,73,0,600.114,0,-60,1,0.25,2,3,0.0,0.0,2,45.0,30.0,3,0.7509999999999999,1.0,600.7819999999998,0.0,0,2019-11-08 08:35:58.000,116,2019-11-08 08:45:58.114,0.25,-90,120,-180,-30,1
5274,58,0,445.409,0,0,1,0.25,2,9,0.0,0.0,6,45.0,30.0,9,0.701,1.0,446.3,0.17,1,2019-11-12 10:15:09.000,111,2019-11-12 10:22:34.409,0.25,-90,0,0,-90,1
5275,59,0,450.482,0,0,1,0.25,2,9,0.0,0.0,6,45.0,30.0,9,0.851,1.0,451.099,0.17,1,2019-11-12 10:15:09.000,111,2019-11-12 10:22:39.482,0.25,-90,0,0,-90,1
5276,60,0,455.4980000000001,0,0,1,0.25,2,9,0.0,0.0,6,45.0,30.0,9,0.8009999999999999,1.0,456.237,0.17,1,2019-11-12 10:15:09.000,111,2019-11-12 10:22:44.498,0.25,-90,0,0,-90,1
5277,61,0,460.626,0,0,1,0.25,2,9,0.0,0.0,6,45.0,30.0,9,0.7509999999999999,1.0,461.132,0.17,1,2019-11-12 10:15:09.000,111,2019-11-12 10:22:49.626,0.25,-90,0,0,-90,1
5278,62,0,468.052,0,0,1,0.25,2,3,0.0,0.0,12,45.0,30.0,3,0.8009999999999999,1.0,468.696,0.0,0,2019-11-12 10:15:09.000,111,2019-11-12 10:22:57.052,0.25,-90,-180,-180,-90,1
5279,64,0,476.941,0,0,1,0.25,2,9,0.0,0.0,6,45.0,30.0,9,0.701,1.0,477.596,0.17,1,2019-11-12 10:15:09.000,111,2019-11-12 10:23:05.941,0.25,-90,0,0,-90,1
5280,65,0,482.486,0,0,1,0.25,2,3,0.0,0.0,12,45.0,30.0,3,0.851,1.0,483.389,0.0,0,2019-11-12 10:15:09.000,111,2019-11-12 10:23:11.486,0.25,-90,-180,-180,-90,1
5281,67,0,493.042,0,0,1,0.25,2,9,0.0,0.0,6,45.0,30.0,9,0.8009999999999999,1.0,493.9980000000001,0.17,1,2019-11-12 10:15:09.000,111,2019-11-12 10:23:22.042,0.25,-90,0,0,-90,1
5282,68,0,497.6,0,0,1,0.25,2,3,0.0,0.0,12,45.0,30.0,3,0.7509999999999999,1.0,498.30800000000005,0.0,0,2019-11-12 10:15:09.000,111,2019-11-12 10:23:26.600,0.25,-90,-180,-180,-90,1
5283,72,0,540.928,0,0,1,0.25,2,9,0.0,0.0,6,45.0,30.0,9,0.7509999999999999,1.0,541.336,0.17,1,2019-11-12 10:15:09.000,111,2019-11-12 10:24:09.928,0.25,-90,0,0,-90,1
5630,149,0,919.931,0,-60,1,0.25,2,3,0.0,0.0,2,45.0,30.0,3,0.851,1.0,921.314,0.0,0,2019-11-13 16:34:52.000,5,2019-11-13 16:50:11.931,0.25,-90,120,-180,-30,1
5631,152,0,939.255,0,-60,1,0.25,2,3,0.0,0.0,2,45.0,30.0,3,0.701,0.0,940.254,0.13,1,2019-11-13 16:34:52.000,5,2019-11-13 16:50:31.255,0.25,90,120,-180,150,1
5632,153,0,944.28,0,-60,1,0.25,2,9,0.0,0.0,8,45.0,30.0,9,0.8009999999999999,1.0,944.886,0.15,1,2019-11-13 16:34:52.000,5,2019-11-13 16:50:36.280,0.25,-90,-60,0,-30,1
5633,154,0,949.407,0,-60,1,0.25,2,9,0.0,0.0,8,45.0,30.0,9,0.901,1.0,950.153,0.15,1,2019-11-13 16:34:52.000,5,2019-11-13 16:50:41.407,0.25,-90,-60,0,-30,1
5634,155,0,971.272,0,-60,1,0.25,2,9,0.0,0.0,8,45.0,30.0,9,0.851,1.0,971.612,0.15,1,2019-11-13 16:34:52.000,5,2019-11-13 16:51:03.272,0.25,-90,-60,0,-30,1
5635,156,0,976.316,0,-60,1,0.25,2,3,0.0,0.0,2,45.0,30.0,3,0.901,1.0,977.031,0.0,0,2019-11-13 16:34:52.000,5,2019-11-13 16:51:08.316,0.25,-90,120,-180,-30,1
5636,158,0,984.6,0,-60,1,0.25,2,3,0.0,0.0,2,45.0,30.0,3,0.701,0.0,985.849,0.13,1,2019-11-13 16:34:52.000,5,2019-11-13 16:51:16.600,0.25,90,120,-180,150,1
5637,159,0,989.633,0,-60,1,0.25,2,9,0.0,0.0,8,45.0,30.0,9,0.8009999999999999,1.0,990.283,0.15,1,2019-11-13 16:34:52.000,5,2019-11-13 16:51:21.633,0.25,-90,-60,0,-30,1
5638,160,0,996.559,0,-60,1,0.25,2,3,0.0,0.0,2,45.0,30.0,3,0.851,0.0,996.986,0.13,1,2019-11-13 16:34:52.000,5,2019-11-13 16:51:28.559,0.25,90,120,-180,150,1
5639,161,0,1000.487,0,-60,1,0.25,2,9,0.0,0.0,8,45.0,30.0,9,0.701,0.0,1001.835,0.0,0,2019-11-13 16:34:52.000,5,2019-11-13 16:51:32.487,0.25,90,-60,0,150,1
5759,168,0,1181.472,0,-90,1,0.25,2,9,0.0,0.0,9,45.0,30.0,9,0.851,1.0,1182.062,0.17,1,2019-11-14 08:54:49.000,94,2019-11-14 09:14:30.472,0.25,-90,-90,0,0,1
5760,169,0,1188.124,0,-90,1,0.25,2,9,0.0,0.0,9,45.0,30.0,9,0.901,1.0,1188.393,0.17,1,2019-11-14 08:54:49.000,94,2019-11-14 09:14:37.124,0.25,-90,-90,0,0,1
5761,170,0,1193.782,0,-90,1,0.25,2,3,0.0,0.0,3,45.0,30.0,3,0.7509999999999999,0.0,1194.119,0.13,1,2019-11-14 08:54:49.000,94,2019-11-14 09:14:42.782,0.25,90,90,-180,-180,1
5762,171,0,1199.956,0,-90,1,0.25,2,9,0.0,0.0,9,45.0,30.0,9,0.8009999999999999,0.0,1200.484,0.0,0,2019-11-14 08:54:49.000,94,2019-11-14 09:14:48.956,0.25,90,-90,0,-180,1
5763,174,0,1253.332,0,-90,1,0.25,2,3,0.0,0.0,3,45.0,30.0,3,0.7509999999999999,1.0,1254.147,0.0,0,2019-11-14 08:54:49.000,94,2019-11-14 09:15:42.332,0.25,-90,90,-180,0,1
5764,176,0,1264.264,0,-90,1,0.25,2,9,0.0,0.0,9,45.0,30.0,9,0.7509999999999999,1.0,1264.929,0.17,1,2019-11-14 08:54:49.000,94,2019-11-14 09:15:53.264,0.25,-90,-90,0,0,1
5765,177,0,1272.466,0,-90,1,0.25,2,9,0.0,0.0,9,45.0,30.0,9,0.851,1.0,1272.964,0.17,1,2019-11-14 08:54:49.000,94,2019-11-14 09:16:01.466,0.25,-90,-90,0,0,1
5766,178,0,1277.138,0,-90,1,0.25,2,3,0.0,0.0,3,45.0,30.0,3,0.901,1.0,1277.594,0.0,0,2019-11-14 08:54:49.000,94,2019-11-14 09:16:06.138,0.25,-90,90,-180,0,1
5767,180,0,1287.237,0,-90,1,0.25,2,3,0.0,0.0,3,45.0,30.0,3,0.8009999999999999,1.0,1287.72,0.0,0,2019-11-14 08:54:49.000,94,2019-11-14 09:16:16.237,0.25,-90,90,-180,0,1
5768,182,0,1297.083,0,-90,1,0.25,2,3,0.0,0.0,3,45.0,30.0,3,0.851,1.0,1297.68,0.0,0,2019-11-14 08:54:49.000,94,2019-11-14 09:16:26.083,0.25,-90,90,-180,0,1
5992,148,0,1069.264,0,-120,1,0.25,2,9,0.0,0.0,10,45.0,30.0,9,0.8009999999999999,1.0,1069.602,0.15,1,2019-11-15 09:07:22.000,121,2019-11-15 09:25:11.264,0.25,-90,-120,0,30,1
5993,149,0,1074.035,0,-120,1,0.25,2,3,0.0,0.0,4,45.0,30.0,3,0.851,1.0,1074.333,0.0,0,2019-11-15 09:07:22.000,121,2019-11-15 09:25:16.035,0.25,-90,60,-180,30,1
5994,151,0,1090.295,0,-120,1,0.25,2,3,0.0,0.0,4,45.0,30.0,3,0.901,0.0,1091.1,0.18,1,2019-11-15 09:07:22.000,121,2019-11-15 09:25:32.295,0.25,90,60,-180,-150,1
5995,152,0,1095.696,0,-120,1,0.25,2,3,0.0,0.0,4,45.0,30.0,3,0.701,0.0,1096.483,0.18,1,2019-11-15 09:07:22.000,121,2019-11-15 09:25:37.696,0.25,90,60,-180,-150,1
5996,153,0,1104.311,0,-120,1,0.25,2,3,0.0,0.0,4,45.0,30.0,3,0.8009999999999999,0.0,1104.952,0.18,1,2019-11-15 09:07:22.000,121,2019-11-15 09:25:46.311,0.25,90,60,-180,-150,1
5997,154,0,1110.354,0,-120,1,0.25,2,3,0.0,0.0,4,45.0,30.0,3,0.7509999999999999,0.0,1111.474,0.18,1,2019-11-15 09:07:22.000,121,2019-11-15 09:25:52.354,0.25,90,60,-180,-150,1
5998,155,0,1115.864,0,-120,1,0.25,2,9,0.0,0.0,10,45.0,30.0,9,0.851,1.0,1116.779,0.15,1,2019-11-15 09:07:22.000,121,2019-11-15 09:25:57.864,0.25,-90,-120,0,30,1
5999,156,0,1129.465,0,-120,1,0.25,2,3,0.0,0.0,4,45.0,30.0,3,0.901,0.0,1130.207,0.18,1,2019-11-15 09:07:22.000,121,2019-11-15 09:26:11.465,0.25,90,60,-180,-150,1
6000,157,0,1134.796,0,-120,1,0.25,2,9,0.0,0.0,10,45.0,30.0,9,0.851,0.0,1135.509,0.0,0,2019-11-15 09:07:22.000,121,2019-11-15 09:26:16.796,0.25,90,-120,0,-150,1
6001,159,0,1148.494,0,-120,1,0.25,2,9,0.0,0.0,10,45.0,30.0,9,0.701,0.0,1149.13,0.0,0,2019-11-15 09:07:22.000,121,2019-11-15 09:26:30.494,0.25,90,-120,0,-150,1
6125,56,0,490.637,0,0,1,0.25,2,9,0.0,0.0,6,45.0,30.0,9,0.901,1.0,490.96,0.17,1,2019-11-25 16:05:14.000,81,2019-11-25 16:13:24.637,0.25,-90,0,0,-90,1
6126,57,0,496.333,0,0,1,0.25,2,9,0.0,0.0,6,45.0,30.0,9,0.8009999999999999,1.0,496.891,0.17,1,2019-11-25 16:05:14.000,81,2019-11-25 16:13:30.333,0.25,-90,0,0,-90,1
6127,58,0,501.159,0,0,1,0.25,2,9,0.0,0.0,6,45.0,30.0,9,0.851,1.0,501.709,0.17,1,2019-11-25 16:05:14.000,81,2019-11-25 16:13:35.159,0.25,-90,0,0,-90,1
6128,59,0,506.198,0,0,1,0.25,2,3,0.0,0.0,12,45.0,30.0,3,0.7509999999999999,1.0,506.909,0.0,0,2019-11-25 16:05:14.000,81,2019-11-25 16:13:40.198,0.25,-90,-180,-180,-90,1
6129,62,0,523.318,0,0,1,0.25,2,9,0.0,0.0,6,45.0,30.0,9,0.901,0.0,524.069,0.0,0,2019-11-25 16:05:14.000,81,2019-11-25 16:13:57.318,0.25,90,0,0,90,1
6130,64,0,531.919,0,0,1,0.25,2,3,0.0,0.0,12,45.0,30.0,3,0.851,1.0,532.14,0.0,0,2019-11-25 16:05:14.000,81,2019-11-25 16:14:05.919,0.25,-90,-180,-180,-90,1
6131,70,0,602.112,0,0,1,0.25,2,9,0.0,0.0,6,45.0,30.0,9,0.8009999999999999,1.0,602.764,0.17,1,2019-11-25 16:05:14.000,81,2019-11-25 16:15:16.112,0.25,-90,0,0,-90,1
6132,71,0,608.003,0,0,1,0.25,2,9,0.0,0.0,6,45.0,30.0,9,0.8009999999999999,1.0,608.514,0.17,1,2019-11-25 16:05:14.000,81,2019-11-25 16:15:22.003,0.25,-90,0,0,-90,1
6133,72,0,613.48,0,0,1,0.25,2,3,0.0,0.0,12,45.0,30.0,3,0.851,1.0,614.081,0.0,0,2019-11-25 16:05:14.000,81,2019-11-25 16:15:27.480,0.25,-90,-180,-180,-90,1
6134,74,0,622.529,0,0,1,0.25,2,3,0.0,0.0,12,45.0,30.0,3,0.901,1.0,623.307,0.0,0,2019-11-25 16:05:14.000,81,2019-11-25 16:15:36.529,0.25,-90,-180,-180,-90,1
6375,148,0,1124.457,0,180,1,0.25,2,9,0.0,0.0,12,45.0,30.0,9,0.8009999999999999,1.0,1125.099,0.17,1,2019-11-26 14:03:09.000,14,2019-11-26 14:21:53.457,0.25,-90,-180,0,90,1
6376,149,0,1130.167,0,180,1,0.25,2,3,0.0,0.0,6,45.0,30.0,3,0.901,1.0,1130.909,0.0,0,2019-11-26 14:03:09.000,14,2019-11-26 14:21:59.167,0.25,-90,0,-180,90,1
6377,151,0,1138.218,0,180,1,0.25,2,3,0.0,0.0,6,45.0,30.0,3,0.851,0.0,1139.325,0.13,1,2019-11-26 14:03:09.000,14,2019-11-26 14:22:07.218,0.25,90,0,-180,-90,1
6378,152,0,1142.644,0,180,1,0.25,2,9,0.0,0.0,12,45.0,30.0,9,0.701,1.0,1143.281,0.17,1,2019-11-26 14:03:09.000,14,2019-11-26 14:22:11.644,0.25,-90,-180,0,90,1
6379,153,0,1147.723,0,180,1,0.25,2,9,0.0,0.0,12,45.0,30.0,9,0.901,1.0,1148.326,0.17,1,2019-11-26 14:03:09.000,14,2019-11-26 14:22:16.723,0.25,-90,-180,0,90,1
6380,154,0,1152.942,0,180,1,0.25,2,3,0.0,0.0,6,45.0,30.0,3,0.8009999999999999,1.0,1153.57,0.0,0,2019-11-26 14:03:09.000,14,2019-11-26 14:22:21.942,0.25,-90,0,-180,90,1
6381,156,0,1173.556,0,180,1,0.25,2,3,0.0,0.0,6,45.0,30.0,3,0.851,0.0,1174.21,0.13,1,2019-11-26 14:03:09.000,14,2019-11-26 14:22:42.556,0.25,90,0,-180,-90,1
6382,157,0,1177.992,0,180,1,0.25,2,9,0.0,0.0,12,45.0,30.0,9,0.8009999999999999,1.0,1178.509,0.17,1,2019-11-26 14:03:09.000,14,2019-11-26 14:22:46.992,0.25,-90,-180,0,90,1
6383,158,0,1182.159,0,180,1,0.25,2,3,0.0,0.0,6,45.0,30.0,3,0.901,0.0,1182.674,0.13,1,2019-11-26 14:03:09.000,14,2019-11-26 14:22:51.159,0.25,90,0,-180,-90,1
6384,159,0,1186.478,0,180,1,0.25,2,3,0.0,0.0,6,45.0,30.0,3,0.7509999999999999,1.0,1187.431,0.0,0,2019-11-26 14:03:09.000,14,2019-11-26 14:22:55.478,0.25,-90,0,-180,90,1
6476,119,0,740.5039999999998,0,0,1,0.25,2,9,0.0,0.0,6,45.0,30.0,9,0.8009999999999999,1.0,741.153,0.17,1,2019-11-27 08:59:35.000,220,2019-11-27 09:11:55.504,0.25,-90,0,0,-90,1
6477,120,0,745.566,0,0,1,0.25,2,9,0.0,0.0,6,45.0,30.0,9,0.7509999999999999,1.0,745.931,0.17,1,2019-11-27 08:59:35.000,220,2019-11-27 09:12:00.566,0.25,-90,0,0,-90,1
6478,121,0,750.387,0,0,1,0.25,2,9,0.0,0.0,6,45.0,30.0,9,0.8009999999999999,1.0,750.9989999999998,0.17,1,2019-11-27 08:59:35.000,220,2019-11-27 09:12:05.387,0.25,-90,0,0,-90,1
6479,122,0,755.1189999999998,0,0,1,0.25,2,3,0.0,0.0,12,45.0,30.0,3,0.901,1.0,755.8910000000002,0.0,0,2019-11-27 08:59:35.000,220,2019-11-27 09:12:10.119,0.25,-90,-180,-180,-90,1
6480,124,0,764.355,0,0,1,0.25,2,9,0.0,0.0,6,45.0,30.0,9,0.701,1.0,765.064,0.17,1,2019-11-27 08:59:35.000,220,2019-11-27 09:12:19.355,0.25,-90,0,0,-90,1
6481,125,0,769.8919999999998,0,0,1,0.25,2,9,0.0,0.0,6,45.0,30.0,9,0.7509999999999999,1.0,770.377,0.17,1,2019-11-27 08:59:35.000,220,2019-11-27 09:12:24.892,0.25,-90,0,0,-90,1
6482,126,0,774.948,0,0,1,0.25,2,9,0.0,0.0,6,45.0,30.0,9,0.701,1.0,775.55,0.17,1,2019-11-27 08:59:35.000,220,2019-11-27 09:12:29.948,0.25,-90,0,0,-90,1
6483,127,0,780.82,0,0,1,0.25,2,9,0.0,0.0,6,45.0,30.0,9,0.8009999999999999,1.0,781.572,0.17,1,2019-11-27 08:59:35.000,220,2019-11-27 09:12:35.820,0.25,-90,0,0,-90,1
6484,128,0,786.7139999999998,0,0,1,0.25,2,3,0.0,0.0,12,45.0,30.0,3,0.901,1.0,788.105,0.0,0,2019-11-27 08:59:35.000,220,2019-11-27 09:12:41.714,0.25,-90,-180,-180,-90,1
6485,130,0,797.827,0,0,1,0.25,2,3,0.0,0.0,12,45.0,30.0,3,0.851,1.0,798.6419999999998,0.0,0,2019-11-27 08:59:35.000,220,2019-11-27 09:12:52.827,0.25,-90,-180,-180,-90,1
6638,184,0,1225.029,0,60,1,0.25,2,9,0.0,0.0,4,45.0,30.0,9,0.8009999999999999,1.0,1225.756,0.17,1,2019-11-27 14:23:17.000,171,2019-11-27 14:43:42.029,0.25,-90,60,0,-150,1
6639,185,0,1231.167,0,60,1,0.25,2,3,0.0,0.0,10,45.0,30.0,3,0.7509999999999999,1.0,1231.822,0.0,0,2019-11-27 14:23:17.000,171,2019-11-27 14:43:48.167,0.25,-90,-120,-180,-150,1
6640,187,0,1240.35,0,60,1,0.25,2,3,0.0,0.0,10,45.0,30.0,3,0.901,0.0,1241.025,0.13,1,2019-11-27 14:23:17.000,171,2019-11-27 14:43:57.350,0.25,90,-120,-180,30,1
6641,188,0,1244.792,0,60,1,0.25,2,3,0.0,0.0,10,45.0,30.0,3,0.8009999999999999,0.0,1245.735,0.13,1,2019-11-27 14:23:17.000,171,2019-11-27 14:44:01.792,0.25,90,-120,-180,30,1
6642,189,0,1249.855,0,60,1,0.25,2,9,0.0,0.0,4,45.0,30.0,9,0.7509999999999999,1.0,1250.651,0.17,1,2019-11-27 14:23:17.000,171,2019-11-27 14:44:06.855,0.25,-90,60,0,-150,1
6643,190,0,1255.9,0,60,1,0.25,2,9,0.0,0.0,4,45.0,30.0,9,0.701,1.0,1257.039,0.17,1,2019-11-27 14:23:17.000,171,2019-11-27 14:44:12.900,0.25,-90,60,0,-150,1
6644,191,0,1261.644,0,60,1,0.25,2,3,0.0,0.0,10,45.0,30.0,3,0.7509999999999999,0.0,1262.55,0.13,1,2019-11-27 14:23:17.000,171,2019-11-27 14:44:18.644,0.25,90,-120,-180,30,1
6645,192,0,1264.573,0,60,1,0.25,2,3,0.0,0.0,10,45.0,30.0,3,0.851,0.0,1265.153,0.13,1,2019-11-27 14:23:17.000,171,2019-11-27 14:44:21.573,0.25,90,-120,-180,30,1
6646,193,0,1268.903,0,60,1,0.25,2,9,0.0,0.0,4,45.0,30.0,9,0.8009999999999999,1.0,1269.727,0.17,1,2019-11-27 14:23:17.000,171,2019-11-27 14:44:25.903,0.25,-90,60,0,-150,1
6647,194,0,1278.404,0,60,1,0.25,2,3,0.0,0.0,10,45.0,30.0,3,0.901,1.0,1279.284,0.0,0,2019-11-27 14:23:17.000,171,2019-11-27 14:44:35.404,0.25,-90,-120,-180,-150,1
6747,127,0,778.679,0,0,1,0.25,2,3,0.0,0.0,12,45.0,30.0,3,0.701,0.0,779.33,0.13,1,2019-11-28 08:37:32.000,104,2019-11-28 08:50:30.679,0.25,90,-180,-180,90,1
6748,128,0,783.046,0,0,1,0.25,2,3,0.0,0.0,12,45.0,30.0,3,0.851,1.0,784.035,0.0,0,2019-11-28 08:37:32.000,104,2019-11-28 08:50:35.046,0.25,-90,-180,-180,-90,1
6749,130,0,794.055,0,0,1,0.25,2,3,0.0,0.0,12,45.0,30.0,3,0.7509999999999999,0.0,794.94,0.13,1,2019-11-28 08:37:32.000,104,2019-11-28 08:50:46.055,0.25,90,-180,-180,90,1
6750,131,0,798.7689999999999,0,0,1,0.25,2,9,0.0,0.0,6,45.0,30.0,9,0.701,1.0,799.3710000000002,0.17,1,2019-11-28 08:37:32.000,104,2019-11-28 08:50:50.769,0.25,-90,0,0,-90,1
6751,132,0,803.595,0,0,1,0.25,2,3,0.0,0.0,12,45.0,30.0,3,0.8009999999999999,1.0,804.0310000000002,0.0,0,2019-11-28 08:37:32.000,104,2019-11-28 08:50:55.595,0.25,-90,-180,-180,-90,1
6752,135,0,848.197,0,0,1,0.25,2,3,0.0,0.0,12,45.0,30.0,3,0.851,1.0,849.046,0.0,0,2019-11-28 08:37:32.000,104,2019-11-28 08:51:40.197,0.25,-90,-180,-180,-90,1
6753,137,0,857.3839999999999,0,0,1,0.25,2,3,0.0,0.0,12,45.0,30.0,3,0.7509999999999999,1.0,857.935,0.0,0,2019-11-28 08:37:32.000,104,2019-11-28 08:51:49.384,0.25,-90,-180,-180,-90,1
6754,140,0,909.409,0,0,1,0.25,2,9,0.0,0.0,6,45.0,30.0,9,0.851,1.0,909.89,0.17,1,2019-11-28 08:37:32.000,104,2019-11-28 08:52:41.409,0.25,-90,0,0,-90,1
6755,141,0,914.37,0,0,1,0.25,2,3,0.0,0.0,12,45.0,30.0,3,0.851,1.0,914.759,0.0,0,2019-11-28 08:37:32.000,104,2019-11-28 08:52:46.370,0.25,-90,-180,-180,-90,1
6756,143,0,924.495,0,0,1,0.25,2,3,0.0,0.0,12,45.0,30.0,3,0.7509999999999999,1.0,925.457,0.0,0,2019-11-28 08:37:32.000,104,2019-11-28 08:52:56.495,0.25,-90,-180,-180,-90,1
7221,175,0,967.242,0,30,1,0.25,2,3,0.0,0.0,11,45.0,30.0,3,0.7509999999999999,0.0,967.939,0.13,1,2019-11-29 14:05:00.000,150,2019-11-29 14:21:07.242,0.25,90,-150,-180,60,1
7222,176,0,971.586,0,30,1,0.25,2,9,0.0,0.0,5,45.0,30.0,9,0.701,1.0,972.189,0.17,1,2019-11-29 14:05:00.000,150,2019-11-29 14:21:11.586,0.25,-90,30,0,-120,1
7223,177,0,977.005,0,30,1,0.25,2,9,0.0,0.0,5,45.0,30.0,9,0.901,1.0,977.456,0.17,1,2019-11-29 14:05:00.000,150,2019-11-29 14:21:17.005,0.25,-90,30,0,-120,1
7224,178,0,982.486,0,30,1,0.25,2,9,0.0,0.0,5,45.0,30.0,9,0.851,1.0,982.945,0.17,1,2019-11-29 14:05:00.000,150,2019-11-29 14:21:22.486,0.25,-90,30,0,-120,1
7225,179,0,986.607,0,30,1,0.25,2,9,0.0,0.0,5,45.0,30.0,9,0.8009999999999999,1.0,987.298,0.17,1,2019-11-29 14:05:00.000,150,2019-11-29 14:21:26.607,0.25,-90,30,0,-120,1
7226,180,0,991.765,0,30,1,0.25,2,9,0.0,0.0,5,45.0,30.0,9,0.7509999999999999,1.0,992.556,0.17,1,2019-11-29 14:05:00.000,150,2019-11-29 14:21:31.765,0.25,-90,30,0,-120,1
7227,181,0,997.969,0,30,1,0.25,2,3,0.0,0.0,11,45.0,30.0,3,0.8009999999999999,0.0,998.566,0.13,1,2019-11-29 14:05:00.000,150,2019-11-29 14:21:37.969,0.25,90,-150,-180,60,1
7228,182,0,1001.363,0,30,1,0.25,2,9,0.0,0.0,5,45.0,30.0,9,0.851,1.0,1001.869,0.17,1,2019-11-29 14:05:00.000,150,2019-11-29 14:21:41.363,0.25,-90,30,0,-120,1
7229,183,0,1006.515,0,30,1,0.25,2,9,0.0,0.0,5,45.0,30.0,9,0.7509999999999999,1.0,1007.131,0.17,1,2019-11-29 14:05:00.000,150,2019-11-29 14:21:46.515,0.25,-90,30,0,-120,1
7230,184,0,1010.489,0,30,1,0.25,2,3,0.0,0.0,11,45.0,30.0,3,0.701,1.0,1011.465,0.0,0,2019-11-29 14:05:00.000,150,2019-11-29 14:21:50.489,0.25,-90,-150,-180,-120,1
7272,54,0,441.507,0,0,1,0.25,2,9,0.0,0.0,6,45.0,30.0,9,0.701,1.0,441.913,0.17,1,2019-12-02 08:49:13.000,107,2019-12-02 08:56:34.507,0.25,-90,0,0,-90,1
7273,55,0,446.108,0,0,1,0.25,2,9,0.0,0.0,6,45.0,30.0,9,0.901,1.0,447.018,0.17,1,2019-12-02 08:49:13.000,107,2019-12-02 08:56:39.108,0.25,-90,0,0,-90,1
7274,56,0,451.627,0,0,1,0.25,2,9,0.0,0.0,6,45.0,30.0,9,0.901,1.0,452.168,0.17,1,2019-12-02 08:49:13.000,107,2019-12-02 08:56:44.627,0.25,-90,0,0,-90,1
7275,57,0,458.30800000000005,0,0,1,0.25,2,3,0.0,0.0,12,45.0,30.0,3,0.8009999999999999,1.0,458.913,0.0,0,2019-12-02 08:49:13.000,107,2019-12-02 08:56:51.308,0.25,-90,-180,-180,-90,1
7276,59,0,466.96,1,0,1,0.25,2,3,0.0,0.0,12,45.0,30.0,3,0.7509999999999999,1.0,467.509,0.0,0,2019-12-02 08:49:13.000,107,2019-12-02 08:56:59.960,0.25,-90,-180,-180,-90,1
7277,63,0,486.032,0,0,1,0.25,2,9,0.0,0.0,6,45.0,30.0,9,0.8009999999999999,1.0,486.733,0.17,1,2019-12-02 08:49:13.000,107,2019-12-02 08:57:19.032,0.25,-90,0,0,-90,1
7278,64,0,491.106,0,0,1,0.25,2,9,0.0,0.0,6,45.0,30.0,9,0.701,1.0,491.536,0.17,1,2019-12-02 08:49:13.000,107,2019-12-02 08:57:24.106,0.25,-90,0,0,-90,1
7279,65,0,506.316,0,0,1,0.25,2,9,0.0,0.0,6,45.0,30.0,9,0.901,1.0,507.317,0.17,1,2019-12-02 08:49:13.000,107,2019-12-02 08:57:39.316,0.25,-90,0,0,-90,1
7280,66,0,511.886,0,0,1,0.25,2,3,0.0,0.0,12,45.0,30.0,3,0.8009999999999999,0.0,512.889,0.13,1,2019-12-02 08:49:13.000,107,2019-12-02 08:57:44.886,0.25,90,-180,-180,90,1
7281,67,0,514.74,0,0,1,0.25,2,9,0.0,0.0,6,45.0,30.0,9,0.7509999999999999,0.0,515.6030000000002,0.0,0,2019-12-02 08:49:13.000,107,2019-12-02 08:57:47.740,0.25,90,0,0,90,1
7720,146,0,813.367,0,90,1,0.25,2,3,0.0,0.0,9,45.0,30.0,3,0.851,0.0,813.921,0.13,1,2019-12-03 14:12:31.000,188,2019-12-03 14:26:04.367,0.25,90,-90,-180,0,1
7721,147,0,818.5110000000002,0,90,1,0.25,2,9,0.0,0.0,3,45.0,30.0,9,0.7509999999999999,1.0,819.0160000000002,0.17,1,2019-12-03 14:12:31.000,188,2019-12-03 14:26:09.511,0.25,-90,90,0,-180,1
7722,148,0,826.1260000000002,0,90,1,0.25,2,3,0.0,0.0,9,45.0,30.0,3,0.8009999999999999,0.0,826.9739999999998,0.13,1,2019-12-03 14:12:31.000,188,2019-12-03 14:26:17.126,0.25,90,-90,-180,0,1
7723,149,0,829.965,0,90,1,0.25,2,3,0.0,0.0,9,45.0,30.0,3,0.701,0.0,830.813,0.13,1,2019-12-03 14:12:31.000,188,2019-12-03 14:26:20.965,0.25,90,-90,-180,0,1
7724,150,0,834.8389999999998,0,90,1,0.25,2,3,0.0,0.0,9,45.0,30.0,3,0.901,1.0,835.2339999999998,0.0,0,2019-12-03 14:12:31.000,188,2019-12-03 14:26:25.839,0.25,-90,-90,-180,-180,1
7725,154,0,876.579,0,90,1,0.25,2,9,0.0,0.0,3,45.0,30.0,9,0.8009999999999999,1.0,877.15,0.17,1,2019-12-03 14:12:31.000,188,2019-12-03 14:27:07.579,0.25,-90,90,0,-180,1
7726,155,0,881.034,0,90,1,0.25,2,3,0.0,0.0,9,45.0,30.0,3,0.7509999999999999,0.0,881.6469999999998,0.13,1,2019-12-03 14:12:31.000,188,2019-12-03 14:27:12.034,0.25,90,-90,-180,0,1
7727,156,0,885.0260000000002,0,90,1,0.25,2,3,0.0,0.0,9,45.0,30.0,3,0.8009999999999999,0.0,885.915,0.13,1,2019-12-03 14:12:31.000,188,2019-12-03 14:27:16.026,0.25,90,-90,-180,0,1
7728,157,0,889.383,0,90,1,0.25,2,3,0.0,0.0,9,45.0,30.0,3,0.851,0.0,890.061,0.13,1,2019-12-03 14:12:31.000,188,2019-12-03 14:27:20.383,0.25,90,-90,-180,0,1
7729,158,0,893.434,0,90,1,0.25,2,9,0.0,0.0,3,45.0,30.0,9,0.7509999999999999,1.0,893.956,0.17,1,2019-12-03 14:12:31.000,188,2019-12-03 14:27:24.434,0.25,-90,90,0,-180,1
7845,137,0,805.0360000000002,0,0,1,0.25,2,9,0.0,0.0,6,45.0,30.0,9,0.901,1.0,805.41,0.17,1,2019-12-04 08:44:14.000,4,2019-12-04 08:57:39.036,0.25,-90,0,0,-90,1
7846,138,0,809.5269999999998,0,0,1,0.25,2,9,0.0,0.0,6,45.0,30.0,9,0.8009999999999999,1.0,809.801,0.17,1,2019-12-04 08:44:14.000,4,2019-12-04 08:57:43.527,0.25,-90,0,0,-90,1
7847,139,0,814.62,0,0,1,0.25,2,3,0.0,0.0,12,45.0,30.0,3,0.7509999999999999,1.0,815.0210000000002,0.0,0,2019-12-04 08:44:14.000,4,2019-12-04 08:57:48.620,0.25,-90,-180,-180,-90,1
7848,143,0,856.677,0,0,1,0.25,2,9,0.0,0.0,6,45.0,30.0,9,0.851,1.0,857.155,0.17,1,2019-12-04 08:44:14.000,4,2019-12-04 08:58:30.677,0.25,-90,0,0,-90,1
7849,144,0,869.2310000000001,0,0,1,0.25,2,9,0.0,0.0,6,45.0,30.0,9,0.901,1.0,869.669,0.17,1,2019-12-04 08:44:14.000,4,2019-12-04 08:58:43.231,0.25,-90,0,0,-90,1
7850,145,0,873.826,0,0,1,0.25,2,9,0.0,0.0,6,45.0,30.0,9,0.701,1.0,874.3839999999999,0.17,1,2019-12-04 08:44:14.000,4,2019-12-04 08:58:47.826,0.25,-90,0,0,-90,1
7851,146,0,879.33,0,0,1,0.25,2,3,0.0,0.0,12,45.0,30.0,3,0.701,1.0,879.988,0.0,0,2019-12-04 08:44:14.000,4,2019-12-04 08:58:53.330,0.25,-90,-180,-180,-90,1
7852,148,0,885.0319999999998,0,0,1,0.25,2,3,0.0,0.0,12,45.0,30.0,3,0.7509999999999999,0.0,885.663,0.13,1,2019-12-04 08:44:14.000,4,2019-12-04 08:58:59.032,0.25,90,-180,-180,90,1
7853,149,0,888.6419999999998,0,0,1,0.25,2,3,0.0,0.0,12,45.0,30.0,3,0.8009999999999999,1.0,889.2330000000002,0.0,0,2019-12-04 08:44:14.000,4,2019-12-04 08:59:02.642,0.25,-90,-180,-180,-90,1
7854,153,0,944.81,0,0,1,0.25,2,3,0.0,0.0,12,45.0,30.0,3,0.701,1.0,945.312,0.0,0,2019-12-04 08:44:14.000,4,2019-12-04 08:59:58.810,0.25,-90,-180,-180,-90,1
8018,208,0,1315.7020000000002,0,-90,1,0.25,2,9,0.0,0.0,9,45.0,30.0,9,0.8009999999999999,1.0,1316.6660000000004,0.17,1,2019-12-04 14:11:38.000,103,2019-12-04 14:33:33.702,0.25,-90,-90,0,0,1
8019,209,0,1321.104,0,-90,1,0.25,2,9,0.0,0.0,9,45.0,30.0,9,0.901,1.0,1321.817,0.17,1,2019-12-04 14:11:38.000,103,2019-12-04 14:33:39.104,0.25,-90,-90,0,0,1
8020,210,0,1326.203,0,-90,1,0.25,2,3,0.0,0.0,3,45.0,30.0,3,0.7509999999999999,0.0,1327.196,0.13,1,2019-12-04 14:11:38.000,103,2019-12-04 14:33:44.203,0.25,90,90,-180,-180,1
8021,211,0,1329.214,0,-90,1,0.25,2,3,0.0,0.0,3,45.0,30.0,3,0.8009999999999999,1.0,1330.006,0.0,0,2019-12-04 14:11:38.000,103,2019-12-04 14:33:47.214,0.25,-90,90,-180,0,1
8022,213,0,1343.7179999999996,0,-90,1,0.25,2,9,0.0,0.0,9,45.0,30.0,9,0.901,1.0,1345.427,0.17,1,2019-12-04 14:11:38.000,103,2019-12-04 14:34:01.718,0.25,-90,-90,0,0,1
8023,214,0,1349.759,0,-90,1,0.25,2,9,0.0,0.0,9,45.0,30.0,9,0.851,1.0,1350.02,0.17,1,2019-12-04 14:11:38.000,103,2019-12-04 14:34:07.759,0.25,-90,-90,0,0,1
8024,215,0,1354.339,0,-90,1,0.25,2,9,0.0,0.0,9,45.0,30.0,9,0.701,1.0,1354.882,0.17,1,2019-12-04 14:11:38.000,103,2019-12-04 14:34:12.339,0.25,-90,-90,0,0,1
8025,216,0,1363.991,0,-90,1,0.25,2,9,0.0,0.0,9,45.0,30.0,9,0.8009999999999999,1.0,1364.364,0.17,1,2019-12-04 14:11:38.000,103,2019-12-04 14:34:21.991,0.25,-90,-90,0,0,1
8026,217,0,1368.99,0,-90,1,0.25,2,9,0.0,0.0,9,45.0,30.0,9,0.701,1.0,1369.455,0.17,1,2019-12-04 14:11:38.000,103,2019-12-04 14:34:26.990,0.25,-90,-90,0,0,1
8027,218,0,1375.161,0,-90,1,0.25,2,3,0.0,0.0,3,45.0,30.0,3,0.901,1.0,1375.486,0.0,0,2019-12-04 14:11:38.000,103,2019-12-04 14:34:33.161,0.25,-90,90,-180,0,1
8180,180,0,1127.9,0,0,1,0.25,2,9,0.0,0.0,6,45.0,30.0,9,0.701,1.0,1128.768,0.17,1,2019-12-05 08:39:38.000,236,2019-12-05 08:58:25.900,0.25,-90,0,0,-90,1
8181,181,0,1132.803,0,0,1,0.25,2,9,0.0,0.0,6,45.0,30.0,9,0.901,1.0,1133.226,0.17,1,2019-12-05 08:39:38.000,236,2019-12-05 08:58:30.803,0.25,-90,0,0,-90,1
8182,182,0,1137.515,0,0,1,0.25,2,3,0.0,0.0,12,45.0,30.0,3,0.8009999999999999,0.0,1137.905,0.13,1,2019-12-05 08:39:38.000,236,2019-12-05 08:58:35.515,0.25,90,-180,-180,90,1
8183,183,0,1141.9489999999996,0,0,1,0.25,2,3,0.0,0.0,12,45.0,30.0,3,0.851,0.0,1142.863,0.13,1,2019-12-05 08:39:38.000,236,2019-12-05 08:58:39.949,0.25,90,-180,-180,90,1
8184,184,0,1146.546,0,0,1,0.25,2,3,0.0,0.0,12,45.0,30.0,3,0.701,0.0,1147.423,0.13,1,2019-12-05 08:39:38.000,236,2019-12-05 08:58:44.546,0.25,90,-180,-180,90,1
8185,185,0,1150.779,0,0,1,0.25,2,3,0.0,0.0,12,45.0,30.0,3,0.7509999999999999,0.0,1151.524,0.13,1,2019-12-05 08:39:38.000,236,2019-12-05 08:58:48.779,0.25,90,-180,-180,90,1
8186,186,0,1155.259,0,0,1,0.25,2,9,0.0,0.0,6,45.0,30.0,9,0.901,1.0,1156.246,0.17,1,2019-12-05 08:39:38.000,236,2019-12-05 08:58:53.259,0.25,-90,0,0,-90,1
8187,187,0,1161.489,0,0,1,0.25,2,9,0.0,0.0,6,45.0,30.0,9,0.701,1.0,1162.586,0.17,1,2019-12-05 08:39:38.000,236,2019-12-05 08:58:59.489,0.25,-90,0,0,-90,1
8188,188,0,1169.2089999999996,0,0,1,0.25,2,3,0.0,0.0,12,45.0,30.0,3,0.7509999999999999,0.0,1169.769,0.13,1,2019-12-05 08:39:38.000,236,2019-12-05 08:59:07.209,0.25,90,-180,-180,90,1
8189,189,0,1173.097,0,0,1,0.25,2,9,0.0,0.0,6,45.0,30.0,9,0.8009999999999999,1.0,1173.684,0.17,1,2019-12-05 08:39:38.000,236,2019-12-05 08:59:11.097,0.25,-90,0,0,-90,1
8364,211,0,1201.422,0,-120,1,0.25,2,3,0.0,0.0,4,45.0,30.0,3,0.851,0.0,1202.211,0.13,1,2019-12-05 15:36:49.000,39,2019-12-05 15:56:50.422,0.25,90,60,-180,-150,1
8365,212,0,1206.528,0,-120,1,0.25,2,3,0.0,0.0,4,45.0,30.0,3,0.7509999999999999,0.0,1207.601,0.13,1,2019-12-05 15:36:49.000,39,2019-12-05 15:56:55.528,0.25,90,60,-180,-150,1
8366,213,0,1210.997,0,-120,1,0.25,2,3,0.0,0.0,4,45.0,30.0,3,0.701,1.0,1211.73,0.0,0,2019-12-05 15:36:49.000,39,2019-12-05 15:56:59.997,0.25,-90,60,-180,30,1
8367,216,0,1233.272,0,-120,1,0.25,2,3,0.0,0.0,4,45.0,30.0,3,0.701,1.0,1233.846,0.0,0,2019-12-05 15:36:49.000,39,2019-12-05 15:57:22.272,0.25,-90,60,-180,30,1
8368,218,0,1249.139,0,-120,1,0.25,2,3,0.0,0.0,4,45.0,30.0,3,0.8009999999999999,1.0,1249.688,0.0,0,2019-12-05 15:36:49.000,39,2019-12-05 15:57:38.139,0.25,-90,60,-180,30,1
8369,220,0,1258.256,0,-120,1,0.25,2,3,0.0,0.0,4,45.0,30.0,3,0.901,1.0,1258.962,0.0,0,2019-12-05 15:36:49.000,39,2019-12-05 15:57:47.256,0.25,-90,60,-180,30,1
8370,222,0,1268.307,0,-120,1,0.25,2,9,0.0,0.0,10,45.0,30.0,9,0.701,1.0,1269.044,0.17,1,2019-12-05 15:36:49.000,39,2019-12-05 15:57:57.307,0.25,-90,-120,0,30,1
8371,223,0,1285.424,0,-120,1,0.25,2,9,0.0,0.0,10,45.0,30.0,9,0.901,1.0,1286.152,0.17,1,2019-12-05 15:36:49.000,39,2019-12-05 15:58:14.424,0.25,-90,-120,0,30,1
8372,224,0,1289.952,0,-120,1,0.25,2,3,0.0,0.0,4,45.0,30.0,3,0.7509999999999999,1.0,1290.518,0.0,0,2019-12-05 15:36:49.000,39,2019-12-05 15:58:18.952,0.25,-90,60,-180,30,1
8373,226,0,1300.45,0,-120,1,0.25,2,3,0.0,0.0,4,45.0,30.0,3,0.7509999999999999,1.0,1301.039,0.0,0,2019-12-05 15:36:49.000,39,2019-12-05 15:58:29.450,0.25,-90,60,-180,30,1
8530,175,0,915.251,0,0,1,0.25,2,3,0.0,0.0,12,45.0,30.0,3,0.851,0.0,915.791,0.13,1,2019-12-06 08:44:50.000,158,2019-12-06 09:00:05.251,0.25,90,-180,-180,90,1
8531,176,0,920.084,0,0,1,0.25,2,3,0.0,0.0,12,45.0,30.0,3,0.701,0.0,921.292,0.13,1,2019-12-06 08:44:50.000,158,2019-12-06 09:00:10.084,0.25,90,-180,-180,90,1
8532,177,0,925.097,0,0,1,0.25,2,3,0.0,0.0,12,45.0,30.0,3,0.7509999999999999,0.0,925.716,0.13,1,2019-12-06 08:44:50.000,158,2019-12-06 09:00:15.097,0.25,90,-180,-180,90,1
8533,178,0,929.593,0,0,1,0.25,2,9,0.0,0.0,6,45.0,30.0,9,0.8009999999999999,1.0,929.994,0.17,1,2019-12-06 08:44:50.000,158,2019-12-06 09:00:19.593,0.25,-90,0,0,-90,1
8534,179,0,935.065,0,0,1,0.25,2,9,0.0,0.0,6,45.0,30.0,9,0.901,1.0,935.371,0.17,1,2019-12-06 08:44:50.000,158,2019-12-06 09:00:25.065,0.25,-90,0,0,-90,1
8535,180,0,939.048,0,0,1,0.25,2,3,0.0,0.0,12,45.0,30.0,3,0.851,0.0,939.438,0.13,1,2019-12-06 08:44:50.000,158,2019-12-06 09:00:29.048,0.25,90,-180,-180,90,1
8536,181,0,943.483,0,0,1,0.25,2,9,0.0,0.0,6,45.0,30.0,9,0.901,1.0,944.177,0.17,1,2019-12-06 08:44:50.000,158,2019-12-06 09:00:33.483,0.25,-90,0,0,-90,1
8537,182,0,948.48,0,0,1,0.25,2,3,0.0,0.0,12,45.0,30.0,3,0.7509999999999999,0.0,948.815,0.13,1,2019-12-06 08:44:50.000,158,2019-12-06 09:00:38.480,0.25,90,-180,-180,90,1
8538,183,0,952.113,0,0,1,0.25,2,3,0.0,0.0,12,45.0,30.0,3,0.701,0.0,952.667,0.13,1,2019-12-06 08:44:50.000,158,2019-12-06 09:00:42.113,0.25,90,-180,-180,90,1
8539,184,0,957.462,0,0,1,0.25,2,9,0.0,0.0,6,45.0,30.0,9,0.851,1.0,957.994,0.17,1,2019-12-06 08:44:50.000,158,2019-12-06 09:00:47.462,0.25,-90,0,0,-90,1
8693,205,0,1202.803,0,120,1,0.25,2,9,0.0,0.0,2,45.0,30.0,9,0.7509999999999999,1.0,1203.251,0.17,1,2019-12-06 14:05:07.000,76,2019-12-06 14:25:09.803,0.25,-90,120,0,150,1
8694,206,0,1206.085,0,120,1,0.25,2,9,0.0,0.0,2,45.0,30.0,9,0.701,1.0,1206.752,0.17,1,2019-12-06 14:05:07.000,76,2019-12-06 14:25:13.085,0.25,-90,120,0,150,1
8695,207,0,1211.778,0,120,1,0.25,2,3,0.0,0.0,8,45.0,30.0,3,0.7509999999999999,0.0,1212.415,0.13,1,2019-12-06 14:05:07.000,76,2019-12-06 14:25:18.778,0.25,90,-60,-180,-30,1
8696,208,0,1216.715,0,120,1,0.25,2,3,0.0,0.0,8,45.0,30.0,3,0.901,1.0,1217.689,0.0,0,2019-12-06 14:05:07.000,76,2019-12-06 14:25:23.715,0.25,-90,-60,-180,150,1
8697,210,0,1226.876,0,120,1,0.25,2,9,0.0,0.0,2,45.0,30.0,9,0.851,1.0,1227.397,0.17,1,2019-12-06 14:05:07.000,76,2019-12-06 14:25:33.876,0.25,-90,120,0,150,1
8698,211,0,1235.661,0,120,1,0.25,2,9,0.0,0.0,2,45.0,30.0,9,0.851,1.0,1236.729,0.17,1,2019-12-06 14:05:07.000,76,2019-12-06 14:25:42.661,0.25,-90,120,0,150,1
8699,212,0,1240.278,0,120,1,0.25,2,9,0.0,0.0,2,45.0,30.0,9,0.701,0.0,1241.134,0.0,0,2019-12-06 14:05:07.000,76,2019-12-06 14:25:47.278,0.25,90,120,0,-30,1
8700,215,0,1257.158,0,120,1,0.25,2,9,0.0,0.0,2,45.0,30.0,9,0.7509999999999999,1.0,1257.482,0.17,1,2019-12-06 14:05:07.000,76,2019-12-06 14:26:04.158,0.25,-90,120,0,150,1
8701,216,0,1262.577,0,120,1,0.25,2,9,0.0,0.0,2,45.0,30.0,9,0.851,1.0,1263.076,0.17,1,2019-12-06 14:05:07.000,76,2019-12-06 14:26:09.577,0.25,-90,120,0,150,1
8702,217,0,1270.5839999999996,0,120,1,0.25,2,3,0.0,0.0,8,45.0,30.0,3,0.901,1.0,1271.455,0.0,0,2019-12-06 14:05:07.000,76,2019-12-06 14:26:17.584,0.25,-90,-60,-180,150,1
8740,46,0,270.467,0,0,1,0.25,2,3,0.0,0.0,12,45.0,30.0,3,0.7509999999999999,0.0,270.818,0.13,1,2019-12-09 08:32:16.000,186,2019-12-09 08:36:46.467,0.25,90,-180,-180,90,1
8741,47,0,274.91700000000003,0,0,1,0.25,2,9,0.0,0.0,6,45.0,30.0,9,0.901,0.0,275.28700000000003,0.0,0,2019-12-09 08:32:16.000,186,2019-12-09 08:36:50.917,0.25,90,0,0,90,1
8742,50,0,311.51,0,0,1,0.25,2,3,0.0,0.0,12,45.0,30.0,3,0.851,0.0,311.755,0.13,1,2019-12-09 08:32:16.000,186,2019-12-09 08:37:27.510,0.25,90,-180,-180,90,1
8743,51,0,313.63,0,0,1,0.25,2,3,0.0,0.0,12,45.0,30.0,3,0.7509999999999999,1.0,314.459,0.0,0,2019-12-09 08:32:16.000,186,2019-12-09 08:37:29.630,0.25,-90,-180,-180,-90,1
8744,53,0,321.91,0,0,1,0.25,2,3,0.0,0.0,12,45.0,30.0,3,0.851,0.0,322.1740000000001,0.13,1,2019-12-09 08:32:16.000,186,2019-12-09 08:37:37.910,0.25,90,-180,-180,90,1
8745,54,0,325.421,0,0,1,0.25,2,3,0.0,0.0,12,45.0,30.0,3,0.701,0.0,325.866,0.13,1,2019-12-09 08:32:16.000,186,2019-12-09 08:37:41.421,0.25,90,-180,-180,90,1
8746,55,0,329.408,0,0,1,0.25,2,9,0.0,0.0,6,45.0,30.0,9,0.901,1.0,330.0619999999999,0.17,1,2019-12-09 08:32:16.000,186,2019-12-09 08:37:45.408,0.25,-90,0,0,-90,1
8747,56,0,334.612,0,0,1,0.25,2,3,0.0,0.0,12,45.0,30.0,3,0.851,0.0,335.00699999999995,0.13,1,2019-12-09 08:32:16.000,186,2019-12-09 08:37:50.612,0.25,90,-180,-180,90,1
8748,57,0,338.696,0,0,1,0.25,2,9,0.0,0.0,6,45.0,30.0,9,0.7509999999999999,1.0,339.42,0.17,1,2019-12-09 08:32:16.000,186,2019-12-09 08:37:54.696,0.25,-90,0,0,-90,1
8749,58,0,344.057,0,0,1,0.25,2,3,0.0,0.0,12,45.0,30.0,3,0.8009999999999999,1.0,344.286,0.0,0,2019-12-09 08:32:16.000,186,2019-12-09 08:38:00.057,0.25,-90,-180,-180,-90,1
9094,196,0,1063.369,0,-150,1,0.25,2,3,0.0,0.0,5,45.0,30.0,3,0.901,1.0,1063.782,0.0,0,2019-12-10 14:01:39.000,164,2019-12-10 14:19:22.369,0.25,-90,30,-180,60,1
9095,198,0,1073.172,0,-150,1,0.25,2,3,0.0,0.0,5,45.0,30.0,3,0.701,0.0,1073.889,0.13,1,2019-12-10 14:01:39.000,164,2019-12-10 14:19:32.172,0.25,90,30,-180,-120,1
9096,199,0,1077.367,0,-150,1,0.25,2,3,0.0,0.0,5,45.0,30.0,3,0.8009999999999999,0.0,1077.964,0.13,1,2019-12-10 14:01:39.000,164,2019-12-10 14:19:36.367,0.25,90,30,-180,-120,1
9097,200,0,1081.557,0,-150,1,0.25,2,9,0.0,0.0,11,45.0,30.0,9,0.7509999999999999,1.0,1082.218,0.17,1,2019-12-10 14:01:39.000,164,2019-12-10 14:19:40.557,0.25,-90,-150,0,60,1
9098,201,0,1086.588,0,-150,1,0.25,2,3,0.0,0.0,5,45.0,30.0,3,0.851,0.0,1086.978,0.13,1,2019-12-10 14:01:39.000,164,2019-12-10 14:19:45.588,0.25,90,30,-180,-120,1
9099,202,0,1090.486,0,-150,1,0.25,2,3,0.0,0.0,5,45.0,30.0,3,0.8009999999999999,1.0,1091.033,0.0,0,2019-12-10 14:01:39.000,164,2019-12-10 14:19:49.486,0.25,-90,30,-180,60,1
9100,204,0,1101.127,0,-150,1,0.25,2,3,0.0,0.0,5,45.0,30.0,3,0.7509999999999999,0.0,1101.759,0.13,1,2019-12-10 14:01:39.000,164,2019-12-10 14:20:00.127,0.25,90,30,-180,-120,1
9101,205,0,1114.094,0,-150,1,0.25,2,3,0.0,0.0,5,45.0,30.0,3,0.901,0.0,1114.714,0.13,1,2019-12-10 14:01:39.000,164,2019-12-10 14:20:13.094,0.25,90,30,-180,-120,1
9102,206,0,1118.987,0,-150,1,0.25,2,3,0.0,0.0,5,45.0,30.0,3,0.851,0.0,1119.8,0.13,1,2019-12-10 14:01:39.000,164,2019-12-10 14:20:17.987,0.25,90,30,-180,-120,1
9103,207,0,1123.4589999999996,0,-150,1,0.25,2,3,0.0,0.0,5,45.0,30.0,3,0.701,1.0,1123.835,0.0,0,2019-12-10 14:01:39.000,164,2019-12-10 14:20:22.459,0.25,-90,30,-180,60,1
9295,231,0,1283.07,0,0,1,0.25,2,3,0.0,0.0,12,45.0,30.0,3,0.8009999999999999,0.0,1283.608,0.13,1,2019-12-11 08:44:51.000,32,2019-12-11 09:06:14.070,0.25,90,-180,-180,90,1
9296,232,0,1287.5410000000004,0,0,1,0.25,2,9,0.0,0.0,6,45.0,30.0,9,0.701,1.0,1288.351,0.17,1,2019-12-11 08:44:51.000,32,2019-12-11 09:06:18.541,0.25,-90,0,0,-90,1
9297,233,0,1292.743,0,0,1,0.25,2,3,0.0,0.0,12,45.0,30.0,3,0.901,0.0,1293.591,0.13,1,2019-12-11 08:44:51.000,32,2019-12-11 09:06:23.743,0.25,90,-180,-180,90,1
9298,234,0,1298.163,0,0,1,0.25,2,9,0.0,0.0,6,45.0,30.0,9,0.851,1.0,1298.905,0.17,1,2019-12-11 08:44:51.000,32,2019-12-11 09:06:29.163,0.25,-90,0,0,-90,1
9299,235,0,1302.266,0,0,1,0.25,2,9,0.0,0.0,6,45.0,30.0,9,0.7509999999999999,1.0,1303.175,0.17,1,2019-12-11 08:44:51.000,32,2019-12-11 09:06:33.266,0.25,-90,0,0,-90,1
9300,236,0,1311.237,0,0,1,0.25,2,3,0.0,0.0,12,45.0,30.0,3,0.7509999999999999,0.0,1311.734,0.13,1,2019-12-11 08:44:51.000,32,2019-12-11 09:06:42.237,0.25,90,-180,-180,90,1
9301,237,0,1315.027,0,0,1,0.25,2,9,0.0,0.0,6,45.0,30.0,9,0.901,1.0,1315.3970000000004,0.17,1,2019-12-11 08:44:51.000,32,2019-12-11 09:06:46.027,0.25,-90,0,0,-90,1
9302,238,0,1320.5079999999996,0,0,1,0.25,2,3,0.0,0.0,12,45.0,30.0,3,0.701,0.0,1321.439,0.13,1,2019-12-11 08:44:51.000,32,2019-12-11 09:06:51.508,0.25,90,-180,-180,90,1
9303,239,0,1325.509,0,0,1,0.25,2,9,0.0,0.0,6,45.0,30.0,9,0.8009999999999999,1.0,1325.862,0.17,1,2019-12-11 08:44:51.000,32,2019-12-11 09:06:56.509,0.25,-90,0,0,-90,1
9304,240,0,1330.5839999999996,0,0,1,0.25,2,3,0.0,0.0,12,45.0,30.0,3,0.851,1.0,1331.418,0.0,0,2019-12-11 08:44:51.000,32,2019-12-11 09:07:01.584,0.25,-90,-180,-180,-90,1
9457,184,0,1064.086,0,150,1,0.25,2,3,0.0,0.0,7,45.0,30.0,3,0.851,1.0,1064.611,0.0,0,2019-12-11 14:16:48.000,93,2019-12-11 14:34:32.086,0.25,-90,-30,-180,120,1
9458,186,0,1099.802,0,150,1,0.25,2,3,0.0,0.0,7,45.0,30.0,3,0.851,0.0,1100.305,0.13,1,2019-12-11 14:16:48.000,93,2019-12-11 14:35:07.802,0.25,90,-30,-180,-60,1
9459,187,0,1103.986,0,150,1,0.25,2,9,0.0,0.0,1,45.0,30.0,9,0.7509999999999999,1.0,1104.452,0.17,1,2019-12-11 14:16:48.000,93,2019-12-11 14:35:11.986,0.25,-90,150,0,120,1
9460,188,0,1108.996,0,150,1,0.25,2,3,0.0,0.0,7,45.0,30.0,3,0.8009999999999999,1.0,1109.793,0.0,0,2019-12-11 14:16:48.000,93,2019-12-11 14:35:16.996,0.25,-90,-30,-180,120,1
9461,191,0,1124.478,0,150,1,0.25,2,9,0.0,0.0,1,45.0,30.0,9,0.701,1.0,1125.304,0.17,1,2019-12-11 14:16:48.000,93,2019-12-11 14:35:32.478,0.25,-90,150,0,120,1
9462,192,0,1129.78,0,150,1,0.25,2,3,0.0,0.0,7,45.0,30.0,3,0.851,0.0,1130.322,0.13,1,2019-12-11 14:16:48.000,93,2019-12-11 14:35:37.780,0.25,90,-30,-180,-60,1
9463,193,0,1133.956,0,150,1,0.25,2,3,0.0,0.0,7,45.0,30.0,3,0.8009999999999999,0.0,1134.731,0.13,1,2019-12-11 14:16:48.000,93,2019-12-11 14:35:41.956,0.25,90,-30,-180,-60,1
9464,194,0,1139.286,0,150,1,0.25,2,9,0.0,0.0,1,45.0,30.0,9,0.901,0.0,1139.831,0.0,0,2019-12-11 14:16:48.000,93,2019-12-11 14:35:47.286,0.25,90,150,0,-60,1
9465,196,0,1152.497,0,150,1,0.25,2,3,0.0,0.0,7,45.0,30.0,3,0.851,1.0,1153.268,0.0,0,2019-12-11 14:16:48.000,93,2019-12-11 14:36:00.497,0.25,-90,-30,-180,120,1
9466,199,0,1183.498,0,150,1,0.25,2,9,0.0,0.0,1,45.0,30.0,9,0.701,1.0,1184.226,0.17,1,2019-12-11 14:16:48.000,93,2019-12-11 14:36:31.498,0.25,-90,150,0,120,1
9625,182,0,971.387,0,0,1,0.25,2,9,0.0,0.0,6,45.0,30.0,9,0.701,1.0,972.007,0.17,1,2019-12-12 08:41:58.000,78,2019-12-12 08:58:09.387,0.25,-90,0,0,-90,1
9626,183,0,976.663,0,0,1,0.25,2,3,0.0,0.0,12,45.0,30.0,3,0.851,0.0,977.431,0.13,1,2019-12-12 08:41:58.000,78,2019-12-12 08:58:14.663,0.25,90,-180,-180,90,1
9627,184,0,980.642,0,0,1,0.25,2,9,0.0,0.0,6,45.0,30.0,9,0.7509999999999999,1.0,981.654,0.17,1,2019-12-12 08:41:58.000,78,2019-12-12 08:58:18.642,0.25,-90,0,0,-90,1
9628,185,0,985.847,0,0,1,0.25,2,3,0.0,0.0,12,45.0,30.0,3,0.8009999999999999,0.0,986.376,0.13,1,2019-12-12 08:41:58.000,78,2019-12-12 08:58:23.847,0.25,90,-180,-180,90,1
9629,186,0,990.278,0,0,1,0.25,2,9,0.0,0.0,6,45.0,30.0,9,0.901,1.0,991.381,0.17,1,2019-12-12 08:41:58.000,78,2019-12-12 08:58:28.278,0.25,-90,0,0,-90,1
9630,187,0,995.472,0,0,1,0.25,2,9,0.0,0.0,6,45.0,30.0,9,0.851,1.0,995.861,0.17,1,2019-12-12 08:41:58.000,78,2019-12-12 08:58:33.472,0.25,-90,0,0,-90,1
9631,188,0,1001.067,0,0,1,0.25,2,3,0.0,0.0,12,45.0,30.0,3,0.701,1.0,1001.771,0.0,0,2019-12-12 08:41:58.000,78,2019-12-12 08:58:39.067,0.25,-90,-180,-180,-90,1
9632,190,0,1041.394,0,0,1,0.25,2,3,0.0,0.0,12,45.0,30.0,3,0.7509999999999999,1.0,1041.822,0.0,0,2019-12-12 08:41:58.000,78,2019-12-12 08:59:19.394,0.25,-90,-180,-180,-90,1
9633,192,0,1051.055,0,0,1,0.25,2,3,0.0,0.0,12,45.0,30.0,3,0.901,1.0,1051.661,0.0,0,2019-12-12 08:41:58.000,78,2019-12-12 08:59:29.055,0.25,-90,-180,-180,-90,1
9634,194,0,1059.491,0,0,1,0.25,2,3,0.0,0.0,12,45.0,30.0,3,0.8009999999999999,0.0,1060.096,0.13,1,2019-12-12 08:41:58.000,78,2019-12-12 08:59:37.491,0.25,90,-180,-180,90,1
10030,167,0,919.757,0,-30,1,0.25,2,9,0.0,0.0,7,45.0,30.0,9,0.7509999999999999,1.0,920.245,0.17,1,2019-12-13 08:42:19.000,227,2019-12-13 08:57:38.757,0.25,-90,-30,0,-60,1
10031,168,0,924.468,0,-30,1,0.25,2,9,0.0,0.0,7,45.0,30.0,9,0.851,1.0,924.872,0.17,1,2019-12-13 08:42:19.000,227,2019-12-13 08:57:43.468,0.25,-90,-30,0,-60,1
10032,169,0,930.726,0,-30,1,0.25,2,9,0.0,0.0,7,45.0,30.0,9,0.8009999999999999,1.0,931.052,0.17,1,2019-12-13 08:42:19.000,227,2019-12-13 08:57:49.726,0.25,-90,-30,0,-60,1
10033,170,0,936.049,0,-30,1,0.25,2,3,0.0,0.0,1,45.0,30.0,3,0.901,0.0,936.279,0.13,1,2019-12-13 08:42:19.000,227,2019-12-13 08:57:55.049,0.25,90,150,-180,120,1
10034,171,0,939.865,0,-30,1,0.25,2,9,0.0,0.0,7,45.0,30.0,9,0.7509999999999999,1.0,940.596,0.17,1,2019-12-13 08:42:19.000,227,2019-12-13 08:57:58.865,0.25,-90,-30,0,-60,1
10035,172,0,945.502,0,-30,1,0.25,2,9,0.0,0.0,7,45.0,30.0,9,0.701,1.0,946.329,0.17,1,2019-12-13 08:42:19.000,227,2019-12-13 08:58:04.502,0.25,-90,-30,0,-60,1
10036,173,0,951.909,0,-30,1,0.25,2,3,0.0,0.0,1,45.0,30.0,3,0.851,0.0,952.336,0.13,1,2019-12-13 08:42:19.000,227,2019-12-13 08:58:10.909,0.25,90,150,-180,120,1
10037,174,0,955.607,0,-30,1,0.25,2,9,0.0,0.0,7,45.0,30.0,9,0.8009999999999999,1.0,955.88,0.17,1,2019-12-13 08:42:19.000,227,2019-12-13 08:58:14.607,0.25,-90,-30,0,-60,1
10038,175,0,962.748,0,-30,1,0.25,2,9,0.0,0.0,7,45.0,30.0,9,0.901,0.0,963.091,0.0,0,2019-12-13 08:42:19.000,227,2019-12-13 08:58:21.748,0.25,90,-30,0,120,1
10039,177,0,972.88,0,-30,1,0.25,2,3,0.0,0.0,1,45.0,30.0,3,0.851,1.0,973.301,0.0,0,2019-12-13 08:42:19.000,227,2019-12-13 08:58:31.880,0.25,-90,150,-180,-60,1
10274,103,0,613.964,0,0,1,0.25,2,3,0.0,0.0,12,45.0,30.0,3,0.901,0.0,614.248,0.13,1,2019-12-16 08:40:12.000,54,2019-12-16 08:50:25.964,0.25,90,-180,-180,90,1
10275,104,0,616.7,0,0,1,0.25,2,9,0.0,0.0,6,45.0,30.0,9,0.7509999999999999,1.0,617.234,0.17,1,2019-12-16 08:40:12.000,54,2019-12-16 08:50:28.700,0.25,-90,0,0,-90,1
10277,106,0,625.168,0,0,1,0.25,2,3,0.0,0.0,12,45.0,30.0,3,0.8009999999999999,0.0,625.62,0.13,1,2019-12-16 08:40:12.000,54,2019-12-16 08:50:37.168,0.25,90,-180,-180,90,1
10278,107,0,629.7869999999998,0,0,1,0.25,2,9,0.0,0.0,6,45.0,30.0,9,0.901,1.0,630.039,0.17,1,2019-12-16 08:40:12.000,54,2019-12-16 08:50:41.787,0.25,-90,0,0,-90,1
10279,108,0,633.9169999999998,0,0,1,0.25,2,9,0.0,0.0,6,45.0,30.0,9,0.701,1.0,634.322,0.17,1,2019-12-16 08:40:12.000,54,2019-12-16 08:50:45.917,0.25,-90,0,0,-90,1
10280,109,0,638.6619999999998,0,0,1,0.25,2,9,0.0,0.0,6,45.0,30.0,9,0.7509999999999999,1.0,639.341,0.17,1,2019-12-16 08:40:12.000,54,2019-12-16 08:50:50.662,0.25,-90,0,0,-90,1
10281,110,0,643.749,0,0,1,0.25,2,9,0.0,0.0,6,45.0,30.0,9,0.851,1.0,644.04,0.17,1,2019-12-16 08:40:12.000,54,2019-12-16 08:50:55.749,0.25,-90,0,0,-90,1
10282,111,0,648.3240000000002,0,0,1,0.25,2,3,0.0,0.0,12,45.0,30.0,3,0.7509999999999999,0.0,648.856,0.13,1,2019-12-16 08:40:12.000,54,2019-12-16 08:51:00.324,0.25,90,-180,-180,90,1
10283,112,0,651.722,0,0,1,0.25,2,3,0.0,0.0,12,45.0,30.0,3,0.851,1.0,652.133,0.0,0,2019-12-16 08:40:12.000,54,2019-12-16 08:51:03.722,0.25,-90,-180,-180,-90,1
10284,115,0,717.215,0,0,1,0.25,2,9,0.0,0.0,6,45.0,30.0,9,0.701,0.0,717.6469999999998,0.0,0,2019-12-16 08:40:12.000,54,2019-12-16 08:52:09.215,0.25,90,0,0,90,1
10625,171,0,944.108,0,60,1,0.25,2,9,0.0,0.0,4,45.0,30.0,9,0.851,1.0,944.462,0.17,1,2019-12-17 08:52:06.000,234,2019-12-17 09:07:50.108,0.25,-90,60,0,-150,1
10626,172,0,948.699,0,60,1,0.25,2,9,0.0,0.0,4,45.0,30.0,9,0.7509999999999999,1.0,949.156,0.17,1,2019-12-17 08:52:06.000,234,2019-12-17 09:07:54.699,0.25,-90,60,0,-150,1
10627,173,0,953.703,0,60,1,0.25,2,3,0.0,0.0,10,45.0,30.0,3,0.8009999999999999,0.0,954.188,0.13,1,2019-12-17 08:52:06.000,234,2019-12-17 09:07:59.703,0.25,90,-120,-180,30,1
10628,174,0,957.401,0,60,1,0.25,2,3,0.0,0.0,10,45.0,30.0,3,0.901,0.0,958.117,0.13,1,2019-12-17 08:52:06.000,234,2019-12-17 09:08:03.401,0.25,90,-120,-180,30,1
10629,175,0,962.474,0,60,1,0.25,2,3,0.0,0.0,10,45.0,30.0,3,0.701,0.0,963.308,0.13,1,2019-12-17 08:52:06.000,234,2019-12-17 09:08:08.474,0.25,90,-120,-180,30,1
10630,176,0,966.901,0,60,1,0.25,2,3,0.0,0.0,10,45.0,30.0,3,0.851,0.0,967.393,0.13,1,2019-12-17 08:52:06.000,234,2019-12-17 09:08:12.901,0.25,90,-120,-180,30,1
10631,177,0,970.898,0,60,1,0.25,2,3,0.0,0.0,10,45.0,30.0,3,0.7509999999999999,0.0,971.611,0.13,1,2019-12-17 08:52:06.000,234,2019-12-17 09:08:16.898,0.25,90,-120,-180,30,1
10632,178,0,974.733,0,60,1,0.25,2,3,0.0,0.0,10,45.0,30.0,3,0.901,0.0,975.273,0.13,1,2019-12-17 08:52:06.000,234,2019-12-17 09:08:20.733,0.25,90,-120,-180,30,1
10633,179,0,978.942,0,60,1,0.25,2,3,0.0,0.0,10,45.0,30.0,3,0.8009999999999999,0.0,979.499,0.13,1,2019-12-17 08:52:06.000,234,2019-12-17 09:08:24.942,0.25,90,-120,-180,30,1
10634,180,0,983.351,0,60,1,0.25,2,9,0.0,0.0,4,45.0,30.0,9,0.701,1.0,983.953,0.17,1,2019-12-17 08:52:06.000,234,2019-12-17 09:08:29.351,0.25,-90,60,0,-150,1
10966,221,0,1310.991,0,-150,1,0.25,2,9,0.0,0.0,11,45.0,30.0,9,0.851,1.0,1311.516,0.17,1,2019-12-18 08:43:50.000,10,2019-12-18 09:05:40.991,0.25,-90,-150,0,60,1
10967,222,0,1318.4229999999998,0,-150,1,0.25,2,9,0.0,0.0,11,45.0,30.0,9,0.8009999999999999,1.0,1319.293,0.17,1,2019-12-18 08:43:50.000,10,2019-12-18 09:05:48.423,0.25,-90,-150,0,60,1
10968,223,0,1322.994,0,-150,1,0.25,2,9,0.0,0.0,11,45.0,30.0,9,0.701,1.0,1323.563,0.17,1,2019-12-18 08:43:50.000,10,2019-12-18 09:05:52.994,0.25,-90,-150,0,60,1
10969,224,0,1333.539,0,-150,1,0.25,2,3,0.0,0.0,5,45.0,30.0,3,0.901,0.0,1333.769,0.13,1,2019-12-18 08:43:50.000,10,2019-12-18 09:06:03.539,0.25,90,30,-180,-120,1
10970,225,0,1336.706,0,-150,1,0.25,2,3,0.0,0.0,5,45.0,30.0,3,0.7509999999999999,0.0,1337.186,0.13,1,2019-12-18 08:43:50.000,10,2019-12-18 09:06:06.706,0.25,90,30,-180,-120,1
10971,226,0,1340.622,0,-150,1,0.25,2,9,0.0,0.0,11,45.0,30.0,9,0.701,1.0,1341.154,0.17,1,2019-12-18 08:43:50.000,10,2019-12-18 09:06:10.622,0.25,-90,-150,0,60,1
10972,227,0,1345.965,0,-150,1,0.25,2,9,0.0,0.0,11,45.0,30.0,9,0.7509999999999999,1.0,1346.681,0.17,1,2019-12-18 08:43:50.000,10,2019-12-18 09:06:15.965,0.25,-90,-150,0,60,1
10973,228,0,1351.058,0,-150,1,0.25,2,3,0.0,0.0,5,45.0,30.0,3,0.8009999999999999,1.0,1351.674,0.0,0,2019-12-18 08:43:50.000,10,2019-12-18 09:06:21.058,0.25,-90,30,-180,60,1
10974,230,0,1364.256,0,-150,1,0.25,2,9,0.0,0.0,11,45.0,30.0,9,0.851,1.0,1364.566,0.17,1,2019-12-18 08:43:50.000,10,2019-12-18 09:06:34.256,0.25,-90,-150,0,60,1
10975,231,0,1368.477,0,-150,1,0.25,2,3,0.0,0.0,5,45.0,30.0,3,0.7509999999999999,0.0,1368.8,0.13,1,2019-12-18 08:43:50.000,10,2019-12-18 09:06:38.477,0.25,90,30,-180,-120,1
11309,172,0,983.149,0,150,1,0.25,2,3,0.0,0.0,7,45.0,30.0,3,0.7509999999999999,0.0,983.54,0.15,1,2019-12-19 08:41:34.000,106,2019-12-19 08:57:57.149,0.25,90,-30,-180,-60,1
11310,173,0,986.855,0,150,1,0.25,2,3,0.0,0.0,7,45.0,30.0,3,0.8009999999999999,0.0,987.312,0.15,1,2019-12-19 08:41:34.000,106,2019-12-19 08:58:00.855,0.25,90,-30,-180,-60,1
11311,174,0,991.048,0,150,1,0.25,2,3,0.0,0.0,7,45.0,30.0,3,0.901,0.0,991.52,0.15,1,2019-12-19 08:41:34.000,106,2019-12-19 08:58:05.048,0.25,90,-30,-180,-60,1
11312,175,0,996.075,0,150,1,0.25,2,9,0.0,0.0,1,45.0,30.0,9,0.851,1.0,996.332,0.15,1,2019-12-19 08:41:34.000,106,2019-12-19 08:58:10.075,0.25,-90,150,0,120,1
11313,176,0,1000.657,0,150,1,0.25,2,9,0.0,0.0,1,45.0,30.0,9,0.851,1.0,1001.194,0.15,1,2019-12-19 08:41:34.000,106,2019-12-19 08:58:14.657,0.25,-90,150,0,120,1
11314,177,0,1006.129,0,150,1,0.25,2,3,0.0,0.0,7,45.0,30.0,3,0.7509999999999999,1.0,1007.303,0.0,0,2019-12-19 08:41:34.000,106,2019-12-19 08:58:20.129,0.25,-90,-30,-180,120,1
11315,179,0,1015.66,0,150,1,0.25,2,9,0.0,0.0,1,45.0,30.0,9,0.701,1.0,1016.064,0.15,1,2019-12-19 08:41:34.000,106,2019-12-19 08:58:29.660,0.25,-90,150,0,120,1
11316,180,0,1022.798,0,150,1,0.25,2,9,0.0,0.0,1,45.0,30.0,9,0.901,1.0,1023.34,0.15,1,2019-12-19 08:41:34.000,106,2019-12-19 08:58:36.798,0.25,-90,150,0,120,1
11317,181,0,1027.348,0,150,1,0.25,2,9,0.0,0.0,1,45.0,30.0,9,0.7509999999999999,1.0,1027.774,0.15,1,2019-12-19 08:41:34.000,106,2019-12-19 08:58:41.348,0.25,-90,150,0,120,1
11318,182,0,1034.798,0,150,1,0.25,2,3,0.0,0.0,7,45.0,30.0,3,0.901,1.0,1035.309,0.0,0,2019-12-19 08:41:34.000,106,2019-12-19 08:58:48.798,0.25,-90,-30,-180,120,1
11543,255,0,1350.594,0,90,1,0.25,2,9,0.0,0.0,3,45.0,30.0,9,0.8009999999999999,1.0,1350.997,0.17,1,2019-12-19 14:02:40.000,240,2019-12-19 14:25:10.594,0.25,-90,90,0,-180,1
11544,256,0,1355.183,0,90,1,0.25,2,9,0.0,0.0,3,45.0,30.0,9,0.8009999999999999,1.0,1356.154,0.17,1,2019-12-19 14:02:40.000,240,2019-12-19 14:25:15.183,0.25,-90,90,0,-180,1
11545,257,0,1360.1229999999996,0,90,1,0.25,2,9,0.0,0.0,3,45.0,30.0,9,0.701,1.0,1360.87,0.17,1,2019-12-19 14:02:40.000,240,2019-12-19 14:25:20.123,0.25,-90,90,0,-180,1
11546,258,0,1364.915,0,90,1,0.25,2,3,0.0,0.0,9,45.0,30.0,3,0.7509999999999999,1.0,1365.917,0.0,0,2019-12-19 14:02:40.000,240,2019-12-19 14:25:24.915,0.25,-90,-90,-180,-180,1
11547,260,0,1374.3,0,90,1,0.25,2,9,0.0,0.0,3,45.0,30.0,9,0.901,1.0,1374.545,0.17,1,2019-12-19 14:02:40.000,240,2019-12-19 14:25:34.300,0.25,-90,90,0,-180,1
11548,261,0,1379.1729999999998,0,90,1,0.25,2,3,0.0,0.0,9,45.0,30.0,3,0.8009999999999999,0.0,1379.777,0.13,1,2019-12-19 14:02:40.000,240,2019-12-19 14:25:39.173,0.25,90,-90,-180,0,1
11549,262,0,1383.717,0,90,1,0.25,2,3,0.0,0.0,9,45.0,30.0,3,0.901,1.0,1384.19,0.0,0,2019-12-19 14:02:40.000,240,2019-12-19 14:25:43.717,0.25,-90,-90,-180,-180,1
11550,265,0,1445.7579999999996,0,90,1,0.25,2,9,0.0,0.0,3,45.0,30.0,9,0.851,1.0,1446.111,0.17,1,2019-12-19 14:02:40.000,240,2019-12-19 14:26:45.758,0.25,-90,90,0,-180,1
11551,266,0,1450.5510000000004,0,90,1,0.25,2,9,0.0,0.0,3,45.0,30.0,9,0.8009999999999999,1.0,1450.986,0.17,1,2019-12-19 14:02:40.000,240,2019-12-19 14:26:50.551,0.25,-90,90,0,-180,1
11553,268,0,1462.582,0,90,1,0.25,2,3,0.0,0.0,9,45.0,30.0,3,0.901,1.0,1463.2479999999996,0.0,0,2019-12-19 14:02:40.000,240,2019-12-19 14:27:02.582,0.25,-90,-90,-180,-180,1
11710,186,0,996.708,0,120,1,0.25,2,9,0.0,0.0,2,45.0,30.0,9,0.8009999999999999,1.0,997.136,0.17,1,2019-12-20 08:19:23.000,12,2019-12-20 08:35:59.708,0.25,-90,120,0,150,1
11711,187,0,1004.348,0,120,1,0.25,2,3,0.0,0.0,8,45.0,30.0,3,0.901,1.0,1004.744,0.0,0,2019-12-20 08:19:23.000,12,2019-12-20 08:36:07.348,0.25,-90,-60,-180,150,1
11712,190,0,1049.485,0,120,1,0.25,2,9,0.0,0.0,2,45.0,30.0,9,0.7509999999999999,1.0,1049.918,0.17,1,2019-12-20 08:19:23.000,12,2019-12-20 08:36:52.485,0.25,-90,120,0,150,1
11713,191,0,1054.014,0,120,1,0.25,2,9,0.0,0.0,2,45.0,30.0,9,0.901,1.0,1054.668,0.17,1,2019-12-20 08:19:23.000,12,2019-12-20 08:36:57.014,0.25,-90,120,0,150,1
11714,192,0,1058.847,0,120,1,0.25,2,3,0.0,0.0,8,45.0,30.0,3,0.701,1.0,1059.305,0.0,0,2019-12-20 08:19:23.000,12,2019-12-20 08:37:01.847,0.25,-90,-60,-180,150,1
11715,194,0,1067.611,0,120,1,0.25,2,9,0.0,0.0,2,45.0,30.0,9,0.7509999999999999,1.0,1068.102,0.17,1,2019-12-20 08:19:23.000,12,2019-12-20 08:37:10.611,0.25,-90,120,0,150,1
11716,195,0,1072.558,0,120,1,0.25,2,9,0.0,0.0,2,45.0,30.0,9,0.8009999999999999,1.0,1072.882,0.17,1,2019-12-20 08:19:23.000,12,2019-12-20 08:37:15.558,0.25,-90,120,0,150,1
11717,196,0,1077.558,0,120,1,0.25,2,9,0.0,0.0,2,45.0,30.0,9,0.701,1.0,1078.175,0.17,1,2019-12-20 08:19:23.000,12,2019-12-20 08:37:20.558,0.25,-90,120,0,150,1
11719,198,0,1088.602,0,120,1,0.25,2,3,0.0,0.0,8,45.0,30.0,3,0.851,1.0,1089.187,0.0,0,2019-12-20 08:19:23.000,12,2019-12-20 08:37:31.602,0.25,-90,-60,-180,150,1
11720,202,0,1107.983,0,120,1,0.25,2,3,0.0,0.0,8,45.0,30.0,3,0.701,1.0,1108.417,0.0,0,2019-12-20 08:19:23.000,12,2019-12-20 08:37:50.983,0.25,-90,-60,-180,150,1
11930,238,0,1226.947,0,-90,1,0.25,2,9,0.0,0.0,9,45.0,30.0,9,0.851,1.0,1227.802,0.17,1,2019-12-20 14:00:14.000,225,2019-12-20 14:20:40.947,0.25,-90,-90,0,0,1
11931,239,0,1231.838,0,-90,1,0.25,2,9,0.0,0.0,9,45.0,30.0,9,0.8009999999999999,1.0,1232.6,0.17,1,2019-12-20 14:00:14.000,225,2019-12-20 14:20:45.838,0.25,-90,-90,0,0,1
11933,241,0,1241.591,0,-90,1,0.25,2,3,0.0,0.0,3,45.0,30.0,3,0.701,1.0,1242.735,0.0,0,2019-12-20 14:00:14.000,225,2019-12-20 14:20:55.591,0.25,-90,90,-180,0,1
11934,243,0,1251.513,0,-90,1,0.25,2,9,0.0,0.0,9,45.0,30.0,9,0.8009999999999999,1.0,1252.559,0.17,1,2019-12-20 14:00:14.000,225,2019-12-20 14:21:05.513,0.25,-90,-90,0,0,1
11935,244,0,1256.966,0,-90,1,0.25,2,3,0.0,0.0,3,45.0,30.0,3,0.901,0.0,1257.739,0.13,1,2019-12-20 14:00:14.000,225,2019-12-20 14:21:10.966,0.25,90,90,-180,-180,1
11936,245,0,1260.991,0,-90,1,0.25,2,3,0.0,0.0,3,45.0,30.0,3,0.851,0.0,1261.533,0.13,1,2019-12-20 14:00:14.000,225,2019-12-20 14:21:14.991,0.25,90,90,-180,-180,1
11937,246,0,1265.847,0,-90,1,0.25,2,9,0.0,0.0,9,45.0,30.0,9,0.701,1.0,1266.859,0.17,1,2019-12-20 14:00:14.000,225,2019-12-20 14:21:19.847,0.25,-90,-90,0,0,1
11939,248,0,1275.711,0,-90,1,0.25,2,3,0.0,0.0,3,45.0,30.0,3,0.8009999999999999,0.0,1276.157,0.13,1,2019-12-20 14:00:14.000,225,2019-12-20 14:21:29.711,0.25,90,90,-180,-180,1
11940,249,0,1279.497,0,-90,1,0.25,2,3,0.0,0.0,3,45.0,30.0,3,0.851,1.0,1280.4160000000004,0.0,0,2019-12-20 14:00:14.000,225,2019-12-20 14:21:33.497,0.25,-90,90,-180,0,1
11941,251,0,1290.255,0,-90,1,0.25,2,3,0.0,0.0,3,45.0,30.0,3,0.901,1.0,1291.128,0.0,0,2019-12-20 14:00:14.000,225,2019-12-20 14:21:44.255,0.25,-90,90,-180,0,1
11966,30,0,234.872,0,0,1,0.25,2,3,0.0,0.0,12,45.0,30.0,3,0.701,0.0,235.436,0.13,1,2020-01-13 09:12:00.000,11,2020-01-13 09:15:54.872,0.25,90,-180,-180,90,1
11967,31,0,240.852,0,0,1,0.25,2,9,0.0,0.0,6,45.0,30.0,9,0.7509999999999999,1.0,241.407,0.17,1,2020-01-13 09:12:00.000,11,2020-01-13 09:16:00.852,0.25,-90,0,0,-90,1
11968,32,0,245.951,0,0,1,0.25,2,9,0.0,0.0,6,45.0,30.0,9,0.901,1.0,246.422,0.17,1,2020-01-13 09:12:00.000,11,2020-01-13 09:16:05.951,0.25,-90,0,0,-90,1
11969,33,0,253.601,0,0,1,0.25,2,9,0.0,0.0,6,45.0,30.0,9,0.851,0.0,254.703,0.0,0,2020-01-13 09:12:00.000,11,2020-01-13 09:16:13.601,0.25,90,0,0,90,1
11970,35,0,270.582,0,0,1,0.25,2,3,0.0,0.0,12,45.0,30.0,3,0.701,0.0,271.17,0.13,1,2020-01-13 09:12:00.000,11,2020-01-13 09:16:30.582,0.25,90,-180,-180,90,1
11971,36,0,275.605,0,0,1,0.25,2,9,0.0,0.0,6,45.0,30.0,9,0.8009999999999999,1.0,276.067,0.17,1,2020-01-13 09:12:00.000,11,2020-01-13 09:16:35.605,0.25,-90,0,0,-90,1
11972,37,0,280.293,0,0,1,0.25,2,3,0.0,0.0,12,45.0,30.0,3,0.701,0.0,280.95,0.13,1,2020-01-13 09:12:00.000,11,2020-01-13 09:16:40.293,0.25,90,-180,-180,90,1
11973,38,0,289.33,0,0,1,0.25,2,9,0.0,0.0,6,45.0,30.0,9,0.7509999999999999,1.0,289.885,0.17,1,2020-01-13 09:12:00.000,11,2020-01-13 09:16:49.330,0.25,-90,0,0,-90,1
11974,39,0,293.781,0,0,1,0.25,2,3,0.0,0.0,12,45.0,30.0,3,0.851,0.0,294.321,0.13,1,2020-01-13 09:12:00.000,11,2020-01-13 09:16:53.781,0.25,90,-180,-180,90,1
11975,40,0,300.581,0,0,1,0.25,2,3,0.0,0.0,12,45.0,30.0,3,0.901,1.0,300.858,0.0,0,2020-01-13 09:12:00.000,11,2020-01-13 09:17:00.581,0.25,-90,-180,-180,-90,1
12628,191,0,1000.901,0,-60,1,0.25,2,9,0.0,0.0,8,45.0,30.0,9,0.851,1.0,1001.736,0.17,1,2020-01-15 08:59:39.000,148,2020-01-15 09:16:19.901,0.25,-90,-60,0,-30,1
12629,192,0,1006.108,0,-60,1,0.25,2,3,0.0,0.0,2,45.0,30.0,3,0.8009999999999999,0.0,1006.817,0.13,1,2020-01-15 08:59:39.000,148,2020-01-15 09:16:25.108,0.25,90,120,-180,150,1
12630,193,0,1010.378,0,-60,1,0.25,2,3,0.0,0.0,2,45.0,30.0,3,0.7509999999999999,0.0,1010.9,0.13,1,2020-01-15 08:59:39.000,148,2020-01-15 09:16:29.378,0.25,90,120,-180,150,1
12632,195,0,1018.849,0,-60,1,0.25,2,9,0.0,0.0,8,45.0,30.0,9,0.701,1.0,1019.589,0.17,1,2020-01-15 08:59:39.000,148,2020-01-15 09:16:37.849,0.25,-90,-60,0,-30,1
12633,196,0,1025.765,0,-60,1,0.25,2,3,0.0,0.0,2,45.0,30.0,3,0.7509999999999999,0.0,1026.575,0.13,1,2020-01-15 08:59:39.000,148,2020-01-15 09:16:44.765,0.25,90,120,-180,150,1
12634,197,0,1030.137,0,-60,1,0.25,2,3,0.0,0.0,2,45.0,30.0,3,0.901,0.0,1030.84,0.13,1,2020-01-15 08:59:39.000,148,2020-01-15 09:16:49.137,0.25,90,120,-180,150,1
12635,198,0,1034.482,0,-60,1,0.25,2,3,0.0,0.0,2,45.0,30.0,3,0.851,0.0,1035.259,0.13,1,2020-01-15 08:59:39.000,148,2020-01-15 09:16:53.482,0.25,90,120,-180,150,1
12636,199,0,1038.718,0,-60,1,0.25,2,3,0.0,0.0,2,45.0,30.0,3,0.701,0.0,1039.643,0.13,1,2020-01-15 08:59:39.000,148,2020-01-15 09:16:57.718,0.25,90,120,-180,150,1
12637,200,0,1043.163,0,-60,1,0.25,2,3,0.0,0.0,2,45.0,30.0,3,0.8009999999999999,0.0,1043.964,0.13,1,2020-01-15 08:59:39.000,148,2020-01-15 09:17:02.163,0.25,90,120,-180,150,1
12638,201,0,1047.509,0,-60,1,0.25,2,9,0.0,0.0,8,45.0,30.0,9,0.701,1.0,1048.029,0.17,1,2020-01-15 08:59:39.000,148,2020-01-15 09:17:06.509,0.25,-90,-60,0,-30,1
12799,171,0,846.533,0,150,1,0.25,2,3,0.0,0.0,7,45.0,30.0,3,0.901,0.0,847.4939999999998,0.13,1,2020-01-15 14:48:02.000,59,2020-01-15 15:02:08.533,0.25,90,-30,-180,-60,1
12800,172,0,850.957,0,150,1,0.25,2,3,0.0,0.0,7,45.0,30.0,3,0.8009999999999999,0.0,851.6489999999999,0.13,1,2020-01-15 14:48:02.000,59,2020-01-15 15:02:12.957,0.25,90,-30,-180,-60,1
12801,173,0,855.702,0,150,1,0.25,2,9,0.0,0.0,1,45.0,30.0,9,0.701,1.0,856.518,0.17,1,2020-01-15 14:48:02.000,59,2020-01-15 15:02:17.702,0.25,-90,150,0,120,1
12802,174,0,862.9060000000002,0,150,1,0.25,2,3,0.0,0.0,7,45.0,30.0,3,0.851,0.0,863.837,0.13,1,2020-01-15 14:48:02.000,59,2020-01-15 15:02:24.906,0.25,90,-30,-180,-60,1
12803,175,0,867.775,0,150,1,0.25,2,3,0.0,0.0,7,45.0,30.0,3,0.7509999999999999,0.0,868.56,0.13,1,2020-01-15 14:48:02.000,59,2020-01-15 15:02:29.775,0.25,90,-30,-180,-60,1
12804,176,0,871.99,0,150,1,0.25,2,3,0.0,0.0,7,45.0,30.0,3,0.7509999999999999,0.0,872.685,0.13,1,2020-01-15 14:48:02.000,59,2020-01-15 15:02:33.990,0.25,90,-30,-180,-60,1
12805,177,0,876.196,0,150,1,0.25,2,9,0.0,0.0,1,45.0,30.0,9,0.701,1.0,877.0269999999998,0.17,1,2020-01-15 14:48:02.000,59,2020-01-15 15:02:38.196,0.25,-90,150,0,120,1
12806,178,0,881.438,0,150,1,0.25,2,9,0.0,0.0,1,45.0,30.0,9,0.8009999999999999,1.0,882.52,0.17,1,2020-01-15 14:48:02.000,59,2020-01-15 15:02:43.438,0.25,-90,150,0,120,1
12807,179,0,887.783,0,150,1,0.25,2,9,0.0,0.0,1,45.0,30.0,9,0.851,1.0,888.75,0.17,1,2020-01-15 14:48:02.000,59,2020-01-15 15:02:49.783,0.25,-90,150,0,120,1
12808,180,0,893.3330000000002,0,150,1,0.25,2,3,0.0,0.0,7,45.0,30.0,3,0.901,1.0,894.194,0.0,0,2020-01-15 14:48:02.000,59,2020-01-15 15:02:55.333,0.25,-90,-30,-180,120,1
12897,108,0,594.568,0,-120,1,0.25,2,9,0.0,0.0,10,45.0,30.0,9,0.701,1.0,595.308,0.17,1,2020-01-16 08:46:42.000,102,2020-01-16 08:56:36.568,0.25,-90,-120,0,30,1
12898,109,0,600.556,0,-120,1,0.25,2,3,0.0,0.0,4,45.0,30.0,3,0.851,0.0,601.322,0.13,1,2020-01-16 08:46:42.000,102,2020-01-16 08:56:42.556,0.25,90,60,-180,-150,1
12899,110,0,604.366,0,-120,1,0.25,2,3,0.0,0.0,4,45.0,30.0,3,0.8009999999999999,0.0,604.9580000000002,0.13,1,2020-01-16 08:46:42.000,102,2020-01-16 08:56:46.366,0.25,90,60,-180,-150,1
12900,111,0,608.359,0,-120,1,0.25,2,3,0.0,0.0,4,45.0,30.0,3,0.901,0.0,609.08,0.13,1,2020-01-16 08:46:42.000,102,2020-01-16 08:56:50.359,0.25,90,60,-180,-150,1
12902,113,0,617.401,0,-120,1,0.25,2,3,0.0,0.0,4,45.0,30.0,3,0.701,0.0,618.0740000000002,0.13,1,2020-01-16 08:46:42.000,102,2020-01-16 08:56:59.401,0.25,90,60,-180,-150,1
12903,114,0,622.803,0,-120,1,0.25,2,3,0.0,0.0,4,45.0,30.0,3,0.851,0.0,623.452,0.13,1,2020-01-16 08:46:42.000,102,2020-01-16 08:57:04.803,0.25,90,60,-180,-150,1
12904,115,0,627.013,0,-120,1,0.25,2,9,0.0,0.0,10,45.0,30.0,9,0.7509999999999999,0.0,627.581,0.0,0,2020-01-16 08:46:42.000,102,2020-01-16 08:57:09.013,0.25,90,-120,0,-150,1
12905,117,0,636.314,0,-120,1,0.25,2,3,0.0,0.0,4,45.0,30.0,3,0.8009999999999999,0.0,636.722,0.13,1,2020-01-16 08:46:42.000,102,2020-01-16 08:57:18.314,0.25,90,60,-180,-150,1
12906,118,0,640.106,0,-120,1,0.25,2,9,0.0,0.0,10,45.0,30.0,9,0.901,0.0,640.369,0.0,0,2020-01-16 08:46:42.000,102,2020-01-16 08:57:22.106,0.25,90,-120,0,-150,1
12907,122,0,678.936,0,-120,1,0.25,2,3,0.0,0.0,4,45.0,30.0,3,0.7509999999999999,1.0,680.1239999999998,0.0,0,2020-01-16 08:46:42.000,102,2020-01-16 08:58:00.936,0.25,-90,60,-180,30,1
13072,184,0,1058.975,0,-150,1,0.25,2,9,0.0,0.0,11,45.0,30.0,9,0.851,1.0,1060.102,0.17,1,2020-01-16 15:03:50.000,183,2020-01-16 15:21:28.975,0.25,-90,-150,0,60,1
13073,185,0,1064.773,0,-150,1,0.25,2,9,0.0,0.0,11,45.0,30.0,9,0.7509999999999999,1.0,1065.865,0.17,1,2020-01-16 15:03:50.000,183,2020-01-16 15:21:34.773,0.25,-90,-150,0,60,1
13074,186,0,1070.84,0,-150,1,0.25,2,3,0.0,0.0,5,45.0,30.0,3,0.851,0.0,1071.477,0.13,1,2020-01-16 15:03:50.000,183,2020-01-16 15:21:40.840,0.25,90,30,-180,-120,1
13075,187,0,1075.119,0,-150,1,0.25,2,9,0.0,0.0,11,45.0,30.0,9,0.8009999999999999,1.0,1075.785,0.17,1,2020-01-16 15:03:50.000,183,2020-01-16 15:21:45.119,0.25,-90,-150,0,60,1
13076,188,0,1079.822,0,-150,1,0.25,2,3,0.0,0.0,5,45.0,30.0,3,0.701,0.0,1080.767,0.13,1,2020-01-16 15:03:50.000,183,2020-01-16 15:21:49.822,0.25,90,30,-180,-120,1
13077,189,0,1084.773,0,-150,1,0.25,2,3,0.0,0.0,5,45.0,30.0,3,0.901,0.0,1085.356,0.13,1,2020-01-16 15:03:50.000,183,2020-01-16 15:21:54.773,0.25,90,30,-180,-120,1
13078,190,0,1089.474,0,-150,1,0.25,2,3,0.0,0.0,5,45.0,30.0,3,0.7509999999999999,0.0,1090.361,0.13,1,2020-01-16 15:03:50.000,183,2020-01-16 15:21:59.474,0.25,90,30,-180,-120,1
13079,191,0,1094.042,0,-150,1,0.25,2,9,0.0,0.0,11,45.0,30.0,9,0.701,0.0,1095.131,0.0,0,2020-01-16 15:03:50.000,183,2020-01-16 15:22:04.042,0.25,90,-150,0,-120,1
13080,193,0,1107.001,0,-150,1,0.25,2,3,0.0,0.0,5,45.0,30.0,3,0.7509999999999999,0.0,1107.679,0.13,1,2020-01-16 15:03:50.000,183,2020-01-16 15:22:17.001,0.25,90,30,-180,-120,1
13081,194,0,1111.294,0,-150,1,0.25,2,3,0.0,0.0,5,45.0,30.0,3,0.901,1.0,1111.6989999999996,0.0,0,2020-01-16 15:03:50.000,183,2020-01-16 15:22:21.294,0.25,-90,30,-180,60,1
13543,144,0,780.8480000000002,0,-30,1,0.25,2,9,0.0,0.0,7,45.0,30.0,9,0.7509999999999999,1.0,781.672,0.17,1,2020-02-05 08:50:19.000,128,2020-02-05 09:03:19.848,0.25,-90,-30,0,-60,1
13544,145,0,785.535,0,-30,1,0.25,2,3,0.0,0.0,1,45.0,30.0,3,0.8009999999999999,1.0,786.1410000000002,0.0,0,2020-02-05 08:50:19.000,128,2020-02-05 09:03:24.535,0.25,-90,150,-180,-60,1
13545,147,0,794.6189999999998,0,-30,1,0.25,2,9,0.0,0.0,7,45.0,30.0,9,0.901,0.0,795.201,0.0,0,2020-02-05 08:50:19.000,128,2020-02-05 09:03:33.619,0.25,90,-30,0,120,1
13546,149,0,803.669,0,-30,1,0.25,2,9,0.0,0.0,7,45.0,30.0,9,0.7509999999999999,1.0,804.212,0.17,1,2020-02-05 08:50:19.000,128,2020-02-05 09:03:42.669,0.25,-90,-30,0,-60,1
13547,150,0,807.7330000000002,0,-30,1,0.25,2,9,0.0,0.0,7,45.0,30.0,9,0.851,1.0,808.3,0.17,1,2020-02-05 08:50:19.000,128,2020-02-05 09:03:46.733,0.25,-90,-30,0,-60,1
13548,151,0,812.828,0,-30,1,0.25,2,9,0.0,0.0,7,45.0,30.0,9,0.7509999999999999,1.0,813.432,0.17,1,2020-02-05 08:50:19.000,128,2020-02-05 09:03:51.828,0.25,-90,-30,0,-60,1
13549,152,0,817.525,0,-30,1,0.25,2,3,0.0,0.0,1,45.0,30.0,3,0.8009999999999999,0.0,818.205,0.13,1,2020-02-05 08:50:19.000,128,2020-02-05 09:03:56.525,0.25,90,150,-180,120,1
13551,154,0,824.4060000000002,0,-30,1,0.25,2,9,0.0,0.0,7,45.0,30.0,9,0.901,1.0,825.074,0.17,1,2020-02-05 08:50:19.000,128,2020-02-05 09:04:03.406,0.25,-90,-30,0,-60,1
13552,155,0,830.033,0,-30,1,0.25,2,3,0.0,0.0,1,45.0,30.0,3,0.701,1.0,833.337,0.0,0,2020-02-05 08:50:19.000,128,2020-02-05 09:04:09.033,0.25,-90,150,-180,-60,1
13553,157,0,842.3839999999999,0,-30,1,0.25,2,9,0.0,0.0,7,45.0,30.0,9,0.701,0.0,842.9680000000002,0.0,0,2020-02-05 08:50:19.000,128,2020-02-05 09:04:21.384,0.25,90,-30,0,120,1
13786,111,0,649.198,0,-120,1,0.25,2,3,0.0,0.0,4,45.0,30.0,3,0.8009999999999999,0.0,649.878,0.13,1,2020-02-06 08:53:01.000,156,2020-02-06 09:03:50.198,0.25,90,60,-180,-150,1
13787,112,0,654.007,0,-120,1,0.25,2,9,0.0,0.0,10,45.0,30.0,9,0.851,0.0,654.56,0.0,0,2020-02-06 08:53:01.000,156,2020-02-06 09:03:55.007,0.25,90,-120,0,-150,1
13788,114,0,669.6439999999999,0,-120,1,0.25,2,9,0.0,0.0,10,45.0,30.0,9,0.701,1.0,670.551,0.17,1,2020-02-06 08:53:01.000,156,2020-02-06 09:04:10.644,0.25,-90,-120,0,30,1
13789,115,0,675.097,0,-120,1,0.25,2,3,0.0,0.0,4,45.0,30.0,3,0.7509999999999999,0.0,676.059,0.13,1,2020-02-06 08:53:01.000,156,2020-02-06 09:04:16.097,0.25,90,60,-180,-150,1
13790,116,0,678.868,0,-120,1,0.25,2,3,0.0,0.0,4,45.0,30.0,3,0.8009999999999999,0.0,679.456,0.13,1,2020-02-06 08:53:01.000,156,2020-02-06 09:04:19.868,0.25,90,60,-180,-150,1
13791,117,0,682.672,0,-120,1,0.25,2,9,0.0,0.0,10,45.0,30.0,9,0.7509999999999999,1.0,683.4839999999998,0.17,1,2020-02-06 08:53:01.000,156,2020-02-06 09:04:23.672,0.25,-90,-120,0,30,1
13792,118,0,687.987,0,-120,1,0.25,2,9,0.0,0.0,10,45.0,30.0,9,0.701,1.0,689.067,0.17,1,2020-02-06 08:53:01.000,156,2020-02-06 09:04:28.987,0.25,-90,-120,0,30,1
13793,119,0,693.2610000000002,0,-120,1,0.25,2,3,0.0,0.0,4,45.0,30.0,3,0.901,1.0,694.197,0.0,0,2020-02-06 08:53:01.000,156,2020-02-06 09:04:34.261,0.25,-90,60,-180,30,1
13794,122,0,711.693,0,-120,1,0.25,2,9,0.0,0.0,10,45.0,30.0,9,0.8009999999999999,0.0,712.297,0.0,0,2020-02-06 08:53:01.000,156,2020-02-06 09:04:52.693,0.25,90,-120,0,-150,1
13797,127,0,739.696,0,-120,1,0.25,2,3,0.0,0.0,4,45.0,30.0,3,0.851,1.0,740.195,0.0,0,2020-02-06 08:53:01.000,156,2020-02-06 09:05:20.696,0.25,-90,60,-180,30,1
14000,56,0,389.62,0,-90,1,0.25,2,9,0.0,0.0,9,45.0,30.0,9,0.901,1.0,390.264,0.17,1,2020-02-07 08:38:22.000,69,2020-02-07 08:44:51.620,0.25,-90,-90,0,0,1
14001,57,0,394.374,0,-90,1,0.25,2,3,0.0,0.0,3,45.0,30.0,3,0.851,0.0,395.384,0.13,1,2020-02-07 08:38:22.000,69,2020-02-07 08:44:56.374,0.25,90,90,-180,-180,1
14002,58,0,397.197,0,-90,1,0.25,2,3,0.0,0.0,3,45.0,30.0,3,0.701,0.0,398.236,0.13,1,2020-02-07 08:38:22.000,69,2020-02-07 08:44:59.197,0.25,90,90,-180,-180,1
14003,59,0,400.966,0,-90,1,0.25,2,9,0.0,0.0,9,45.0,30.0,9,0.7509999999999999,1.0,401.299,0.17,1,2020-02-07 08:38:22.000,69,2020-02-07 08:45:02.966,0.25,-90,-90,0,0,1
14004,60,0,408.974,0,-90,1,0.25,2,3,0.0,0.0,3,45.0,30.0,3,0.8009999999999999,1.0,409.99,0.0,0,2020-02-07 08:38:22.000,69,2020-02-07 08:45:10.974,0.25,-90,90,-180,0,1
14005,62,0,423.279,0,-90,1,0.25,2,3,0.0,0.0,3,45.0,30.0,3,0.851,0.0,424.33,0.13,1,2020-02-07 08:38:22.000,69,2020-02-07 08:45:25.279,0.25,90,90,-180,-180,1
14006,63,0,485.544,0,-90,1,0.25,2,3,0.0,0.0,3,45.0,30.0,3,0.8009999999999999,1.0,487.593,0.0,0,2020-02-07 08:38:22.000,69,2020-02-07 08:46:27.544,0.25,-90,90,-180,0,1
14008,68,0,543.7280000000002,0,-90,1,0.25,2,3,0.0,0.0,3,45.0,30.0,3,0.7509999999999999,0.0,544.6469999999998,0.13,1,2020-02-07 08:38:22.000,69,2020-02-07 08:47:25.728,0.25,90,90,-180,-180,1
14009,69,0,546.232,0,-90,1,0.25,2,3,0.0,0.0,3,45.0,30.0,3,0.851,1.0,547.043,0.0,0,2020-02-07 08:38:22.000,69,2020-02-07 08:47:28.232,0.25,-90,90,-180,0,1
14010,71,0,575.378,0,-90,1,0.25,2,3,0.0,0.0,3,45.0,30.0,3,0.851,1.0,576.53,0.0,0,2020-02-07 08:38:22.000,69,2020-02-07 08:47:57.378,0.25,-90,90,-180,0,1
14082,83,0,519.929,0,120,1,0.25,2,3,0.0,0.0,8,45.0,30.0,3,0.851,0.0,520.423,0.13,1,2020-02-07 14:14:11.000,126,2020-02-07 14:22:50.929,0.25,90,-60,-180,-30,1
14083,84,0,522.401,0,120,1,0.25,2,9,0.0,0.0,2,45.0,30.0,9,0.7509999999999999,1.0,522.855,0.17,1,2020-02-07 14:14:11.000,126,2020-02-07 14:22:53.401,0.25,-90,120,0,150,1
14084,85,0,527.605,0,120,1,0.25,2,9,0.0,0.0,2,45.0,30.0,9,0.701,1.0,528.244,0.17,1,2020-02-07 14:14:11.000,126,2020-02-07 14:22:58.605,0.25,-90,120,0,150,1
14085,86,0,532.779,0,120,1,0.25,2,3,0.0,0.0,8,45.0,30.0,3,0.901,1.0,533.9159999999998,0.0,0,2020-02-07 14:14:11.000,126,2020-02-07 14:23:03.779,0.25,-90,-60,-180,150,1
14086,88,0,543.629,0,120,1,0.25,2,3,0.0,0.0,8,45.0,30.0,3,0.8009999999999999,1.0,545.019,0.0,0,2020-02-07 14:14:11.000,126,2020-02-07 14:23:14.629,0.25,-90,-60,-180,150,1
14087,91,0,591.146,0,120,1,0.25,2,9,0.0,0.0,2,45.0,30.0,9,0.7509999999999999,1.0,591.562,0.17,1,2020-02-07 14:14:11.000,126,2020-02-07 14:24:02.146,0.25,-90,120,0,150,1
14088,92,0,598.693,0,120,1,0.25,2,3,0.0,0.0,8,45.0,30.0,3,0.901,0.0,599.347,0.13,1,2020-02-07 14:14:11.000,126,2020-02-07 14:24:09.693,0.25,90,-60,-180,-30,1
14089,93,0,601.563,0,120,1,0.25,2,3,0.0,0.0,8,45.0,30.0,3,0.8009999999999999,0.0,602.335,0.13,1,2020-02-07 14:14:11.000,126,2020-02-07 14:24:12.563,0.25,90,-60,-180,-30,1
14090,94,0,606.538,0,120,1,0.25,2,3,0.0,0.0,8,45.0,30.0,3,0.851,0.0,607.41,0.13,1,2020-02-07 14:14:11.000,126,2020-02-07 14:24:17.538,0.25,90,-60,-180,-30,1
14091,95,0,611.4830000000002,0,120,1,0.25,2,3,0.0,0.0,8,45.0,30.0,3,0.701,1.0,612.539,0.0,0,2020-02-07 14:14:11.000,126,2020-02-07 14:24:22.483,0.25,-90,-60,-180,150,1
14658,130,0,967.365,1,180,1,0.25,2,3,0.0,0.0,6,45.0,30.0,3,0.526,0.0,967.745,0.15,1,2020-02-18 14:31:20.000,175,2020-02-18 14:47:27.365,0.25,90,0,-180,-90,1
14659,131,0,973.37,0,180,1,0.25,2,3,0.0,0.0,6,45.0,30.0,3,0.551,1.0,974.22,0.0,0,2020-02-18 14:31:20.000,175,2020-02-18 14:47:33.370,0.25,-90,0,-180,90,1
14660,133,0,989.725,0,180,1,0.25,2,3,0.0,0.0,6,45.0,30.0,3,0.601,1.0,990.857,0.0,0,2020-02-18 14:31:20.000,175,2020-02-18 14:47:49.725,0.25,-90,0,-180,90,1
14662,136,0,1012.344,0,180,1,0.25,2,3,0.0,0.0,6,45.0,30.0,3,0.551,1.0,1012.617,0.0,0,2020-02-18 14:31:20.000,175,2020-02-18 14:48:12.344,0.25,-90,0,-180,90,1
14663,138,0,1024.57,0,180,1,0.25,2,9,0.0,0.0,12,45.0,30.0,9,0.5760000000000001,1.0,1025.274,0.15,1,2020-02-18 14:31:20.000,175,2020-02-18 14:48:24.570,0.25,-90,-180,0,90,1
14664,139,0,1028.736,0,180,1,0.25,2,9,0.0,0.0,12,45.0,30.0,9,0.501,0.0,1029.855,0.0,0,2020-02-18 14:31:20.000,175,2020-02-18 14:48:28.736,0.25,90,-180,0,-90,1
14665,141,0,1040.24,0,180,1,0.25,2,3,0.0,0.0,6,45.0,30.0,3,0.601,0.0,1040.971,0.15,1,2020-02-18 14:31:20.000,175,2020-02-18 14:48:40.240,0.25,90,0,-180,-90,1
14666,142,0,1045.428,0,180,1,0.25,2,3,0.0,0.0,6,45.0,30.0,3,0.501,1.0,1046.456,0.0,0,2020-02-18 14:31:20.000,175,2020-02-18 14:48:45.428,0.25,-90,0,-180,90,1
14667,144,0,1061.46,0,180,1,0.25,2,9,0.0,0.0,12,45.0,30.0,9,0.5760000000000001,1.0,1062.081,0.15,1,2020-02-18 14:31:20.000,175,2020-02-18 14:49:01.460,0.25,-90,-180,0,90,1
14668,145,0,1066.697,0,180,1,0.25,2,3,0.0,0.0,6,45.0,30.0,3,0.526,1.0,1067.421,0.0,0,2020-02-18 14:31:20.000,175,2020-02-18 14:49:06.697,0.25,-90,0,-180,90,1
15160,164,0,1010.864,1,-90,1,0.25,2,9,0.0,0.0,9,45.0,30.0,9,0.501,1.0,1011.407,0.15,1,2020-02-20 07:23:18.000,9,2020-02-20 07:40:08.864,0.25,-90,-90,0,0,1
15162,166,0,1023.383,0,-90,1,0.25,2,3,0.0,0.0,3,45.0,30.0,3,0.601,0.0,1024.063,0.15,1,2020-02-20 07:23:18.000,9,2020-02-20 07:40:21.383,0.25,90,90,-180,-180,1
15163,167,0,1028.087,0,-90,1,0.25,2,9,0.0,0.0,9,45.0,30.0,9,0.551,1.0,1028.713,0.15,1,2020-02-20 07:23:18.000,9,2020-02-20 07:40:26.087,0.25,-90,-90,0,0,1
15164,168,0,1036.494,0,-90,1,0.25,2,3,0.0,0.0,3,45.0,30.0,3,0.526,1.0,1037.046,0.0,0,2020-02-20 07:23:18.000,9,2020-02-20 07:40:34.494,0.25,-90,90,-180,0,1
15165,170,0,1054.145,0,-90,1,0.25,2,9,0.0,0.0,9,45.0,30.0,9,0.5760000000000001,1.0,1054.537,0.15,1,2020-02-20 07:23:18.000,9,2020-02-20 07:40:52.145,0.25,-90,-90,0,0,1
15166,171,0,1064.307,0,-90,1,0.25,2,3,0.0,0.0,3,45.0,30.0,3,0.5760000000000001,0.0,1064.686,0.15,1,2020-02-20 07:23:18.000,9,2020-02-20 07:41:02.307,0.25,90,90,-180,-180,1
15167,172,0,1073.647,0,-90,1,0.25,2,3,0.0,0.0,3,45.0,30.0,3,0.501,0.0,1075.103,0.15,1,2020-02-20 07:23:18.000,9,2020-02-20 07:41:11.647,0.25,90,90,-180,-180,1
15168,173,0,1083.035,0,-90,1,0.25,2,3,0.0,0.0,3,45.0,30.0,3,0.526,0.0,1083.561,0.15,1,2020-02-20 07:23:18.000,9,2020-02-20 07:41:21.035,0.25,90,90,-180,-180,1
15169,174,0,1087.789,0,-90,1,0.25,2,3,0.0,0.0,3,45.0,30.0,3,0.551,0.0,1089.171,0.15,1,2020-02-20 07:23:18.000,9,2020-02-20 07:41:25.789,0.25,90,90,-180,-180,1
15170,175,0,1094.115,0,-90,1,0.25,2,3,0.0,0.0,3,45.0,30.0,3,0.601,0.0,1094.903,0.15,1,2020-02-20 07:23:18.000,9,2020-02-20 07:41:32.115,0.25,90,90,-180,-180,1
15368,219,0,1300.951,0,90,1,0.25,2,9,0.0,0.0,3,45.0,30.0,9,0.551,1.0,1301.665,0.15,1,2020-02-20 14:10:23.000,20,2020-02-20 14:32:03.951,0.25,-90,90,0,-180,1
15369,220,0,1305.855,0,90,1,0.25,2,3,0.0,0.0,9,45.0,30.0,3,0.501,1.0,1306.79,0.0,0,2020-02-20 14:10:23.000,20,2020-02-20 14:32:08.855,0.25,-90,-90,-180,-180,1
15371,223,0,1325.814,0,90,1,0.25,2,3,0.0,0.0,9,45.0,30.0,3,0.551,0.0,1326.333,0.15,1,2020-02-20 14:10:23.000,20,2020-02-20 14:32:28.814,0.25,90,-90,-180,0,1
15372,224,0,1330.461,0,90,1,0.25,2,3,0.0,0.0,9,45.0,30.0,3,0.601,0.0,1330.8339999999996,0.15,1,2020-02-20 14:10:23.000,20,2020-02-20 14:32:33.461,0.25,90,-90,-180,0,1
15373,225,0,1336.213,0,90,1,0.25,2,3,0.0,0.0,9,45.0,30.0,3,0.526,0.0,1337.767,0.15,1,2020-02-20 14:10:23.000,20,2020-02-20 14:32:39.213,0.25,90,-90,-180,0,1
15374,226,0,1343.331,0,90,1,0.25,2,3,0.0,0.0,9,45.0,30.0,3,0.501,1.0,1344.043,0.0,0,2020-02-20 14:10:23.000,20,2020-02-20 14:32:46.331,0.25,-90,-90,-180,-180,1
15375,228,0,1353.559,0,90,1,0.25,2,3,0.0,0.0,9,45.0,30.0,3,0.5760000000000001,0.0,1354.3670000000004,0.15,1,2020-02-20 14:10:23.000,20,2020-02-20 14:32:56.559,0.25,90,-90,-180,0,1
15376,229,0,1358.906,0,90,1,0.25,2,3,0.0,0.0,9,45.0,30.0,3,0.526,0.0,1360.171,0.15,1,2020-02-20 14:10:23.000,20,2020-02-20 14:33:01.906,0.25,90,-90,-180,0,1
15377,230,0,1365.4920000000004,0,90,1,0.25,2,3,0.0,0.0,9,45.0,30.0,3,0.551,1.0,1366.054,0.0,0,2020-02-20 14:10:23.000,20,2020-02-20 14:33:08.492,0.25,-90,-90,-180,-180,1
15378,233,0,1386.5379999999998,0,90,1,0.25,2,9,0.0,0.0,3,45.0,30.0,9,0.601,1.0,1387.2679999999998,0.15,1,2020-02-20 14:10:23.000,20,2020-02-20 14:33:29.538,0.25,-90,90,0,-180,1
15572,205,0,1110.235,1,-150,1,0.25,2,3,0.0,0.0,5,45.0,30.0,3,0.501,1.0,1113.565,0.0,0,2020-02-21 08:36:02.000,44,2020-02-21 08:54:32.235,0.25,-90,30,-180,60,1
15574,208,0,1131.335,0,-150,1,0.25,2,9,0.0,0.0,11,45.0,30.0,9,0.5760000000000001,1.0,1132.086,0.15,1,2020-02-21 08:36:02.000,44,2020-02-21 08:54:53.335,0.25,-90,-150,0,60,1
15575,209,0,1136.837,0,-150,1,0.25,2,9,0.0,0.0,11,45.0,30.0,9,0.601,0.0,1138.841,0.0,0,2020-02-21 08:36:02.000,44,2020-02-21 08:54:58.837,0.25,90,-150,0,-120,1
15576,211,0,1150.11,1,-150,1,0.25,2,9,0.0,0.0,11,45.0,30.0,9,0.526,0.0,1152.794,0.0,0,2020-02-21 08:36:02.000,44,2020-02-21 08:55:12.110,0.25,90,-150,0,-120,1
15577,213,0,1161.42,0,-150,1,0.25,2,3,0.0,0.0,5,45.0,30.0,3,0.501,0.0,1162.899,0.15,1,2020-02-21 08:36:02.000,44,2020-02-21 08:55:23.420,0.25,90,30,-180,-120,1
15578,214,0,1167.58,1,-150,1,0.25,2,3,0.0,0.0,5,45.0,30.0,3,0.551,1.0,1169.921,0.0,0,2020-02-21 08:36:02.000,44,2020-02-21 08:55:29.580,0.25,-90,30,-180,60,1
15579,216,0,1180.971,0,-150,1,0.25,2,9,0.0,0.0,11,45.0,30.0,9,0.5760000000000001,1.0,1181.3,0.15,1,2020-02-21 08:36:02.000,44,2020-02-21 08:55:42.971,0.25,-90,-150,0,60,1
15580,217,0,1184.072,0,-150,1,0.25,2,3,0.0,0.0,5,45.0,30.0,3,0.601,0.0,1184.7910000000004,0.15,1,2020-02-21 08:36:02.000,44,2020-02-21 08:55:46.072,0.25,90,30,-180,-120,1
15581,218,0,1188.8010000000004,0,-150,1,0.25,2,9,0.0,0.0,11,45.0,30.0,9,0.551,1.0,1189.608,0.15,1,2020-02-21 08:36:02.000,44,2020-02-21 08:55:50.801,0.25,-90,-150,0,60,1
15582,219,0,1194.655,0,-150,1,0.25,2,3,0.0,0.0,5,45.0,30.0,3,0.526,1.0,1194.989,0.0,0,2020-02-21 08:36:02.000,44,2020-02-21 08:55:56.655,0.25,-90,30,-180,60,1
15712,157,0,961.249,0,60,1,0.25,2,3,0.0,0.0,10,45.0,30.0,3,0.526,0.0,961.758,0.15,1,2020-02-21 14:07:49.000,70,2020-02-21 14:23:50.249,0.25,90,-120,-180,30,1
15713,158,0,965.374,0,60,1,0.25,2,3,0.0,0.0,10,45.0,30.0,3,0.5760000000000001,0.0,966.14,0.15,1,2020-02-21 14:07:49.000,70,2020-02-21 14:23:54.374,0.25,90,-120,-180,30,1
15714,159,0,969.907,1,60,1,0.25,2,9,0.0,0.0,4,45.0,30.0,9,0.601,1.0,973.21,0.15,1,2020-02-21 14:07:49.000,70,2020-02-21 14:23:58.907,0.25,-90,60,0,-150,1
15715,160,0,976.88,0,60,1,0.25,2,9,0.0,0.0,4,45.0,30.0,9,0.551,1.0,977.669,0.15,1,2020-02-21 14:07:49.000,70,2020-02-21 14:24:05.880,0.25,-90,60,0,-150,1
15716,161,0,984.031,0,60,1,0.25,2,3,0.0,0.0,10,45.0,30.0,3,0.501,1.0,984.8,0.0,0,2020-02-21 14:07:49.000,70,2020-02-21 14:24:13.031,0.25,-90,-120,-180,-150,1
15717,163,0,995.43,0,60,1,0.25,2,9,0.0,0.0,4,45.0,30.0,9,0.551,1.0,996.131,0.15,1,2020-02-21 14:07:49.000,70,2020-02-21 14:24:24.430,0.25,-90,60,0,-150,1
15719,165,0,1003.229,0,60,1,0.25,2,3,0.0,0.0,10,45.0,30.0,3,0.5760000000000001,0.0,1004.019,0.15,1,2020-02-21 14:07:49.000,70,2020-02-21 14:24:32.229,0.25,90,-120,-180,30,1
15721,167,0,1011.591,0,60,1,0.25,2,9,0.0,0.0,4,45.0,30.0,9,0.551,1.0,1012.067,0.15,1,2020-02-21 14:07:49.000,70,2020-02-21 14:24:40.591,0.25,-90,60,0,-150,1
15722,168,0,1015.759,0,60,1,0.25,2,9,0.0,0.0,4,45.0,30.0,9,0.501,1.0,1016.584,0.15,1,2020-02-21 14:07:49.000,70,2020-02-21 14:24:44.759,0.25,-90,60,0,-150,1
15723,169,0,1020.203,0,60,1,0.25,2,3,0.0,0.0,10,45.0,30.0,3,0.526,1.0,1021.138,0.0,0,2020-02-21 14:07:49.000,70,2020-02-21 14:24:49.203,0.25,-90,-120,-180,-150,1
15755,40,0,268.654,0,0,1,0.25,2,9,0.0,0.0,6,45.0,30.0,9,0.601,1.0,269.017,0.15,1,2020-03-02 08:34:41.000,58,2020-03-02 08:39:09.654,0.25,-90,0,0,-90,1
15756,41,0,272.974,0,0,1,0.25,2,9,0.0,0.0,6,45.0,30.0,9,0.551,1.0,273.308,0.15,1,2020-03-02 08:34:41.000,58,2020-03-02 08:39:13.974,0.25,-90,0,0,-90,1
15758,43,0,290.076,1,0,1,0.25,2,9,0.0,0.0,6,45.0,30.0,9,0.501,1.0,290.481,0.15,1,2020-03-02 08:34:41.000,58,2020-03-02 08:39:31.076,0.25,-90,0,0,-90,1
15760,45,0,298.586,0,0,1,0.25,2,9,0.0,0.0,6,45.0,30.0,9,0.601,1.0,299.085,0.15,1,2020-03-02 08:34:41.000,58,2020-03-02 08:39:39.586,0.25,-90,0,0,-90,1
15761,46,0,302.459,0,0,1,0.25,2,9,0.0,0.0,6,45.0,30.0,9,0.601,1.0,303.956,0.15,1,2020-03-02 08:34:41.000,58,2020-03-02 08:39:43.459,0.25,-90,0,0,-90,1
15762,47,0,307.37,0,0,1,0.25,2,9,0.0,0.0,6,45.0,30.0,9,0.551,1.0,308.122,0.15,1,2020-03-02 08:34:41.000,58,2020-03-02 08:39:48.370,0.25,-90,0,0,-90,1
15763,48,0,311.46,1,0,1,0.25,2,9,0.0,0.0,6,45.0,30.0,9,0.501,1.0,312.011,0.15,1,2020-03-02 08:34:41.000,58,2020-03-02 08:39:52.460,0.25,-90,0,0,-90,1
15764,49,0,314.911,0,0,1,0.25,2,3,0.0,0.0,12,45.0,30.0,3,0.526,1.0,316.2870000000001,0.0,0,2020-03-02 08:34:41.000,58,2020-03-02 08:39:55.911,0.25,-90,-180,-180,-90,1
15765,52,0,337.17800000000005,0,0,1,0.25,2,3,0.0,0.0,12,45.0,30.0,3,0.526,1.0,337.831,0.0,0,2020-03-02 08:34:41.000,58,2020-03-02 08:40:18.178,0.25,-90,-180,-180,-90,1
15766,54,0,359.015,0,0,1,0.25,2,3,0.0,0.0,12,45.0,30.0,3,0.601,1.0,360.26,0.0,0,2020-03-02 08:34:41.000,58,2020-03-02 08:40:40.015,0.25,-90,-180,-180,-90,1
16010,97,0,602.804,0,-90,1,0.25,2,9,0.0,0.0,9,45.0,30.0,9,0.551,0.0,603.51,0.0,0,2020-03-03 08:06:06.000,51,2020-03-03 08:16:08.804,0.25,90,-90,0,-180,1
16011,99,0,613.356,0,-90,1,0.25,2,9,0.0,0.0,9,45.0,30.0,9,0.526,1.0,613.616,0.15,1,2020-03-03 08:06:06.000,51,2020-03-03 08:16:19.356,0.25,-90,-90,0,0,1
16012,100,0,618.1080000000002,0,-90,1,0.25,2,3,0.0,0.0,3,45.0,30.0,3,0.501,0.0,618.697,0.15,1,2020-03-03 08:06:06.000,51,2020-03-03 08:16:24.108,0.25,90,90,-180,-180,1
16013,101,0,628.881,0,-90,1,0.25,2,3,0.0,0.0,3,45.0,30.0,3,0.526,0.0,629.656,0.15,1,2020-03-03 08:06:06.000,51,2020-03-03 08:16:34.881,0.25,90,90,-180,-180,1
16014,102,0,634.081,0,-90,1,0.25,2,9,0.0,0.0,9,45.0,30.0,9,0.551,0.0,634.581,0.0,0,2020-03-03 08:06:06.000,51,2020-03-03 08:16:40.081,0.25,90,-90,0,-180,1
16015,104,0,666.305,0,-90,1,0.25,2,9,0.0,0.0,9,45.0,30.0,9,0.601,1.0,666.995,0.15,1,2020-03-03 08:06:06.000,51,2020-03-03 08:17:12.305,0.25,-90,-90,0,0,1
16016,105,0,670.123,0,-90,1,0.25,2,9,0.0,0.0,9,45.0,30.0,9,0.501,1.0,670.9910000000001,0.15,1,2020-03-03 08:06:06.000,51,2020-03-03 08:17:16.123,0.25,-90,-90,0,0,1
16017,106,0,674.255,0,-90,1,0.25,2,9,0.0,0.0,9,45.0,30.0,9,0.501,0.0,674.7560000000002,0.0,0,2020-03-03 08:06:06.000,51,2020-03-03 08:17:20.255,0.25,90,-90,0,-180,1
16018,108,0,685.4780000000002,0,-90,1,0.25,2,3,0.0,0.0,3,45.0,30.0,3,0.526,0.0,685.985,0.15,1,2020-03-03 08:06:06.000,51,2020-03-03 08:17:31.478,0.25,90,90,-180,-180,1
16019,109,0,690.79,0,-90,1,0.25,2,9,0.0,0.0,9,45.0,30.0,9,0.5760000000000001,0.0,691.3969999999998,0.0,0,2020-03-03 08:06:06.000,51,2020-03-03 08:17:36.790,0.25,90,-90,0,-180,1
16176,169,0,1017.241,0,-60,1,0.25,2,9,0.0,0.0,8,45.0,30.0,9,0.601,1.0,1017.862,0.15,1,2020-03-03 13:59:31.000,21,2020-03-03 14:16:28.241,0.25,-90,-60,0,-30,1
16178,171,0,1025.659,0,-60,1,0.25,2,9,0.0,0.0,8,45.0,30.0,9,0.501,1.0,1026.331,0.15,1,2020-03-03 13:59:31.000,21,2020-03-03 14:16:36.659,0.25,-90,-60,0,-30,1
16179,172,0,1030.103,0,-60,1,0.25,2,3,0.0,0.0,2,45.0,30.0,3,0.601,0.0,1030.89,0.15,1,2020-03-03 13:59:31.000,21,2020-03-03 14:16:41.103,0.25,90,120,-180,150,1
16180,173,0,1036.673,0,-60,1,0.25,2,3,0.0,0.0,2,45.0,30.0,3,0.526,0.0,1038.657,0.15,1,2020-03-03 13:59:31.000,21,2020-03-03 14:16:47.673,0.25,90,120,-180,150,1
16181,174,0,1042.06,0,-60,1,0.25,2,3,0.0,0.0,2,45.0,30.0,3,0.551,1.0,1043.189,0.0,0,2020-03-03 13:59:31.000,21,2020-03-03 14:16:53.060,0.25,-90,120,-180,-30,1
16182,176,0,1054.305,0,-60,1,0.25,2,9,0.0,0.0,8,45.0,30.0,9,0.501,1.0,1055.246,0.15,1,2020-03-03 13:59:31.000,21,2020-03-03 14:17:05.305,0.25,-90,-60,0,-30,1
16184,178,0,1063.573,0,-60,1,0.25,2,9,0.0,0.0,8,45.0,30.0,9,0.526,1.0,1064.555,0.15,1,2020-03-03 13:59:31.000,21,2020-03-03 14:17:14.573,0.25,-90,-60,0,-30,1
16185,179,0,1068.15,1,-60,1,0.25,2,3,0.0,0.0,2,45.0,30.0,3,0.5760000000000001,1.0,1068.871,0.0,0,2020-03-03 13:59:31.000,21,2020-03-03 14:17:19.150,0.25,-90,120,-180,-30,1
16186,181,0,1082.186,0,-60,1,0.25,2,9,0.0,0.0,8,45.0,30.0,9,0.5760000000000001,0.0,1083.375,0.0,0,2020-03-03 13:59:31.000,21,2020-03-03 14:17:33.186,0.25,90,-60,0,150,1
16187,183,0,1092.482,0,-60,1,0.25,2,3,0.0,0.0,2,45.0,30.0,3,0.501,1.0,1093.165,0.0,0,2020-03-03 13:59:31.000,21,2020-03-03 14:17:43.482,0.25,-90,120,-180,-30,1
16286,126,0,822.058,0,30,1,0.25,2,3,0.0,0.0,11,45.0,30.0,3,0.5760000000000001,0.0,822.529,0.15,1,2020-03-04 07:19:40.000,215,2020-03-04 07:33:22.058,0.25,90,-150,-180,60,1
16288,128,0,840.193,1,30,1,0.25,2,3,0.0,0.0,11,45.0,30.0,3,0.601,1.0,843.0089999999999,0.0,0,2020-03-04 07:19:40.000,215,2020-03-04 07:33:40.193,0.25,-90,-150,-180,-120,1
16289,130,0,855.6460000000002,0,30,1,0.25,2,9,0.0,0.0,5,45.0,30.0,9,0.501,1.0,856.573,0.145,1,2020-03-04 07:19:40.000,215,2020-03-04 07:33:55.646,0.25,-90,30,0,-120,1
16290,131,0,860.6289999999998,0,30,1,0.25,2,3,0.0,0.0,11,45.0,30.0,3,0.601,0.0,861.2180000000002,0.15,1,2020-03-04 07:19:40.000,215,2020-03-04 07:34:00.629,0.25,90,-150,-180,60,1
16291,132,0,866.076,0,30,1,0.25,2,9,0.0,0.0,5,45.0,30.0,9,0.526,1.0,866.528,0.145,1,2020-03-04 07:19:40.000,215,2020-03-04 07:34:06.076,0.25,-90,30,0,-120,1
16292,133,0,870.212,0,30,1,0.25,2,9,0.0,0.0,5,45.0,30.0,9,0.551,1.0,870.919,0.145,1,2020-03-04 07:19:40.000,215,2020-03-04 07:34:10.212,0.25,-90,30,0,-120,1
16293,134,0,874.704,0,30,1,0.25,2,9,0.0,0.0,5,45.0,30.0,9,0.5760000000000001,1.0,875.347,0.145,1,2020-03-04 07:19:40.000,215,2020-03-04 07:34:14.704,0.25,-90,30,0,-120,1
16294,135,0,879.173,0,30,1,0.25,2,3,0.0,0.0,11,45.0,30.0,3,0.551,0.0,879.591,0.15,1,2020-03-04 07:19:40.000,215,2020-03-04 07:34:19.173,0.25,90,-150,-180,60,1
16295,136,0,883.706,0,30,1,0.25,2,3,0.0,0.0,11,45.0,30.0,3,0.601,0.0,884.3789999999998,0.15,1,2020-03-04 07:19:40.000,215,2020-03-04 07:34:23.706,0.25,90,-150,-180,60,1
16296,137,0,888.423,0,30,1,0.25,2,3,0.0,0.0,11,45.0,30.0,3,0.5760000000000001,1.0,889.471,0.0,0,2020-03-04 07:19:40.000,215,2020-03-04 07:34:28.423,0.25,-90,-150,-180,-120,1
16642,178,0,920.333,0,-120,1,0.25,2,3,0.0,0.0,4,45.0,30.0,3,0.551,0.0,920.966,0.15,1,2020-03-05 08:52:12.000,57,2020-03-05 09:07:32.333,0.25,90,60,-180,-150,1
16643,179,0,924.616,0,-120,1,0.25,2,9,0.0,0.0,10,45.0,30.0,9,0.526,0.0,925.328,0.0,0,2020-03-05 08:52:12.000,57,2020-03-05 09:07:36.616,0.25,90,-120,0,-150,1
16644,182,0,951.737,0,-120,1,0.25,2,9,0.0,0.0,10,45.0,30.0,9,0.551,1.0,952.157,0.15,1,2020-03-05 08:52:12.000,57,2020-03-05 09:08:03.737,0.25,-90,-120,0,30,1
16646,184,0,959.314,0,-120,1,0.25,2,9,0.0,0.0,10,45.0,30.0,9,0.601,1.0,959.723,0.15,1,2020-03-05 08:52:12.000,57,2020-03-05 09:08:11.314,0.25,-90,-120,0,30,1
16647,185,0,963.354,0,-120,1,0.25,2,3,0.0,0.0,4,45.0,30.0,3,0.501,0.0,963.637,0.15,1,2020-03-05 08:52:12.000,57,2020-03-05 09:08:15.354,0.25,90,60,-180,-150,1
16648,186,0,969.016,0,-120,1,0.25,2,3,0.0,0.0,4,45.0,30.0,3,0.551,0.0,969.534,0.15,1,2020-03-05 08:52:12.000,57,2020-03-05 09:08:21.016,0.25,90,60,-180,-150,1
16649,187,0,972.777,0,-120,1,0.25,2,3,0.0,0.0,4,45.0,30.0,3,0.501,0.0,973.566,0.15,1,2020-03-05 08:52:12.000,57,2020-03-05 09:08:24.777,0.25,90,60,-180,-150,1
16650,188,0,977.036,0,-120,1,0.25,2,9,0.0,0.0,10,45.0,30.0,9,0.601,1.0,977.588,0.15,1,2020-03-05 08:52:12.000,57,2020-03-05 09:08:29.036,0.25,-90,-120,0,30,1
16651,189,0,981.919,0,-120,1,0.25,2,3,0.0,0.0,4,45.0,30.0,3,0.5760000000000001,1.0,982.589,0.0,0,2020-03-05 08:52:12.000,57,2020-03-05 09:08:33.919,0.25,-90,60,-180,30,1
16652,191,0,990.446,0,-120,1,0.25,2,3,0.0,0.0,4,45.0,30.0,3,0.551,1.0,991.143,0.0,0,2020-03-05 08:52:12.000,57,2020-03-05 09:08:42.446,0.25,-90,60,-180,30,1
16814,217,0,1204.627,0,90,1,0.25,2,3,0.0,0.0,9,45.0,30.0,3,0.526,0.0,1205.173,0.15,1,2020-03-05 15:08:21.000,114,2020-03-05 15:28:25.627,0.25,90,-90,-180,0,1
16815,218,0,1208.757,0,90,1,0.25,2,9,0.0,0.0,3,45.0,30.0,9,0.501,1.0,1209.357,0.15,1,2020-03-05 15:08:21.000,114,2020-03-05 15:28:29.757,0.25,-90,90,0,-180,1
16816,219,0,1212.965,0,90,1,0.25,2,3,0.0,0.0,9,45.0,30.0,3,0.5760000000000001,0.0,1213.66,0.15,1,2020-03-05 15:08:21.000,114,2020-03-05 15:28:33.965,0.25,90,-90,-180,0,1
16817,220,0,1217.971,0,90,1,0.25,2,9,0.0,0.0,3,45.0,30.0,9,0.601,1.0,1218.516,0.15,1,2020-03-05 15:08:21.000,114,2020-03-05 15:28:38.971,0.25,-90,90,0,-180,1
16818,221,0,1222.102,0,90,1,0.25,2,3,0.0,0.0,9,45.0,30.0,3,0.601,0.0,1222.711,0.15,1,2020-03-05 15:08:21.000,114,2020-03-05 15:28:43.102,0.25,90,-90,-180,0,1
16819,222,0,1226.826,0,90,1,0.25,2,3,0.0,0.0,9,45.0,30.0,3,0.5760000000000001,1.0,1227.634,0.0,0,2020-03-05 15:08:21.000,114,2020-03-05 15:28:47.826,0.25,-90,-90,-180,-180,1
16820,224,0,1237.175,0,90,1,0.25,2,3,0.0,0.0,9,45.0,30.0,3,0.501,0.0,1237.854,0.15,1,2020-03-05 15:08:21.000,114,2020-03-05 15:28:58.175,0.25,90,-90,-180,0,1
16821,225,0,1241.711,0,90,1,0.25,2,9,0.0,0.0,3,45.0,30.0,9,0.551,1.0,1242.35,0.15,1,2020-03-05 15:08:21.000,114,2020-03-05 15:29:02.711,0.25,-90,90,0,-180,1
