,Trial,CorrectionTrial,StartTime,CenterReward,CenterSpoutRotation,nStimReps,Duration,Modality,LED Location,LED_trial_V,LED_bgnd_V,Speaker Location,Speaker_trial_V,Speaker_bgnd_V,TargetSpout,HoldTime,Response,RespTime,ValveTime,Correct,SessionDate,SessionID,StartDateTime,StimulusTotalDuration,response_angle_world,speaker_angle_world,speaker_angle_platform,response_angle_platform,not_probe
346,218,0,1004.912,0,-30,1,0.25,2,3,0.0,0.0,1,45.0,30.0,3,0.701,0.0,1005.38,0.15,1,2019-09-20 08:39:49.000,59,2019-09-20 08:56:33.912,0.25,90,150,-180,120,1
347,219,0,1009.257,0,-30,1,0.25,2,9,0.0,0.0,7,45.0,30.0,9,0.8009999999999999,1.0,1009.561,0.15,1,2019-09-20 08:39:49.000,59,2019-09-20 08:56:38.257,0.25,-90,-30,0,-60,1
348,220,0,1016.464,0,-30,1,0.25,2,3,0.0,0.0,1,45.0,30.0,3,0.851,0.0,1016.849,0.15,1,2019-09-20 08:39:49.000,59,2019-09-20 08:56:45.464,0.25,90,150,-180,120,1
349,221,0,1020.262,0,-30,1,0.25,2,9,0.0,0.0,7,45.0,30.0,9,0.851,1.0,1020.498,0.15,1,2019-09-20 08:39:49.000,59,2019-09-20 08:56:49.262,0.25,-90,-30,0,-60,1
350,222,0,1023.215,0,-30,1,0.25,2,9,0.0,0.0,7,45.0,30.0,9,0.8009999999999999,1.0,1023.499,0.15,1,2019-09-20 08:39:49.000,59,2019-09-20 08:56:52.215,0.25,-90,-30,0,-60,1
351,223,0,1032.018,0,-30,1,0.25,2,3,0.0,0.0,1,45.0,30.0,3,0.7509999999999999,0.0,1032.742,0.15,1,2019-09-20 08:39:49.000,59,2019-09-20 08:57:01.018,0.25,90,150,-180,120,1
352,224,0,1035.8,0,-30,1,0.25,2,9,0.0,0.0,7,45.0,30.0,9,0.901,0.0,1036.195,0.0,0,2019-09-20 08:39:49.000,59,2019-09-20 08:57:04.800,0.25,90,-30,0,120,1
353,226,0,1041.722,0,-30,1,0.25,2,9,0.0,0.0,7,45.0,30.0,9,0.8009999999999999,1.0,1042.121,0.15,1,2019-09-20 08:39:49.000,59,2019-09-20 08:57:10.722,0.25,-90,-30,0,-60,1
354,227,0,1045.908,0,-30,1,0.25,2,9,0.0,0.0,7,45.0,30.0,9,0.901,1.0,1046.566,0.15,1,2019-09-20 08:39:49.000,59,2019-09-20 08:57:14.908,0.25,-90,-30,0,-60,1
355,228,0,1052.16,0,-30,1,0.25,2,3,0.0,0.0,1,45.0,30.0,3,0.701,0.0,1052.661,0.15,1,2019-09-20 08:39:49.000,59,2019-09-20 08:57:21.160,0.25,90,150,-180,120,1
489,183,0,820.0360000000002,0,30,1,0.25,2,3,0.0,0.0,11,45.0,30.0,3,0.7509999999999999,0.0,820.735,0.15,1,2019-09-20 13:59:57.000,114,2019-09-20 14:13:37.036,0.25,90,-150,-180,60,1
490,184,0,826.8560000000001,0,30,1,0.25,2,3,0.0,0.0,11,45.0,30.0,3,0.851,0.0,827.2439999999998,0.15,1,2019-09-20 13:59:57.000,114,2019-09-20 14:13:43.856,0.25,90,-150,-180,60,1
491,185,0,831.4169999999998,0,30,1,0.25,2,9,0.0,0.0,5,45.0,30.0,9,0.701,0.0,832.078,0.0,0,2019-09-20 13:59:57.000,114,2019-09-20 14:13:48.417,0.25,90,30,0,60,1
492,187,0,837.694,0,30,1,0.25,2,9,0.0,0.0,5,45.0,30.0,9,0.7509999999999999,1.0,838.3,0.15,1,2019-09-20 13:59:57.000,114,2019-09-20 14:13:54.694,0.25,-90,30,0,-120,1
493,188,0,841.1410000000002,0,30,1,0.25,2,9,0.0,0.0,5,45.0,30.0,9,0.701,1.0,842.025,0.15,1,2019-09-20 13:59:57.000,114,2019-09-20 14:13:58.141,0.25,-90,30,0,-120,1
494,189,0,846.6360000000002,0,30,1,0.25,2,3,0.0,0.0,11,45.0,30.0,3,0.901,0.0,846.908,0.15,1,2019-09-20 13:59:57.000,114,2019-09-20 14:14:03.636,0.25,90,-150,-180,60,1
495,190,0,851.717,0,30,1,0.25,2,9,0.0,0.0,5,45.0,30.0,9,0.8009999999999999,1.0,852.186,0.15,1,2019-09-20 13:59:57.000,114,2019-09-20 14:14:08.717,0.25,-90,30,0,-120,1
496,191,0,855.49,0,30,1,0.25,2,9,0.0,0.0,5,45.0,30.0,9,0.7509999999999999,1.0,855.926,0.15,1,2019-09-20 13:59:57.000,114,2019-09-20 14:14:12.490,0.25,-90,30,0,-120,1
497,192,0,860.67,0,30,1,0.25,2,9,0.0,0.0,5,45.0,30.0,9,0.8009999999999999,1.0,861.049,0.15,1,2019-09-20 13:59:57.000,114,2019-09-20 14:14:17.670,0.25,-90,30,0,-120,1
498,193,0,868.3919999999998,0,30,1,0.25,2,3,0.0,0.0,11,45.0,30.0,3,0.701,0.0,868.962,0.15,1,2019-09-20 13:59:57.000,114,2019-09-20 14:14:25.392,0.25,90,-150,-180,60,1
710,174,0,817.568,0,0,1,0.25,2,3,0.0,0.0,12,45.0,30.0,3,0.7509999999999999,0.0,818.703,0.15,1,2019-09-23 16:12:24.000,1,2019-09-23 16:26:01.568,0.25,90,-180,-180,90,1
711,175,0,822.0260000000002,1,0,1,0.25,2,3,0.0,0.0,12,45.0,30.0,3,0.851,0.0,822.794,0.15,1,2019-09-23 16:12:24.000,1,2019-09-23 16:26:06.026,0.25,90,-180,-180,90,1
712,176,0,826.059,0,0,1,0.25,2,9,0.0,0.0,6,45.0,30.0,9,0.7509999999999999,0.0,828.003,0.0,0,2019-09-23 16:12:24.000,1,2019-09-23 16:26:10.059,0.25,90,0,0,90,1
713,178,0,838.821,0,0,1,0.25,2,9,0.0,0.0,6,45.0,30.0,9,0.901,1.0,839.31,0.15,1,2019-09-23 16:12:24.000,1,2019-09-23 16:26:22.821,0.25,-90,0,0,-90,1
714,179,0,845.98,0,0,1,0.25,2,3,0.0,0.0,12,45.0,30.0,3,0.851,1.0,846.438,0.0,0,2019-09-23 16:12:24.000,1,2019-09-23 16:26:29.980,0.25,-90,-180,-180,-90,1
715,181,0,854.346,0,0,1,0.25,2,3,0.0,0.0,12,45.0,30.0,3,0.851,1.0,854.962,0.0,0,2019-09-23 16:12:24.000,1,2019-09-23 16:26:38.346,0.25,-90,-180,-180,-90,1
716,183,0,861.102,0,0,1,0.25,2,9,0.0,0.0,6,45.0,30.0,9,0.901,1.0,861.247,0.15,1,2019-09-23 16:12:24.000,1,2019-09-23 16:26:45.102,0.25,-90,0,0,-90,1
717,184,0,870.095,0,0,1,0.25,2,3,0.0,0.0,12,45.0,30.0,3,0.8009999999999999,0.0,870.448,0.15,1,2019-09-23 16:12:24.000,1,2019-09-23 16:26:54.095,0.25,90,-180,-180,90,1
718,185,0,873.7410000000001,0,0,1,0.25,2,3,0.0,0.0,12,45.0,30.0,3,0.701,0.0,874.4689999999998,0.15,1,2019-09-23 16:12:24.000,1,2019-09-23 16:26:57.741,0.25,90,-180,-180,90,1
719,186,0,877.5989999999998,0,0,1,0.25,2,3,0.0,0.0,12,45.0,30.0,3,0.851,1.0,877.806,0.0,0,2019-09-23 16:12:24.000,1,2019-09-23 16:27:01.599,0.25,-90,-180,-180,-90,1
951,161,0,686.2610000000002,0,-30,1,0.25,2,3,0.0,0.0,1,45.0,30.0,3,0.901,0.0,687.1410000000002,0.15,1,2019-09-24 13:59:43.000,242,2019-09-24 14:11:09.261,0.25,90,150,-180,120,1
952,162,0,690.11,0,-30,1,0.25,2,9,0.0,0.0,7,45.0,30.0,9,0.7509999999999999,1.0,690.538,0.15,1,2019-09-24 13:59:43.000,242,2019-09-24 14:11:13.110,0.25,-90,-30,0,-60,1
953,163,0,693.615,0,-30,1,0.25,2,9,0.0,0.0,7,45.0,30.0,9,0.8009999999999999,0.0,694.488,0.0,0,2019-09-24 13:59:43.000,242,2019-09-24 14:11:16.615,0.25,90,-30,0,120,1
954,165,0,699.93,0,-30,1,0.25,2,3,0.0,0.0,1,45.0,30.0,3,0.851,0.0,700.6080000000002,0.15,1,2019-09-24 13:59:43.000,242,2019-09-24 14:11:22.930,0.25,90,150,-180,120,1
955,166,0,703.4789999999998,0,-30,1,0.25,2,3,0.0,0.0,1,45.0,30.0,3,0.701,1.0,704.2589999999999,0.0,0,2019-09-24 13:59:43.000,242,2019-09-24 14:11:26.479,0.25,-90,150,-180,-60,1
956,168,0,709.9110000000002,0,-30,1,0.25,2,3,0.0,0.0,1,45.0,30.0,3,0.901,1.0,710.555,0.0,0,2019-09-24 13:59:43.000,242,2019-09-24 14:11:32.911,0.25,-90,150,-180,-60,1
957,170,0,715.49,0,-30,1,0.25,2,3,0.0,0.0,1,45.0,30.0,3,0.8009999999999999,0.0,716.0889999999998,0.15,1,2019-09-24 13:59:43.000,242,2019-09-24 14:11:38.490,0.25,90,150,-180,120,1
958,171,0,718.927,0,-30,1,0.25,2,3,0.0,0.0,1,45.0,30.0,3,0.7509999999999999,0.0,719.385,0.15,1,2019-09-24 13:59:43.000,242,2019-09-24 14:11:41.927,0.25,90,150,-180,120,1
959,172,0,722.941,0,-30,1,0.25,2,9,0.0,0.0,7,45.0,30.0,9,0.851,0.0,723.471,0.0,0,2019-09-24 13:59:43.000,242,2019-09-24 14:11:45.941,0.25,90,-30,0,120,1
960,175,0,733.375,0,-30,1,0.25,2,3,0.0,0.0,1,45.0,30.0,3,0.701,1.0,733.802,0.0,0,2019-09-24 13:59:43.000,242,2019-09-24 14:11:56.375,0.25,-90,150,-180,-60,1
1099,199,0,925.786,0,-60,1,0.25,2,9,0.0,0.0,8,45.0,30.0,9,0.701,1.0,926.676,0.15,1,2019-09-25 08:40:03.000,116,2019-09-25 08:55:28.786,0.25,-90,-60,0,-30,1
1100,200,0,932.636,0,-60,1,0.25,2,3,0.0,0.0,2,45.0,30.0,3,0.901,1.0,932.897,0.0,0,2019-09-25 08:40:03.000,116,2019-09-25 08:55:35.636,0.25,-90,120,-180,-30,1
1101,202,0,938.038,0,-60,1,0.25,2,9,0.0,0.0,8,45.0,30.0,9,0.7509999999999999,0.0,938.814,0.0,0,2019-09-25 08:40:03.000,116,2019-09-25 08:55:41.038,0.25,90,-60,0,150,1
1102,204,0,951.697,0,-60,1,0.25,2,9,0.0,0.0,8,45.0,30.0,9,0.8009999999999999,1.0,952.288,0.15,1,2019-09-25 08:40:03.000,116,2019-09-25 08:55:54.697,0.25,-90,-60,0,-30,1
1103,205,0,963.13,1,-60,1,0.25,2,9,0.0,0.0,8,45.0,30.0,9,0.851,1.0,963.461,0.15,1,2019-09-25 08:40:03.000,116,2019-09-25 08:56:06.130,0.25,-90,-60,0,-30,1
1104,206,0,966.504,0,-60,1,0.25,2,3,0.0,0.0,2,45.0,30.0,3,0.8009999999999999,0.0,968.125,0.15,1,2019-09-25 08:40:03.000,116,2019-09-25 08:56:09.504,0.25,90,120,-180,150,1
1105,207,0,971.244,0,-60,1,0.25,2,3,0.0,0.0,2,45.0,30.0,3,0.701,1.0,972.059,0.0,0,2019-09-25 08:40:03.000,116,2019-09-25 08:56:14.244,0.25,-90,120,-180,-30,1
1106,209,0,991.293,0,-60,1,0.25,2,9,0.0,0.0,8,45.0,30.0,9,0.901,1.0,992.772,0.15,1,2019-09-25 08:40:03.000,116,2019-09-25 08:56:34.293,0.25,-90,-60,0,-30,1
1107,210,0,1002.328,0,-60,1,0.25,2,9,0.0,0.0,8,45.0,30.0,9,0.851,1.0,1002.631,0.15,1,2019-09-25 08:40:03.000,116,2019-09-25 08:56:45.328,0.25,-90,-60,0,-30,1
1108,211,0,1005.977,0,-60,1,0.25,2,3,0.0,0.0,2,45.0,30.0,3,0.8009999999999999,0.0,1006.264,0.15,1,2019-09-25 08:40:03.000,116,2019-09-25 08:56:48.977,0.25,90,120,-180,150,1
1242,175,0,745.207,0,-90,1,0.25,2,9,0.0,0.0,9,45.0,30.0,9,0.851,1.0,745.7289999999998,0.15,1,2019-09-25 14:06:47.000,58,2019-09-25 14:19:12.207,0.25,-90,-90,0,0,1
1243,176,0,749.071,0,-90,1,0.25,2,9,0.0,0.0,9,45.0,30.0,9,0.7509999999999999,1.0,750.046,0.15,1,2019-09-25 14:06:47.000,58,2019-09-25 14:19:16.071,0.25,-90,-90,0,0,1
1244,177,0,753.1160000000001,0,-90,1,0.25,2,3,0.0,0.0,3,45.0,30.0,3,0.701,1.0,754.283,0.0,0,2019-09-25 14:06:47.000,58,2019-09-25 14:19:20.116,0.25,-90,90,-180,0,1
1245,179,0,766.148,0,-90,1,0.25,2,3,0.0,0.0,3,45.0,30.0,3,0.851,0.0,766.91,0.15,1,2019-09-25 14:06:47.000,58,2019-09-25 14:19:33.148,0.25,90,90,-180,-180,1
1246,180,0,770.052,0,-90,1,0.25,2,9,0.0,0.0,9,45.0,30.0,9,0.901,1.0,770.465,0.15,1,2019-09-25 14:06:47.000,58,2019-09-25 14:19:37.052,0.25,-90,-90,0,0,1
1247,181,0,773.4730000000002,0,-90,1,0.25,2,9,0.0,0.0,9,45.0,30.0,9,0.851,1.0,774.31,0.15,1,2019-09-25 14:06:47.000,58,2019-09-25 14:19:40.473,0.25,-90,-90,0,0,1
1248,182,0,777.837,0,-90,1,0.25,2,9,0.0,0.0,9,45.0,30.0,9,0.8009999999999999,1.0,778.745,0.15,1,2019-09-25 14:06:47.000,58,2019-09-25 14:19:44.837,0.25,-90,-90,0,0,1
1249,183,0,782.221,0,-90,1,0.25,2,3,0.0,0.0,3,45.0,30.0,3,0.701,1.0,782.796,0.0,0,2019-09-25 14:06:47.000,58,2019-09-25 14:19:49.221,0.25,-90,90,-180,0,1
1250,185,0,788.93,0,-90,1,0.25,2,3,0.0,0.0,3,45.0,30.0,3,0.901,1.0,789.6289999999998,0.0,0,2019-09-25 14:06:47.000,58,2019-09-25 14:19:55.930,0.25,-90,90,-180,0,1
1251,187,0,794.821,0,-90,1,0.25,2,3,0.0,0.0,3,45.0,30.0,3,0.8009999999999999,0.0,797.166,0.15,1,2019-09-25 14:06:47.000,58,2019-09-25 14:20:01.821,0.25,90,90,-180,-180,1
1549,233,0,968.581,0,-150,1,0.25,2,3,0.0,0.0,5,45.0,30.0,3,0.851,1.0,968.952,0.0,0,2019-09-26 14:06:22.000,156,2019-09-26 14:22:30.581,0.25,-90,30,-180,60,1
1550,235,0,974.94,0,-150,1,0.25,2,3,0.0,0.0,5,45.0,30.0,3,0.901,0.0,975.605,0.15,1,2019-09-26 14:06:22.000,156,2019-09-26 14:22:36.940,0.25,90,30,-180,-120,1
1551,236,0,979.602,0,-150,1,0.25,2,9,0.0,0.0,11,45.0,30.0,9,0.701,1.0,980.28,0.15,1,2019-09-26 14:06:22.000,156,2019-09-26 14:22:41.602,0.25,-90,-150,0,60,1
1552,237,0,984.17,0,-150,1,0.25,2,3,0.0,0.0,5,45.0,30.0,3,0.8009999999999999,0.0,984.42,0.15,1,2019-09-26 14:06:22.000,156,2019-09-26 14:22:46.170,0.25,90,30,-180,-120,1
1553,238,0,988.479,0,-150,1,0.25,2,9,0.0,0.0,11,45.0,30.0,9,0.851,1.0,988.758,0.15,1,2019-09-26 14:06:22.000,156,2019-09-26 14:22:50.479,0.25,-90,-150,0,60,1
1554,239,0,992.707,0,-150,1,0.25,2,3,0.0,0.0,5,45.0,30.0,3,0.7509999999999999,0.0,993.061,0.15,1,2019-09-26 14:06:22.000,156,2019-09-26 14:22:54.707,0.25,90,30,-180,-120,1
1555,240,0,1000.815,0,-150,1,0.25,2,3,0.0,0.0,5,45.0,30.0,3,0.701,0.0,1001.342,0.15,1,2019-09-26 14:06:22.000,156,2019-09-26 14:23:02.815,0.25,90,30,-180,-120,1
1556,241,0,1005.181,0,-150,1,0.25,2,3,0.0,0.0,5,45.0,30.0,3,0.8009999999999999,0.0,1005.797,0.15,1,2019-09-26 14:06:22.000,156,2019-09-26 14:23:07.181,0.25,90,30,-180,-120,1
1557,242,0,1009.511,0,-150,1,0.25,2,9,0.0,0.0,11,45.0,30.0,9,0.901,1.0,1010.045,0.15,1,2019-09-26 14:06:22.000,156,2019-09-26 14:23:11.511,0.25,-90,-150,0,60,1
1558,243,0,1013.466,0,-150,1,0.25,2,9,0.0,0.0,11,45.0,30.0,9,0.7509999999999999,1.0,1014.336,0.15,1,2019-09-26 14:06:22.000,156,2019-09-26 14:23:15.466,0.25,-90,-150,0,60,1
1677,115,0,547.05,0,180,1,0.25,2,3,0.0,0.0,6,45.0,30.0,3,0.901,0.0,547.618,0.15,1,2019-09-27 09:32:46.000,213,2019-09-27 09:41:53.050,0.25,90,0,-180,-90,1
1678,116,0,551.638,0,180,1,0.25,2,3,0.0,0.0,6,45.0,30.0,3,0.701,0.0,552.189,0.15,1,2019-09-27 09:32:46.000,213,2019-09-27 09:41:57.638,0.25,90,0,-180,-90,1
1679,117,0,555.911,0,180,1,0.25,2,3,0.0,0.0,6,45.0,30.0,3,0.8009999999999999,0.0,556.686,0.15,1,2019-09-27 09:32:46.000,213,2019-09-27 09:42:01.911,0.25,90,0,-180,-90,1
1680,118,0,563.414,0,180,1,0.25,2,9,0.0,0.0,12,45.0,30.0,9,0.901,1.0,563.635,0.15,1,2019-09-27 09:32:46.000,213,2019-09-27 09:42:09.414,0.25,-90,-180,0,90,1
1681,119,0,567.471,0,180,1,0.25,2,9,0.0,0.0,12,45.0,30.0,9,0.7509999999999999,1.0,567.879,0.15,1,2019-09-27 09:32:46.000,213,2019-09-27 09:42:13.471,0.25,-90,-180,0,90,1
1682,120,0,570.887,0,180,1,0.25,2,9,0.0,0.0,12,45.0,30.0,9,0.851,1.0,571.622,0.15,1,2019-09-27 09:32:46.000,213,2019-09-27 09:42:16.887,0.25,-90,-180,0,90,1
1683,121,0,575.129,0,180,1,0.25,2,9,0.0,0.0,12,45.0,30.0,9,0.901,1.0,575.345,0.15,1,2019-09-27 09:32:46.000,213,2019-09-27 09:42:21.129,0.25,-90,-180,0,90,1
1684,122,0,579.391,0,180,1,0.25,2,3,0.0,0.0,6,45.0,30.0,3,0.8009999999999999,0.0,579.997,0.15,1,2019-09-27 09:32:46.000,213,2019-09-27 09:42:25.391,0.25,90,0,-180,-90,1
1685,123,0,583.302,0,180,1,0.25,2,3,0.0,0.0,6,45.0,30.0,3,0.851,1.0,583.477,0.0,0,2019-09-27 09:32:46.000,213,2019-09-27 09:42:29.302,0.25,-90,0,-180,90,1
1686,126,0,598.489,0,180,1,0.25,2,9,0.0,0.0,12,45.0,30.0,9,0.701,1.0,598.903,0.15,1,2019-09-27 09:32:46.000,213,2019-09-27 09:42:44.489,0.25,-90,-180,0,90,1
1824,190,0,860.7610000000002,0,150,1,0.25,2,9,0.0,0.0,1,45.0,30.0,9,0.7509999999999999,0.0,861.722,0.0,0,2019-09-27 14:44:40.000,11,2019-09-27 14:59:00.761,0.25,90,150,0,-60,1
1825,192,0,867.4119999999998,0,150,1,0.25,2,9,0.0,0.0,1,45.0,30.0,9,0.851,1.0,868.002,0.15,1,2019-09-27 14:44:40.000,11,2019-09-27 14:59:07.412,0.25,-90,150,0,120,1
1826,193,0,871.203,0,150,1,0.25,2,3,0.0,0.0,7,45.0,30.0,3,0.8009999999999999,0.0,871.7639999999999,0.15,1,2019-09-27 14:44:40.000,11,2019-09-27 14:59:11.203,0.25,90,-30,-180,-60,1
1827,194,0,878.717,0,150,1,0.25,2,3,0.0,0.0,7,45.0,30.0,3,0.7509999999999999,1.0,879.1419999999998,0.0,0,2019-09-27 14:44:40.000,11,2019-09-27 14:59:18.717,0.25,-90,-30,-180,120,1
1828,196,0,887.5260000000002,0,150,1,0.25,2,3,0.0,0.0,7,45.0,30.0,3,0.851,0.0,887.935,0.15,1,2019-09-27 14:44:40.000,11,2019-09-27 14:59:27.526,0.25,90,-30,-180,-60,1
1829,197,0,891.283,0,150,1,0.25,2,9,0.0,0.0,1,45.0,30.0,9,0.701,1.0,891.738,0.15,1,2019-09-27 14:44:40.000,11,2019-09-27 14:59:31.283,0.25,-90,150,0,120,1
1830,198,0,895.325,0,150,1,0.25,2,9,0.0,0.0,1,45.0,30.0,9,0.901,1.0,895.8660000000001,0.15,1,2019-09-27 14:44:40.000,11,2019-09-27 14:59:35.325,0.25,-90,150,0,120,1
1831,199,0,904.17,0,150,1,0.25,2,9,0.0,0.0,1,45.0,30.0,9,0.8009999999999999,1.0,904.9,0.15,1,2019-09-27 14:44:40.000,11,2019-09-27 14:59:44.170,0.25,-90,150,0,120,1
1832,200,0,911.582,0,150,1,0.25,2,3,0.0,0.0,7,45.0,30.0,3,0.7509999999999999,0.0,912.007,0.15,1,2019-09-27 14:44:40.000,11,2019-09-27 14:59:51.582,0.25,90,-30,-180,-60,1
1833,201,0,921.005,0,150,1,0.25,2,9,0.0,0.0,1,45.0,30.0,9,0.701,0.0,921.39,0.0,0,2019-09-27 14:44:40.000,11,2019-09-27 15:00:01.005,0.25,90,150,0,-60,1
1950,152,0,747.4860000000001,0,0,1,0.25,2,3,0.0,0.0,12,45.0,30.0,3,0.7509999999999999,0.0,748.0089999999999,0.15,1,2019-09-30 09:13:31.000,215,2019-09-30 09:25:58.486,0.25,90,-180,-180,90,1
1951,153,0,751.538,0,0,1,0.25,2,9,0.0,0.0,6,45.0,30.0,9,0.8009999999999999,0.0,752.215,0.0,0,2019-09-30 09:13:31.000,215,2019-09-30 09:26:02.538,0.25,90,0,0,90,1
1952,155,0,758.065,0,0,1,0.25,2,3,0.0,0.0,12,45.0,30.0,3,0.901,1.0,758.597,0.0,0,2019-09-30 09:13:31.000,215,2019-09-30 09:26:09.065,0.25,-90,-180,-180,-90,1
1953,157,0,764.2610000000002,0,0,1,0.25,2,9,0.0,0.0,6,45.0,30.0,9,0.901,1.0,764.742,0.15,1,2019-09-30 09:13:31.000,215,2019-09-30 09:26:15.261,0.25,-90,0,0,-90,1
1954,158,0,771.5939999999998,0,0,1,0.25,2,9,0.0,0.0,6,45.0,30.0,9,0.8009999999999999,1.0,771.9760000000001,0.15,1,2019-09-30 09:13:31.000,215,2019-09-30 09:26:22.594,0.25,-90,0,0,-90,1
1955,159,0,775.178,0,0,1,0.25,2,9,0.0,0.0,6,45.0,30.0,9,0.851,1.0,775.915,0.15,1,2019-09-30 09:13:31.000,215,2019-09-30 09:26:26.178,0.25,-90,0,0,-90,1
1956,160,0,779.675,0,0,1,0.25,2,3,0.0,0.0,12,45.0,30.0,3,0.7509999999999999,0.0,780.383,0.15,1,2019-09-30 09:13:31.000,215,2019-09-30 09:26:30.675,0.25,90,-180,-180,90,1
1957,161,0,783.9069999999998,0,0,1,0.25,2,3,0.0,0.0,12,45.0,30.0,3,0.7509999999999999,1.0,784.544,0.0,0,2019-09-30 09:13:31.000,215,2019-09-30 09:26:34.907,0.25,-90,-180,-180,-90,1
1958,164,0,795.939,0,0,1,0.25,2,3,0.0,0.0,12,45.0,30.0,3,0.701,0.0,796.6519999999998,0.15,1,2019-09-30 09:13:31.000,215,2019-09-30 09:26:46.939,0.25,90,-180,-180,90,1
1959,165,0,800.1260000000002,0,0,1,0.25,2,9,0.0,0.0,6,45.0,30.0,9,0.8009999999999999,1.0,800.702,0.15,1,2019-09-30 09:13:31.000,215,2019-09-30 09:26:51.126,0.25,-90,0,0,-90,1
2276,180,0,876.9910000000001,0,30,1,0.25,2,9,0.0,0.0,5,45.0,30.0,9,0.701,1.0,878.666,0.15,1,2019-10-01 08:48:10.000,84,2019-10-01 09:02:46.991,0.25,-90,30,0,-120,1
2277,181,0,884.3510000000001,1,30,1,0.25,2,3,0.0,0.0,11,45.0,30.0,3,0.901,0.0,884.592,0.15,1,2019-10-01 08:48:10.000,84,2019-10-01 09:02:54.351,0.25,90,-150,-180,60,1
2278,182,0,887.193,0,30,1,0.25,2,3,0.0,0.0,11,45.0,30.0,3,0.851,0.0,889.064,0.15,1,2019-10-01 08:48:10.000,84,2019-10-01 09:02:57.193,0.25,90,-150,-180,60,1
2279,183,0,892.805,0,30,1,0.25,2,3,0.0,0.0,11,45.0,30.0,3,0.8009999999999999,1.0,893.569,0.0,0,2019-10-01 08:48:10.000,84,2019-10-01 09:03:02.805,0.25,-90,-150,-180,-120,1
2280,185,0,902.487,0,30,1,0.25,2,9,0.0,0.0,5,45.0,30.0,9,0.7509999999999999,1.0,903.025,0.15,1,2019-10-01 08:48:10.000,84,2019-10-01 09:03:12.487,0.25,-90,30,0,-120,1
2281,186,0,911.042,0,30,1,0.25,2,3,0.0,0.0,11,45.0,30.0,3,0.851,0.0,911.479,0.15,1,2019-10-01 08:48:10.000,84,2019-10-01 09:03:21.042,0.25,90,-150,-180,60,1
2282,187,0,914.381,0,30,1,0.25,2,3,0.0,0.0,11,45.0,30.0,3,0.7509999999999999,0.0,915.245,0.15,1,2019-10-01 08:48:10.000,84,2019-10-01 09:03:24.381,0.25,90,-150,-180,60,1
2283,188,0,918.177,0,30,1,0.25,2,9,0.0,0.0,5,45.0,30.0,9,0.701,1.0,918.534,0.15,1,2019-10-01 08:48:10.000,84,2019-10-01 09:03:28.177,0.25,-90,30,0,-120,1
2284,189,0,933.605,0,30,1,0.25,2,3,0.0,0.0,11,45.0,30.0,3,0.8009999999999999,1.0,934.16,0.0,0,2019-10-01 08:48:10.000,84,2019-10-01 09:03:43.605,0.25,-90,-150,-180,-120,1
2285,191,0,942.313,0,30,1,0.25,2,3,0.0,0.0,11,45.0,30.0,3,0.8009999999999999,1.0,942.801,0.0,0,2019-10-01 08:48:10.000,84,2019-10-01 09:03:52.313,0.25,-90,-150,-180,-120,1
2471,252,0,1082.976,0,60,1,0.25,2,9,0.0,0.0,4,45.0,30.0,9,0.7509999999999999,1.0,1083.849,0.15,1,2019-10-01 14:18:04.000,157,2019-10-01 14:36:06.976,0.25,-90,60,0,-150,1
2472,253,0,1087.038,0,60,1,0.25,2,3,0.0,0.0,10,45.0,30.0,3,0.851,0.0,1087.48,0.15,1,2019-10-01 14:18:04.000,157,2019-10-01 14:36:11.038,0.25,90,-120,-180,30,1
2473,254,0,1091.143,0,60,1,0.25,2,9,0.0,0.0,4,45.0,30.0,9,0.701,1.0,1092.402,0.15,1,2019-10-01 14:18:04.000,157,2019-10-01 14:36:15.143,0.25,-90,60,0,-150,1
2474,255,0,1098.365,0,60,1,0.25,2,9,0.0,0.0,4,45.0,30.0,9,0.901,1.0,1099.217,0.15,1,2019-10-01 14:18:04.000,157,2019-10-01 14:36:22.365,0.25,-90,60,0,-150,1
2475,256,0,1102.565,0,60,1,0.25,2,3,0.0,0.0,10,45.0,30.0,3,0.901,0.0,1103.05,0.15,1,2019-10-01 14:18:04.000,157,2019-10-01 14:36:26.565,0.25,90,-120,-180,30,1
2476,257,0,1107.871,0,60,1,0.25,2,9,0.0,0.0,4,45.0,30.0,9,0.8009999999999999,1.0,1108.2910000000004,0.15,1,2019-10-01 14:18:04.000,157,2019-10-01 14:36:31.871,0.25,-90,60,0,-150,1
2477,258,0,1111.831,0,60,1,0.25,2,3,0.0,0.0,10,45.0,30.0,3,0.851,1.0,1112.597,0.0,0,2019-10-01 14:18:04.000,157,2019-10-01 14:36:35.831,0.25,-90,-120,-180,-150,1
2478,260,0,1127.351,0,60,1,0.25,2,9,0.0,0.0,4,45.0,30.0,9,0.7509999999999999,0.0,1128.213,0.0,0,2019-10-01 14:18:04.000,157,2019-10-01 14:36:51.351,0.25,90,60,0,30,1
2479,262,0,1133.029,0,60,1,0.25,2,3,0.0,0.0,10,45.0,30.0,3,0.851,0.0,1133.371,0.15,1,2019-10-01 14:18:04.000,157,2019-10-01 14:36:57.029,0.25,90,-120,-180,30,1
2480,263,0,1137.376,0,60,1,0.25,2,9,0.0,0.0,4,45.0,30.0,9,0.701,1.0,1137.998,0.15,1,2019-10-01 14:18:04.000,157,2019-10-01 14:37:01.376,0.25,-90,60,0,-150,1
2566,125,0,564.731,0,90,1,0.25,2,3,0.0,0.0,9,45.0,30.0,3,0.701,1.0,565.5980000000002,0.0,0,2019-10-02 08:49:53.000,234,2019-10-02 08:59:17.731,0.25,-90,-90,-180,-180,1
2567,127,0,573.862,0,90,1,0.25,2,3,0.0,0.0,9,45.0,30.0,3,0.901,1.0,574.189,0.0,0,2019-10-02 08:49:53.000,234,2019-10-02 08:59:26.862,0.25,-90,-90,-180,-180,1
2568,129,0,579.992,0,90,1,0.25,2,3,0.0,0.0,9,45.0,30.0,3,0.851,0.0,580.366,0.12,1,2019-10-02 08:49:53.000,234,2019-10-02 08:59:32.992,0.25,90,-90,-180,0,1
2569,130,0,584.187,0,90,1,0.25,2,9,0.0,0.0,3,45.0,30.0,9,0.7509999999999999,1.0,584.695,0.172,1,2019-10-02 08:49:53.000,234,2019-10-02 08:59:37.187,0.25,-90,90,0,-180,1
2570,131,0,591.23,0,90,1,0.25,2,9,0.0,0.0,3,45.0,30.0,9,0.701,0.0,591.431,0.0,0,2019-10-02 08:49:53.000,234,2019-10-02 08:59:44.230,0.25,90,90,0,0,1
2571,133,0,602.655,0,90,1,0.25,2,3,0.0,0.0,9,45.0,30.0,3,0.8009999999999999,0.0,603.096,0.12,1,2019-10-02 08:49:53.000,234,2019-10-02 08:59:55.655,0.25,90,-90,-180,0,1
2572,134,0,606.067,0,90,1,0.25,2,3,0.0,0.0,9,45.0,30.0,3,0.851,1.0,606.299,0.0,0,2019-10-02 08:49:53.000,234,2019-10-02 08:59:59.067,0.25,-90,-90,-180,-180,1
2573,136,0,612.123,0,90,1,0.25,2,3,0.0,0.0,9,45.0,30.0,3,0.901,0.0,612.547,0.12,1,2019-10-02 08:49:53.000,234,2019-10-02 09:00:05.123,0.25,90,-90,-180,0,1
2574,137,0,615.8530000000002,0,90,1,0.25,2,3,0.0,0.0,9,45.0,30.0,3,0.901,1.0,616.012,0.0,0,2019-10-02 08:49:53.000,234,2019-10-02 09:00:08.853,0.25,-90,-90,-180,-180,1
2575,139,0,623.481,0,90,1,0.25,2,9,0.0,0.0,3,45.0,30.0,9,0.701,0.0,623.971,0.0,0,2019-10-02 08:49:53.000,234,2019-10-02 09:00:16.481,0.25,90,90,0,0,1
2852,150,0,732.8810000000002,0,60,1,0.25,2,9,0.0,0.0,4,45.0,30.0,9,0.8009999999999999,1.0,733.422,0.15,1,2019-10-03 09:11:00.000,187,2019-10-03 09:23:12.881,0.25,-90,60,0,-150,1
2853,151,0,738.572,0,60,1,0.25,2,9,0.0,0.0,4,45.0,30.0,9,0.901,1.0,738.914,0.15,1,2019-10-03 09:11:00.000,187,2019-10-03 09:23:18.572,0.25,-90,60,0,-150,1
2854,152,0,742.075,0,60,1,0.25,2,9,0.0,0.0,4,45.0,30.0,9,0.851,1.0,742.3430000000002,0.15,1,2019-10-03 09:11:00.000,187,2019-10-03 09:23:22.075,0.25,-90,60,0,-150,1
2855,153,0,746.155,0,60,1,0.25,2,9,0.0,0.0,4,45.0,30.0,9,0.7509999999999999,0.0,746.788,0.0,0,2019-10-03 09:11:00.000,187,2019-10-03 09:23:26.155,0.25,90,60,0,30,1
2856,155,0,758.4989999999998,0,60,1,0.25,2,9,0.0,0.0,4,45.0,30.0,9,0.8009999999999999,1.0,759.095,0.15,1,2019-10-03 09:11:00.000,187,2019-10-03 09:23:38.499,0.25,-90,60,0,-150,1
2857,156,0,763.2310000000001,0,60,1,0.25,2,9,0.0,0.0,4,45.0,30.0,9,0.901,1.0,763.5830000000002,0.15,1,2019-10-03 09:11:00.000,187,2019-10-03 09:23:43.231,0.25,-90,60,0,-150,1
2858,157,0,766.551,0,60,1,0.25,2,9,0.0,0.0,4,45.0,30.0,9,0.7509999999999999,1.0,767.1039999999998,0.15,1,2019-10-03 09:11:00.000,187,2019-10-03 09:23:46.551,0.25,-90,60,0,-150,1
2859,158,0,771.0239999999999,0,60,1,0.25,2,3,0.0,0.0,10,45.0,30.0,3,0.8009999999999999,0.0,771.3739999999998,0.15,1,2019-10-03 09:11:00.000,187,2019-10-03 09:23:51.024,0.25,90,-120,-180,30,1
2860,159,0,774.323,0,60,1,0.25,2,3,0.0,0.0,10,45.0,30.0,3,0.701,1.0,774.873,0.0,0,2019-10-03 09:11:00.000,187,2019-10-03 09:23:54.323,0.25,-90,-120,-180,-150,1
2861,161,0,783.382,0,60,1,0.25,2,3,0.0,0.0,10,45.0,30.0,3,0.901,1.0,783.828,0.0,0,2019-10-03 09:11:00.000,187,2019-10-03 09:24:03.382,0.25,-90,-120,-180,-150,1
2985,178,0,827.436,0,120,1,0.25,2,3,0.0,0.0,8,45.0,30.0,3,0.851,1.0,827.9789999999998,0.0,0,2019-10-03 14:38:17.000,16,2019-10-03 14:52:04.436,0.25,-90,-60,-180,150,1
2986,181,0,838.23,0,120,1,0.25,2,9,0.0,0.0,2,45.0,30.0,9,0.8009999999999999,1.0,838.6439999999999,0.15,1,2019-10-03 14:38:17.000,16,2019-10-03 14:52:15.230,0.25,-90,120,0,150,1
2987,182,0,842.377,1,120,1,0.25,2,3,0.0,0.0,8,45.0,30.0,3,0.7509999999999999,1.0,846.033,0.0,0,2019-10-03 14:38:17.000,16,2019-10-03 14:52:19.377,0.25,-90,-60,-180,150,1
2988,184,0,853.3839999999999,0,120,1,0.25,2,9,0.0,0.0,2,45.0,30.0,9,0.851,1.0,853.8610000000001,0.15,1,2019-10-03 14:38:17.000,16,2019-10-03 14:52:30.384,0.25,-90,120,0,150,1
2989,185,0,856.893,0,120,1,0.25,2,9,0.0,0.0,2,45.0,30.0,9,0.701,1.0,857.482,0.15,1,2019-10-03 14:38:17.000,16,2019-10-03 14:52:33.893,0.25,-90,120,0,150,1
2990,186,0,861.2919999999998,0,120,1,0.25,2,3,0.0,0.0,8,45.0,30.0,3,0.901,1.0,861.755,0.0,0,2019-10-03 14:38:17.000,16,2019-10-03 14:52:38.292,0.25,-90,-60,-180,150,1
2991,188,0,866.825,0,120,1,0.25,2,3,0.0,0.0,8,45.0,30.0,3,0.701,0.0,867.6089999999998,0.15,1,2019-10-03 14:38:17.000,16,2019-10-03 14:52:43.825,0.25,90,-60,-180,-30,1
2992,189,0,870.768,0,120,1,0.25,2,3,0.0,0.0,8,45.0,30.0,3,0.851,1.0,871.209,0.0,0,2019-10-03 14:38:17.000,16,2019-10-03 14:52:47.768,0.25,-90,-60,-180,150,1
2993,191,0,880.082,0,120,1,0.25,2,3,0.0,0.0,8,45.0,30.0,3,0.901,0.0,880.675,0.15,1,2019-10-03 14:38:17.000,16,2019-10-03 14:52:57.082,0.25,90,-60,-180,-30,1
2994,192,0,883.993,0,120,1,0.25,2,3,0.0,0.0,8,45.0,30.0,3,0.701,1.0,884.61,0.0,0,2019-10-03 14:38:17.000,16,2019-10-03 14:53:00.993,0.25,-90,-60,-180,150,1
3339,216,0,894.187,0,0,1,0.25,2,9,0.0,0.0,6,45.0,30.0,9,0.8009999999999999,1.0,894.827,0.15,1,2019-10-04 14:48:05.000,217,2019-10-04 15:02:59.187,0.25,-90,0,0,-90,1
3340,217,0,898.81,1,0,1,0.25,2,3,0.0,0.0,12,45.0,30.0,3,0.7509999999999999,0.0,899.285,0.15,1,2019-10-04 14:48:05.000,217,2019-10-04 15:03:03.810,0.25,90,-180,-180,90,1
3341,218,0,901.526,1,0,1,0.25,2,9,0.0,0.0,6,45.0,30.0,9,0.901,0.0,904.66,0.0,0,2019-10-04 14:48:05.000,217,2019-10-04 15:03:06.526,0.25,90,0,0,90,1
3342,220,0,911.704,0,0,1,0.25,2,3,0.0,0.0,12,45.0,30.0,3,0.701,0.0,912.701,0.15,1,2019-10-04 14:48:05.000,217,2019-10-04 15:03:16.704,0.25,90,-180,-180,90,1
3343,221,0,916.339,0,0,1,0.25,2,9,0.0,0.0,6,45.0,30.0,9,0.8009999999999999,0.0,916.744,0.0,0,2019-10-04 14:48:05.000,217,2019-10-04 15:03:21.339,0.25,90,0,0,90,1
3344,223,0,922.662,0,0,1,0.25,2,9,0.0,0.0,6,45.0,30.0,9,0.901,1.0,923.299,0.15,1,2019-10-04 14:48:05.000,217,2019-10-04 15:03:27.662,0.25,-90,0,0,-90,1
3345,224,0,926.619,0,0,1,0.25,2,9,0.0,0.0,6,45.0,30.0,9,0.851,1.0,926.897,0.15,1,2019-10-04 14:48:05.000,217,2019-10-04 15:03:31.619,0.25,-90,0,0,-90,1
3346,225,0,931.161,0,0,1,0.25,2,9,0.0,0.0,6,45.0,30.0,9,0.7509999999999999,0.0,931.551,0.0,0,2019-10-04 14:48:05.000,217,2019-10-04 15:03:36.161,0.25,90,0,0,90,1
3347,227,0,940.671,0,0,1,0.25,2,9,0.0,0.0,6,45.0,30.0,9,0.901,1.0,941.203,0.15,1,2019-10-04 14:48:05.000,217,2019-10-04 15:03:45.671,0.25,-90,0,0,-90,1
3348,228,0,944.586,0,0,1,0.25,2,3,0.0,0.0,12,45.0,30.0,3,0.7509999999999999,1.0,945.55,0.0,0,2019-10-04 14:48:05.000,217,2019-10-04 15:03:49.586,0.25,-90,-180,-180,-90,1
4123,210,0,916.308,0,-30,1,0.25,2,3,0.0,0.0,1,45.0,30.0,3,0.7509999999999999,0.0,916.839,0.15,1,2019-11-01 15:45:57.000,112,2019-11-01 16:01:13.308,0.25,90,150,-180,120,1
4124,211,0,920.463,0,-30,1,0.25,2,9,0.0,0.0,7,45.0,30.0,9,0.901,1.0,920.874,0.15,1,2019-11-01 15:45:57.000,112,2019-11-01 16:01:17.463,0.25,-90,-30,0,-60,1
4125,212,0,925.736,0,-30,1,0.25,2,9,0.0,0.0,7,45.0,30.0,9,0.701,1.0,926.287,0.15,1,2019-11-01 15:45:57.000,112,2019-11-01 16:01:22.736,0.25,-90,-30,0,-60,1
4126,213,0,929.559,0,-30,1,0.25,2,9,0.0,0.0,7,45.0,30.0,9,0.8009999999999999,1.0,930.009,0.15,1,2019-11-01 15:45:57.000,112,2019-11-01 16:01:26.559,0.25,-90,-30,0,-60,1
4127,214,0,933.172,0,-30,1,0.25,2,3,0.0,0.0,1,45.0,30.0,3,0.7509999999999999,0.0,933.914,0.15,1,2019-11-01 15:45:57.000,112,2019-11-01 16:01:30.172,0.25,90,150,-180,120,1
4128,215,0,937.053,0,-30,1,0.25,2,9,0.0,0.0,7,45.0,30.0,9,0.851,1.0,937.269,0.15,1,2019-11-01 15:45:57.000,112,2019-11-01 16:01:34.053,0.25,-90,-30,0,-60,1
4129,216,0,943.623,0,-30,1,0.25,2,9,0.0,0.0,7,45.0,30.0,9,0.8009999999999999,1.0,944.241,0.15,1,2019-11-01 15:45:57.000,112,2019-11-01 16:01:40.623,0.25,-90,-30,0,-60,1
4130,217,0,946.773,0,-30,1,0.25,2,3,0.0,0.0,1,45.0,30.0,3,0.701,0.0,947.075,0.15,1,2019-11-01 15:45:57.000,112,2019-11-01 16:01:43.773,0.25,90,150,-180,120,1
4131,218,0,950.644,0,-30,1,0.25,2,3,0.0,0.0,1,45.0,30.0,3,0.901,0.0,950.895,0.15,1,2019-11-01 15:45:57.000,112,2019-11-01 16:01:47.644,0.25,90,150,-180,120,1
4132,219,0,953.577,0,-30,1,0.25,2,3,0.0,0.0,1,45.0,30.0,3,0.851,1.0,954.046,0.0,0,2019-11-01 15:45:57.000,112,2019-11-01 16:01:50.577,0.25,-90,150,-180,-60,1
4301,258,0,1298.835,0,0,1,0.25,2,9,0.0,0.0,6,45.0,30.0,9,0.851,1.0,1299.164,0.15,1,2019-11-04 10:40:17.000,110,2019-11-04 11:01:55.835,0.25,-90,0,0,-90,1
4302,259,0,1303.08,0,0,1,0.25,2,3,0.0,0.0,12,45.0,30.0,3,0.7509999999999999,1.0,1303.43,0.0,0,2019-11-04 10:40:17.000,110,2019-11-04 11:02:00.080,0.25,-90,-180,-180,-90,1
4303,262,0,1316.283,0,0,1,0.25,2,3,0.0,0.0,12,45.0,30.0,3,0.701,0.0,1316.936,0.15,1,2019-11-04 10:40:17.000,110,2019-11-04 11:02:13.283,0.25,90,-180,-180,90,1
4304,263,0,1323.214,1,0,1,0.25,2,3,0.0,0.0,12,45.0,30.0,3,0.8009999999999999,1.0,1323.713,0.0,0,2019-11-04 10:40:17.000,110,2019-11-04 11:02:20.214,0.25,-90,-180,-180,-90,1
4305,265,0,1330.542,0,0,1,0.25,2,3,0.0,0.0,12,45.0,30.0,3,0.7509999999999999,1.0,1330.87,0.0,0,2019-11-04 10:40:17.000,110,2019-11-04 11:02:27.542,0.25,-90,-180,-180,-90,1
4306,271,0,1359.535,0,0,1,0.25,2,9,0.0,0.0,6,45.0,30.0,9,0.851,1.0,1359.9070000000004,0.15,1,2019-11-04 10:40:17.000,110,2019-11-04 11:02:56.535,0.25,-90,0,0,-90,1
4307,272,0,1363.424,0,0,1,0.25,2,3,0.0,0.0,12,45.0,30.0,3,0.901,0.0,1364.015,0.15,1,2019-11-04 10:40:17.000,110,2019-11-04 11:03:00.424,0.25,90,-180,-180,90,1
4308,273,0,1372.0379999999998,0,0,1,0.25,2,9,0.0,0.0,6,45.0,30.0,9,0.851,1.0,1372.477,0.15,1,2019-11-04 10:40:17.000,110,2019-11-04 11:03:09.038,0.25,-90,0,0,-90,1
4309,274,0,1375.346,0,0,1,0.25,2,3,0.0,0.0,12,45.0,30.0,3,0.901,0.0,1375.861,0.15,1,2019-11-04 10:40:17.000,110,2019-11-04 11:03:12.346,0.25,90,-180,-180,90,1
4310,275,0,1379.329,0,0,1,0.25,2,3,0.0,0.0,12,45.0,30.0,3,0.701,1.0,1379.461,0.0,0,2019-11-04 10:40:17.000,110,2019-11-04 11:03:16.329,0.25,-90,-180,-180,-90,1
4829,166,0,870.441,0,-30,1,0.25,2,3,0.0,0.0,1,45.0,30.0,3,0.701,0.0,870.9630000000002,0.15,1,2019-11-06 10:56:05.000,111,2019-11-06 11:10:35.441,0.25,90,150,-180,120,1
4830,167,0,873.6289999999998,0,-30,1,0.25,2,3,0.0,0.0,1,45.0,30.0,3,0.851,0.0,874.127,0.15,1,2019-11-06 10:56:05.000,111,2019-11-06 11:10:38.629,0.25,90,150,-180,120,1
4831,168,0,876.827,0,-30,1,0.25,2,3,0.0,0.0,1,45.0,30.0,3,0.8009999999999999,0.0,877.238,0.15,1,2019-11-06 10:56:05.000,111,2019-11-06 11:10:41.827,0.25,90,150,-180,120,1
4832,169,0,880.265,0,-30,1,0.25,2,9,0.0,0.0,7,45.0,30.0,9,0.7509999999999999,0.0,880.701,0.0,0,2019-11-06 10:56:05.000,111,2019-11-06 11:10:45.265,0.25,90,-30,0,120,1
4833,171,0,894.8539999999998,0,-30,1,0.25,2,9,0.0,0.0,7,45.0,30.0,9,0.8009999999999999,1.0,895.331,0.15,1,2019-11-06 10:56:05.000,111,2019-11-06 11:10:59.854,0.25,-90,-30,0,-60,1
4834,172,0,898.302,0,-30,1,0.25,2,3,0.0,0.0,1,45.0,30.0,3,0.7509999999999999,1.0,899.153,0.0,0,2019-11-06 10:56:05.000,111,2019-11-06 11:11:03.302,0.25,-90,150,-180,-60,1
4835,174,0,904.941,0,-30,1,0.25,2,9,0.0,0.0,7,45.0,30.0,9,0.851,0.0,905.413,0.0,0,2019-11-06 10:56:05.000,111,2019-11-06 11:11:09.941,0.25,90,-30,0,120,1
4836,177,0,919.34,0,-30,1,0.25,2,9,0.0,0.0,7,45.0,30.0,9,0.701,1.0,919.875,0.15,1,2019-11-06 10:56:05.000,111,2019-11-06 11:11:24.340,0.25,-90,-30,0,-60,1
4837,178,0,923.209,0,-30,1,0.25,2,3,0.0,0.0,1,45.0,30.0,3,0.851,0.0,923.772,0.15,1,2019-11-06 10:56:05.000,111,2019-11-06 11:11:28.209,0.25,90,150,-180,120,1
4838,179,0,927.423,0,-30,1,0.25,2,9,0.0,0.0,7,45.0,30.0,9,0.7509999999999999,0.0,927.719,0.0,0,2019-11-06 10:56:05.000,111,2019-11-06 11:11:32.423,0.25,90,-30,0,120,1
4964,154,0,735.04,0,0,1,0.25,2,3,0.0,0.0,12,45.0,30.0,3,0.701,1.0,736.4889999999998,0.0,0,2019-11-06 16:05:54.000,138,2019-11-06 16:18:09.040,0.25,-90,-180,-180,-90,1
4965,156,0,747.37,0,0,1,0.25,2,3,0.0,0.0,12,45.0,30.0,3,0.7509999999999999,0.0,747.633,0.15,1,2019-11-06 16:05:54.000,138,2019-11-06 16:18:21.370,0.25,90,-180,-180,90,1
4966,157,0,750.758,0,0,1,0.25,2,3,0.0,0.0,12,45.0,30.0,3,0.8009999999999999,0.0,751.424,0.15,1,2019-11-06 16:05:54.000,138,2019-11-06 16:18:24.758,0.25,90,-180,-180,90,1
4967,158,0,754.562,0,0,1,0.25,2,9,0.0,0.0,6,45.0,30.0,9,0.851,1.0,754.925,0.15,1,2019-11-06 16:05:54.000,138,2019-11-06 16:18:28.562,0.25,-90,0,0,-90,1
4968,159,0,758.0930000000002,0,0,1,0.25,2,3,0.0,0.0,12,45.0,30.0,3,0.701,0.0,758.727,0.15,1,2019-11-06 16:05:54.000,138,2019-11-06 16:18:32.093,0.25,90,-180,-180,90,1
4969,160,0,761.7289999999998,0,0,1,0.25,2,9,0.0,0.0,6,45.0,30.0,9,0.901,0.0,762.2339999999998,0.0,0,2019-11-06 16:05:54.000,138,2019-11-06 16:18:35.729,0.25,90,0,0,90,1
4970,162,0,768.554,0,0,1,0.25,2,3,0.0,0.0,12,45.0,30.0,3,0.701,1.0,771.058,0.0,0,2019-11-06 16:05:54.000,138,2019-11-06 16:18:42.554,0.25,-90,-180,-180,-90,1
4971,164,0,780.572,0,0,1,0.25,2,9,0.0,0.0,6,45.0,30.0,9,0.901,1.0,780.8810000000002,0.15,1,2019-11-06 16:05:54.000,138,2019-11-06 16:18:54.572,0.25,-90,0,0,-90,1
4972,165,0,788.6669999999998,0,0,1,0.25,2,3,0.0,0.0,12,45.0,30.0,3,0.8009999999999999,0.0,789.342,0.15,1,2019-11-06 16:05:54.000,138,2019-11-06 16:19:02.667,0.25,90,-180,-180,90,1
4973,166,0,792.307,0,0,1,0.25,2,3,0.0,0.0,12,45.0,30.0,3,0.901,1.0,792.51,0.0,0,2019-11-06 16:05:54.000,138,2019-11-06 16:19:06.307,0.25,-90,-180,-180,-90,1
5243,198,0,1168.848,0,180,1,0.25,2,9,0.0,0.0,12,45.0,30.0,9,0.901,1.0,1169.343,0.15,1,2019-11-08 14:31:49.000,25,2019-11-08 14:51:17.848,0.25,-90,-180,0,90,1
5244,199,0,1172.6760000000004,0,180,1,0.25,2,9,0.0,0.0,12,45.0,30.0,9,0.8009999999999999,1.0,1173.266,0.15,1,2019-11-08 14:31:49.000,25,2019-11-08 14:51:21.676,0.25,-90,-180,0,90,1
5245,200,0,1177.645,0,180,1,0.25,2,3,0.0,0.0,6,45.0,30.0,3,0.7509999999999999,0.0,1178.4,0.15,1,2019-11-08 14:31:49.000,25,2019-11-08 14:51:26.645,0.25,90,0,-180,-90,1
5246,201,0,1181.454,0,180,1,0.25,2,9,0.0,0.0,12,45.0,30.0,9,0.7509999999999999,0.0,1182.183,0.0,0,2019-11-08 14:31:49.000,25,2019-11-08 14:51:30.454,0.25,90,-180,0,-90,1
5247,203,0,1200.702,0,180,1,0.25,2,3,0.0,0.0,6,45.0,30.0,3,0.8009999999999999,1.0,1201.248,0.0,0,2019-11-08 14:31:49.000,25,2019-11-08 14:51:49.702,0.25,-90,0,-180,90,1
5248,206,0,1223.144,0,180,1,0.25,2,9,0.0,0.0,12,45.0,30.0,9,0.7509999999999999,1.0,1223.868,0.15,1,2019-11-08 14:31:49.000,25,2019-11-08 14:52:12.144,0.25,-90,-180,0,90,1
5249,207,0,1226.74,0,180,1,0.25,2,9,0.0,0.0,12,45.0,30.0,9,0.8009999999999999,0.0,1227.284,0.0,0,2019-11-08 14:31:49.000,25,2019-11-08 14:52:15.740,0.25,90,-180,0,-90,1
5250,209,0,1240.117,0,180,1,0.25,2,3,0.0,0.0,6,45.0,30.0,3,0.951,1.0,1240.504,0.0,0,2019-11-08 14:31:49.000,25,2019-11-08 14:52:29.117,0.25,-90,0,-180,90,1
5251,211,0,1253.137,0,180,1,0.25,2,3,0.0,0.0,6,45.0,30.0,3,0.951,1.0,1253.418,0.0,0,2019-11-08 14:31:49.000,25,2019-11-08 14:52:42.137,0.25,-90,0,-180,90,1
5252,213,0,1267.158,0,180,1,0.25,2,9,0.0,0.0,12,45.0,30.0,9,0.7509999999999999,0.0,1267.7089999999996,0.0,0,2019-11-08 14:31:49.000,25,2019-11-08 14:52:56.158,0.25,90,-180,0,-90,1
5332,108,0,636.188,0,0,1,0.25,2,3,0.0,0.0,12,45.0,30.0,3,0.951,1.0,636.29,0.0,0,2019-11-12 15:29:56.000,222,2019-11-12 15:40:32.188,0.25,-90,-180,-180,-90,1
5333,110,0,645.123,0,0,1,0.25,2,9,0.0,0.0,6,45.0,30.0,9,0.7509999999999999,0.0,645.86,0.0,0,2019-11-12 15:29:56.000,222,2019-11-12 15:40:41.123,0.25,90,0,0,90,1
5334,112,0,655.263,0,0,1,0.25,2,9,0.0,0.0,6,45.0,30.0,9,0.851,1.0,655.7189999999998,0.15,1,2019-11-12 15:29:56.000,222,2019-11-12 15:40:51.263,0.25,-90,0,0,-90,1
5335,113,0,659.4580000000002,0,0,1,0.25,2,3,0.0,0.0,12,45.0,30.0,3,0.7509999999999999,0.0,659.863,0.15,1,2019-11-12 15:29:56.000,222,2019-11-12 15:40:55.458,0.25,90,-180,-180,90,1
5336,114,0,663.25,0,0,1,0.25,2,9,0.0,0.0,6,45.0,30.0,9,0.901,0.0,663.865,0.0,0,2019-11-12 15:29:56.000,222,2019-11-12 15:40:59.250,0.25,90,0,0,90,1
5337,117,0,677.2360000000001,0,0,1,0.25,2,9,0.0,0.0,6,45.0,30.0,9,0.901,1.0,677.518,0.15,1,2019-11-12 15:29:56.000,222,2019-11-12 15:41:13.236,0.25,-90,0,0,-90,1
5338,118,0,681.227,0,0,1,0.25,2,3,0.0,0.0,12,45.0,30.0,3,0.951,0.0,681.452,0.15,1,2019-11-12 15:29:56.000,222,2019-11-12 15:41:17.227,0.25,90,-180,-180,90,1
5339,119,0,684.623,0,0,1,0.25,2,3,0.0,0.0,12,45.0,30.0,3,0.8009999999999999,1.0,685.3480000000002,0.0,0,2019-11-12 15:29:56.000,222,2019-11-12 15:41:20.623,0.25,-90,-180,-180,-90,1
5340,121,0,695.404,0,0,1,0.25,2,9,0.0,0.0,6,45.0,30.0,9,0.851,0.0,696.195,0.0,0,2019-11-12 15:29:56.000,222,2019-11-12 15:41:31.404,0.25,90,0,0,90,1
5341,123,0,706.444,0,0,1,0.25,2,3,0.0,0.0,12,45.0,30.0,3,0.951,1.0,707.086,0.0,0,2019-11-12 15:29:56.000,222,2019-11-12 15:41:42.444,0.25,-90,-180,-180,-90,1
7265,117,0,708.9789999999998,0,180,1,0.25,2,9,0.0,0.0,12,45.0,30.0,9,0.901,1.0,709.318,0.13,1,2019-12-06 09:05:50.000,6,2019-12-06 09:17:38.979,0.25,-90,-180,0,90,1
7266,118,0,713.327,0,180,1,0.25,2,3,0.0,0.0,6,45.0,30.0,3,0.7509999999999999,0.0,713.885,0.1,1,2019-12-06 09:05:50.000,6,2019-12-06 09:17:43.327,0.25,90,0,-180,-90,1
7267,119,0,716.684,0,180,1,0.25,2,9,0.0,0.0,12,45.0,30.0,9,0.8009999999999999,1.0,717.326,0.13,1,2019-12-06 09:05:50.000,6,2019-12-06 09:17:46.684,0.25,-90,-180,0,90,1
7268,120,0,726.948,0,180,1,0.25,2,9,0.0,0.0,12,45.0,30.0,9,0.851,1.0,727.41,0.13,1,2019-12-06 09:05:50.000,6,2019-12-06 09:17:56.948,0.25,-90,-180,0,90,1
7269,121,0,733.677,0,180,1,0.25,2,3,0.0,0.0,6,45.0,30.0,3,0.901,0.0,734.2239999999998,0.1,1,2019-12-06 09:05:50.000,6,2019-12-06 09:18:03.677,0.25,90,0,-180,-90,1
7270,122,0,737.2639999999999,0,180,1,0.25,2,9,0.0,0.0,12,45.0,30.0,9,0.8009999999999999,1.0,737.903,0.13,1,2019-12-06 09:05:50.000,6,2019-12-06 09:18:07.264,0.25,-90,-180,0,90,1
7271,123,0,741.1089999999998,0,180,1,0.25,2,9,0.0,0.0,12,45.0,30.0,9,0.951,1.0,741.3330000000002,0.13,1,2019-12-06 09:05:50.000,6,2019-12-06 09:18:11.109,0.25,-90,-180,0,90,1
7272,124,0,745.5369999999998,0,180,1,0.25,2,9,0.0,0.0,12,45.0,30.0,9,0.851,0.0,745.835,0.0,0,2019-12-06 09:05:50.000,6,2019-12-06 09:18:15.537,0.25,90,-180,0,-90,1
7273,126,0,755.0160000000002,0,180,1,0.25,2,9,0.0,0.0,12,45.0,30.0,9,0.851,1.0,755.8380000000002,0.13,1,2019-12-06 09:05:50.000,6,2019-12-06 09:18:25.016,0.25,-90,-180,0,90,1
7274,127,0,760.435,0,180,1,0.25,2,3,0.0,0.0,6,45.0,30.0,3,0.901,1.0,760.8660000000001,0.0,0,2019-12-06 09:05:50.000,6,2019-12-06 09:18:30.435,0.25,-90,0,-180,90,1
7501,136,0,780.737,0,0,1,0.25,2,9,0.0,0.0,6,45.0,30.0,9,0.7509999999999999,0.0,783.71,0.0,0,2019-12-09 08:46:02.000,196,2019-12-09 08:59:02.737,0.25,90,0,0,90,1
7502,138,0,792.8610000000001,0,0,1,0.25,2,3,0.0,0.0,12,45.0,30.0,3,0.851,0.0,793.243,0.17,1,2019-12-09 08:46:02.000,196,2019-12-09 08:59:14.861,0.25,90,-180,-180,90,1
7503,139,0,795.98,1,0,1,0.25,2,9,0.0,0.0,6,45.0,30.0,9,0.8009999999999999,1.0,796.515,0.13,1,2019-12-09 08:46:02.000,196,2019-12-09 08:59:17.980,0.25,-90,0,0,-90,1
7504,140,0,798.7560000000002,0,0,1,0.25,2,9,0.0,0.0,6,45.0,30.0,9,0.901,1.0,800.2689999999999,0.13,1,2019-12-09 08:46:02.000,196,2019-12-09 08:59:20.756,0.25,-90,0,0,-90,1
7505,141,0,809.403,0,0,1,0.25,2,3,0.0,0.0,12,45.0,30.0,3,0.8009999999999999,0.0,809.965,0.17,1,2019-12-09 08:46:02.000,196,2019-12-09 08:59:31.403,0.25,90,-180,-180,90,1
7506,142,0,813.178,0,0,1,0.25,2,3,0.0,0.0,12,45.0,30.0,3,0.951,0.0,813.442,0.17,1,2019-12-09 08:46:02.000,196,2019-12-09 08:59:35.178,0.25,90,-180,-180,90,1
7507,143,0,817.539,0,0,1,0.25,2,9,0.0,0.0,6,45.0,30.0,9,0.901,1.0,817.72,0.13,1,2019-12-09 08:46:02.000,196,2019-12-09 08:59:39.539,0.25,-90,0,0,-90,1
7508,144,0,820.7860000000002,0,0,1,0.25,2,9,0.0,0.0,6,45.0,30.0,9,0.7509999999999999,1.0,821.883,0.13,1,2019-12-09 08:46:02.000,196,2019-12-09 08:59:42.786,0.25,-90,0,0,-90,1
7509,145,0,825.699,0,0,1,0.25,2,3,0.0,0.0,12,45.0,30.0,3,0.851,0.0,825.975,0.17,1,2019-12-09 08:46:02.000,196,2019-12-09 08:59:47.699,0.25,90,-180,-180,90,1
7510,146,0,828.846,0,0,1,0.25,2,3,0.0,0.0,12,45.0,30.0,3,0.8009999999999999,0.0,829.257,0.17,1,2019-12-09 08:46:02.000,196,2019-12-09 08:59:50.846,0.25,90,-180,-180,90,1
7725,53,0,366.721,0,30,1,0.25,2,9,0.0,0.0,5,45.0,30.0,9,0.7509999999999999,1.0,367.195,0.13,1,2019-12-10 09:01:56.000,28,2019-12-10 09:08:02.721,0.25,-90,30,0,-120,1
7726,54,0,370.883,0,30,1,0.25,2,9,0.0,0.0,5,45.0,30.0,9,0.951,1.0,371.061,0.13,1,2019-12-10 09:01:56.000,28,2019-12-10 09:08:06.883,0.25,-90,30,0,-120,1
7727,55,0,374.714,0,30,1,0.25,2,9,0.0,0.0,5,45.0,30.0,9,0.8009999999999999,1.0,375.206,0.13,1,2019-12-10 09:01:56.000,28,2019-12-10 09:08:10.714,0.25,-90,30,0,-120,1
7728,56,0,379.112,0,30,1,0.25,2,3,0.0,0.0,11,45.0,30.0,3,0.951,0.0,379.358,0.17,1,2019-12-10 09:01:56.000,28,2019-12-10 09:08:15.112,0.25,90,-150,-180,60,1
7729,57,0,382.215,0,30,1,0.25,2,9,0.0,0.0,5,45.0,30.0,9,0.7509999999999999,1.0,382.607,0.13,1,2019-12-10 09:01:56.000,28,2019-12-10 09:08:18.215,0.25,-90,30,0,-120,1
7730,58,0,386.258,0,30,1,0.25,2,3,0.0,0.0,11,45.0,30.0,3,0.901,1.0,386.605,0.0,0,2019-12-10 09:01:56.000,28,2019-12-10 09:08:22.258,0.25,-90,-150,-180,-120,1
7731,60,0,401.135,0,30,1,0.25,2,3,0.0,0.0,11,45.0,30.0,3,0.8009999999999999,0.0,401.537,0.17,1,2019-12-10 09:01:56.000,28,2019-12-10 09:08:37.135,0.25,90,-150,-180,60,1
7732,61,0,404.193,0,30,1,0.25,2,3,0.0,0.0,11,45.0,30.0,3,0.7509999999999999,0.0,404.609,0.17,1,2019-12-10 09:01:56.000,28,2019-12-10 09:08:40.193,0.25,90,-150,-180,60,1
7733,62,0,407.761,0,30,1,0.25,2,9,0.0,0.0,5,45.0,30.0,9,0.8009999999999999,1.0,408.134,0.13,1,2019-12-10 09:01:56.000,28,2019-12-10 09:08:43.761,0.25,-90,30,0,-120,1
7734,63,0,411.018,0,30,1,0.25,2,9,0.0,0.0,5,45.0,30.0,9,0.851,0.0,411.202,0.0,0,2019-12-10 09:01:56.000,28,2019-12-10 09:08:47.018,0.25,90,30,0,60,1
8036,255,0,1415.419,0,-150,1,0.25,2,3,0.0,0.0,5,45.0,30.0,3,0.851,0.0,1415.953,0.17,1,2019-12-11 09:12:38.000,253,2019-12-11 09:36:13.419,0.25,90,30,-180,-120,1
8037,256,0,1418.77,0,-150,1,0.25,2,3,0.0,0.0,5,45.0,30.0,3,0.8009999999999999,0.0,1419.24,0.17,1,2019-12-11 09:12:38.000,253,2019-12-11 09:36:16.770,0.25,90,30,-180,-120,1
8038,257,0,1422.124,0,-150,1,0.25,2,9,0.0,0.0,11,45.0,30.0,9,0.901,0.0,1422.689,0.0,0,2019-12-11 09:12:38.000,253,2019-12-11 09:36:20.124,0.25,90,-150,0,-120,1
8039,261,0,1443.314,1,-150,1,0.25,2,3,0.0,0.0,5,45.0,30.0,3,0.851,1.0,1443.934,0.0,0,2019-12-11 09:12:38.000,253,2019-12-11 09:36:41.314,0.25,-90,30,-180,60,1
8040,264,0,1458.434,0,-150,1,0.25,2,9,0.0,0.0,11,45.0,30.0,9,0.901,1.0,1458.761,0.13,1,2019-12-11 09:12:38.000,253,2019-12-11 09:36:56.434,0.25,-90,-150,0,60,1
8041,265,0,1462.464,0,-150,1,0.25,2,3,0.0,0.0,5,45.0,30.0,3,0.8009999999999999,0.0,1462.958,0.17,1,2019-12-11 09:12:38.000,253,2019-12-11 09:37:00.464,0.25,90,30,-180,-120,1
8042,266,0,1465.755,0,-150,1,0.25,2,3,0.0,0.0,5,45.0,30.0,3,0.901,0.0,1466.215,0.17,1,2019-12-11 09:12:38.000,253,2019-12-11 09:37:03.755,0.25,90,30,-180,-120,1
8043,267,0,1469.519,0,-150,1,0.25,2,9,0.0,0.0,11,45.0,30.0,9,0.8009999999999999,1.0,1469.934,0.13,1,2019-12-11 09:12:38.000,253,2019-12-11 09:37:07.519,0.25,-90,-150,0,60,1
8044,268,0,1475.899,0,-150,1,0.25,2,3,0.0,0.0,5,45.0,30.0,3,0.851,0.0,1476.642,0.17,1,2019-12-11 09:12:38.000,253,2019-12-11 09:37:13.899,0.25,90,30,-180,-120,1
8045,269,0,1479.779,0,-150,1,0.25,2,9,0.0,0.0,11,45.0,30.0,9,0.7509999999999999,0.0,1480.145,0.0,0,2019-12-11 09:12:38.000,253,2019-12-11 09:37:17.779,0.25,90,-150,0,-120,1
8342,160,0,779.922,0,0,1,0.25,2,3,0.0,0.0,12,45.0,30.0,3,0.901,0.0,780.316,0.17,1,2019-12-12 09:05:13.000,87,2019-12-12 09:18:12.922,0.25,90,-180,-180,90,1
8343,161,0,783.321,0,0,1,0.25,2,3,0.0,0.0,12,45.0,30.0,3,0.851,0.0,783.918,0.17,1,2019-12-12 09:05:13.000,87,2019-12-12 09:18:16.321,0.25,90,-180,-180,90,1
8344,162,0,787.335,0,0,1,0.25,2,3,0.0,0.0,12,45.0,30.0,3,0.7509999999999999,1.0,787.9760000000001,0.0,0,2019-12-12 09:05:13.000,87,2019-12-12 09:18:20.335,0.25,-90,-180,-180,-90,1
8345,164,0,804.3969999999998,0,0,1,0.25,2,9,0.0,0.0,6,45.0,30.0,9,0.901,1.0,804.942,0.13,1,2019-12-12 09:05:13.000,87,2019-12-12 09:18:37.397,0.25,-90,0,0,-90,1
8346,165,0,807.7289999999998,0,0,1,0.25,2,9,0.0,0.0,6,45.0,30.0,9,0.8009999999999999,1.0,808.4760000000001,0.13,1,2019-12-12 09:05:13.000,87,2019-12-12 09:18:40.729,0.25,-90,0,0,-90,1
8347,166,0,811.712,0,0,1,0.25,2,9,0.0,0.0,6,45.0,30.0,9,0.901,1.0,812.1360000000002,0.13,1,2019-12-12 09:05:13.000,87,2019-12-12 09:18:44.712,0.25,-90,0,0,-90,1
8348,167,0,815.6510000000002,0,0,1,0.25,2,3,0.0,0.0,12,45.0,30.0,3,0.851,0.0,815.941,0.17,1,2019-12-12 09:05:13.000,87,2019-12-12 09:18:48.651,0.25,90,-180,-180,90,1
8349,168,0,819.148,0,0,1,0.25,2,9,0.0,0.0,6,45.0,30.0,9,0.951,0.0,819.5089999999999,0.0,0,2019-12-12 09:05:13.000,87,2019-12-12 09:18:52.148,0.25,90,0,0,90,1
8350,171,0,834.2610000000002,0,0,1,0.25,2,9,0.0,0.0,6,45.0,30.0,9,0.851,1.0,835.105,0.13,1,2019-12-12 09:05:13.000,87,2019-12-12 09:19:07.261,0.25,-90,0,0,-90,1
8351,172,0,838.3860000000002,0,0,1,0.25,2,3,0.0,0.0,12,45.0,30.0,3,0.8009999999999999,1.0,838.953,0.0,0,2019-12-12 09:05:13.000,87,2019-12-12 09:19:11.386,0.25,-90,-180,-180,-90,1
8535,226,0,1084.772,0,-30,1,0.25,2,9,0.0,0.0,7,45.0,30.0,9,0.851,1.0,1085.475,0.13,1,2019-12-12 14:56:38.000,180,2019-12-12 15:14:42.772,0.25,-90,-30,0,-60,1
8536,227,0,1089.275,0,-30,1,0.25,2,9,0.0,0.0,7,45.0,30.0,9,0.7509999999999999,1.0,1089.969,0.13,1,2019-12-12 14:56:38.000,180,2019-12-12 15:14:47.275,0.25,-90,-30,0,-60,1
8537,228,0,1092.92,0,-30,1,0.25,2,3,0.0,0.0,1,45.0,30.0,3,0.901,0.0,1093.474,0.17,1,2019-12-12 14:56:38.000,180,2019-12-12 15:14:50.920,0.25,90,150,-180,120,1
8538,229,0,1096.495,0,-30,1,0.25,2,3,0.0,0.0,1,45.0,30.0,3,0.951,0.0,1097.136,0.17,1,2019-12-12 14:56:38.000,180,2019-12-12 15:14:54.495,0.25,90,150,-180,120,1
8539,230,0,1099.956,0,-30,1,0.25,2,9,0.0,0.0,7,45.0,30.0,9,0.8009999999999999,1.0,1100.596,0.13,1,2019-12-12 14:56:38.000,180,2019-12-12 15:14:57.956,0.25,-90,-30,0,-60,1
8540,231,0,1103.467,0,-30,1,0.25,2,9,0.0,0.0,7,45.0,30.0,9,0.8009999999999999,1.0,1104.053,0.13,1,2019-12-12 14:56:38.000,180,2019-12-12 15:15:01.467,0.25,-90,-30,0,-60,1
8541,232,0,1112.422,0,-30,1,0.25,2,9,0.0,0.0,7,45.0,30.0,9,0.901,1.0,1113.086,0.13,1,2019-12-12 14:56:38.000,180,2019-12-12 15:15:10.422,0.25,-90,-30,0,-60,1
8542,233,0,1116.909,1,-30,1,0.25,2,3,0.0,0.0,1,45.0,30.0,3,0.851,0.0,1117.441,0.17,1,2019-12-12 14:56:38.000,180,2019-12-12 15:15:14.909,0.25,90,150,-180,120,1
8544,235,0,1128.1,0,-30,1,0.25,2,3,0.0,0.0,1,45.0,30.0,3,0.951,0.0,1129.742,0.17,1,2019-12-12 14:56:38.000,180,2019-12-12 15:15:26.100,0.25,90,150,-180,120,1
8545,236,0,1132.72,0,-30,1,0.25,2,3,0.0,0.0,1,45.0,30.0,3,0.901,1.0,1133.36,0.0,0,2019-12-12 14:56:38.000,180,2019-12-12 15:15:30.720,0.25,-90,150,-180,-60,1
8782,172,0,865.091,0,150,1,0.25,2,9,0.0,0.0,1,45.0,30.0,9,0.7509999999999999,0.0,865.628,0.0,0,2019-12-13 14:21:44.000,108,2019-12-13 14:36:09.091,0.25,90,150,0,-60,1
8783,174,0,874.56,0,150,1,0.25,2,3,0.0,0.0,7,45.0,30.0,3,0.851,1.0,874.942,0.0,0,2019-12-13 14:21:44.000,108,2019-12-13 14:36:18.560,0.25,-90,-30,-180,120,1
8784,177,0,892.69,0,150,1,0.25,2,3,0.0,0.0,7,45.0,30.0,3,0.951,0.0,893.013,0.17,1,2019-12-13 14:21:44.000,108,2019-12-13 14:36:36.690,0.25,90,-30,-180,-60,1
8785,178,0,896.232,1,150,1,0.25,2,3,0.0,0.0,7,45.0,30.0,3,0.8009999999999999,0.0,896.687,0.17,1,2019-12-13 14:21:44.000,108,2019-12-13 14:36:40.232,0.25,90,-30,-180,-60,1
8788,181,0,910.243,0,150,1,0.25,2,9,0.0,0.0,1,45.0,30.0,9,0.901,1.0,910.607,0.13,1,2019-12-13 14:21:44.000,108,2019-12-13 14:36:54.243,0.25,-90,150,0,120,1
8789,182,0,914.554,0,150,1,0.25,2,9,0.0,0.0,1,45.0,30.0,9,0.8009999999999999,1.0,915.086,0.13,1,2019-12-13 14:21:44.000,108,2019-12-13 14:36:58.554,0.25,-90,150,0,120,1
8790,183,0,918.828,0,150,1,0.25,2,9,0.0,0.0,1,45.0,30.0,9,0.851,0.0,919.327,0.0,0,2019-12-13 14:21:44.000,108,2019-12-13 14:37:02.828,0.25,90,150,0,-60,1
8791,185,0,929.816,0,150,1,0.25,2,9,0.0,0.0,1,45.0,30.0,9,0.951,1.0,930.591,0.13,1,2019-12-13 14:21:44.000,108,2019-12-13 14:37:13.816,0.25,-90,150,0,120,1
8792,186,0,937.334,0,150,1,0.25,2,3,0.0,0.0,7,45.0,30.0,3,0.951,1.0,937.803,0.0,0,2019-12-13 14:21:44.000,108,2019-12-13 14:37:21.334,0.25,-90,-30,-180,120,1
8793,188,0,948.284,1,150,1,0.25,2,9,0.0,0.0,1,45.0,30.0,9,0.901,0.0,948.606,0.0,0,2019-12-13 14:21:44.000,108,2019-12-13 14:37:32.284,0.25,90,150,0,-60,1
8928,164,0,886.352,0,0,1,0.25,2,3,0.0,0.0,12,45.0,30.0,3,0.951,0.0,886.625,0.17,1,2019-12-16 08:56:35.000,64,2019-12-16 09:11:21.352,0.25,90,-180,-180,90,1
8929,165,0,890.002,0,0,1,0.25,2,9,0.0,0.0,6,45.0,30.0,9,0.7509999999999999,1.0,890.482,0.13,1,2019-12-16 08:56:35.000,64,2019-12-16 09:11:25.002,0.25,-90,0,0,-90,1
8930,166,0,894.8580000000002,0,0,1,0.25,2,3,0.0,0.0,12,45.0,30.0,3,0.851,1.0,895.43,0.0,0,2019-12-16 08:56:35.000,64,2019-12-16 09:11:29.858,0.25,-90,-180,-180,-90,1
8931,169,0,920.875,0,0,1,0.25,2,9,0.0,0.0,6,45.0,30.0,9,0.901,1.0,921.2,0.13,1,2019-12-16 08:56:35.000,64,2019-12-16 09:11:55.875,0.25,-90,0,0,-90,1
8932,170,0,927.8,0,0,1,0.25,2,9,0.0,0.0,6,45.0,30.0,9,0.951,1.0,927.964,0.13,1,2019-12-16 08:56:35.000,64,2019-12-16 09:12:02.800,0.25,-90,0,0,-90,1
8933,171,0,931.164,0,0,1,0.25,2,3,0.0,0.0,12,45.0,30.0,3,0.7509999999999999,1.0,931.687,0.0,0,2019-12-16 08:56:35.000,64,2019-12-16 09:12:06.164,0.25,-90,-180,-180,-90,1
8934,173,0,942.972,1,0,1,0.25,2,9,0.0,0.0,6,45.0,30.0,9,0.851,1.0,943.758,0.13,1,2019-12-16 08:56:35.000,64,2019-12-16 09:12:17.972,0.25,-90,0,0,-90,1
8935,174,0,950.556,0,0,1,0.25,2,3,0.0,0.0,12,45.0,30.0,3,0.951,0.0,951.301,0.17,1,2019-12-16 08:56:35.000,64,2019-12-16 09:12:25.556,0.25,90,-180,-180,90,1
8936,175,0,954.372,0,0,1,0.25,2,9,0.0,0.0,6,45.0,30.0,9,0.901,1.0,954.749,0.13,1,2019-12-16 08:56:35.000,64,2019-12-16 09:12:29.372,0.25,-90,0,0,-90,1
8937,176,0,961.275,0,0,1,0.25,2,9,0.0,0.0,6,45.0,30.0,9,0.7509999999999999,0.0,961.87,0.0,0,2019-12-16 08:56:35.000,64,2019-12-16 09:12:36.275,0.25,90,0,0,90,1
9128,245,0,1340.1729999999998,0,-90,1,0.25,2,3,0.0,0.0,3,45.0,30.0,3,0.7509999999999999,0.0,1340.57,0.17,1,2019-12-16 14:46:07.000,117,2019-12-16 15:08:27.173,0.25,90,90,-180,-180,1
9129,246,0,1344.326,0,-90,1,0.25,2,9,0.0,0.0,9,45.0,30.0,9,0.7509999999999999,1.0,1344.9720000000002,0.13,1,2019-12-16 14:46:07.000,117,2019-12-16 15:08:31.326,0.25,-90,-90,0,0,1
9130,247,0,1351.437,0,-90,1,0.25,2,3,0.0,0.0,3,45.0,30.0,3,0.951,1.0,1351.8570000000002,0.0,0,2019-12-16 14:46:07.000,117,2019-12-16 15:08:38.437,0.25,-90,90,-180,0,1
9132,250,0,1365.894,0,-90,1,0.25,2,9,0.0,0.0,9,45.0,30.0,9,0.851,0.0,1367.912,0.0,0,2019-12-16 14:46:07.000,117,2019-12-16 15:08:52.894,0.25,90,-90,0,-180,1
9133,253,0,1385.815,0,-90,1,0.25,2,9,0.0,0.0,9,45.0,30.0,9,0.7509999999999999,1.0,1386.263,0.13,1,2019-12-16 14:46:07.000,117,2019-12-16 15:09:12.815,0.25,-90,-90,0,0,1
9134,254,0,1390.815,0,-90,1,0.25,2,9,0.0,0.0,9,45.0,30.0,9,0.901,1.0,1391.221,0.13,1,2019-12-16 14:46:07.000,117,2019-12-16 15:09:17.815,0.25,-90,-90,0,0,1
9135,255,0,1394.639,0,-90,1,0.25,2,3,0.0,0.0,3,45.0,30.0,3,0.851,0.0,1394.7679999999998,0.17,1,2019-12-16 14:46:07.000,117,2019-12-16 15:09:21.639,0.25,90,90,-180,-180,1
9136,256,0,1398.005,0,-90,1,0.25,2,9,0.0,0.0,9,45.0,30.0,9,0.901,0.0,1398.24,0.0,0,2019-12-16 14:46:07.000,117,2019-12-16 15:09:25.005,0.25,90,-90,0,-180,1
9137,259,0,1415.03,0,-90,1,0.25,2,3,0.0,0.0,3,45.0,30.0,3,0.951,0.0,1415.43,0.17,1,2019-12-16 14:46:07.000,117,2019-12-16 15:09:42.030,0.25,90,90,-180,-180,1
9138,260,0,1418.755,0,-90,1,0.25,2,9,0.0,0.0,9,45.0,30.0,9,0.8009999999999999,0.0,1419.421,0.0,0,2019-12-16 14:46:07.000,117,2019-12-16 15:09:45.755,0.25,90,-90,0,-180,1
9439,175,0,847.096,0,60,1,0.25,2,9,0.0,0.0,4,45.0,30.0,9,0.851,1.0,847.41,0.13,1,2019-12-17 14:31:21.000,235,2019-12-17 14:45:28.096,0.25,-90,60,0,-150,1
9440,176,0,850.9110000000002,0,60,1,0.25,2,3,0.0,0.0,10,45.0,30.0,3,0.851,0.0,851.445,0.17,1,2019-12-17 14:31:21.000,235,2019-12-17 14:45:31.911,0.25,90,-120,-180,30,1
9441,177,0,854.778,0,60,1,0.25,2,9,0.0,0.0,4,45.0,30.0,9,0.951,1.0,855.0310000000002,0.13,1,2019-12-17 14:31:21.000,235,2019-12-17 14:45:35.778,0.25,-90,60,0,-150,1
9442,178,0,858.285,0,60,1,0.25,2,9,0.0,0.0,4,45.0,30.0,9,0.7509999999999999,1.0,858.987,0.13,1,2019-12-17 14:31:21.000,235,2019-12-17 14:45:39.285,0.25,-90,60,0,-150,1
9443,179,0,861.796,0,60,1,0.25,2,9,0.0,0.0,4,45.0,30.0,9,0.8009999999999999,1.0,862.928,0.13,1,2019-12-17 14:31:21.000,235,2019-12-17 14:45:42.796,0.25,-90,60,0,-150,1
9444,180,0,866.191,0,60,1,0.25,2,9,0.0,0.0,4,45.0,30.0,9,0.901,1.0,867.05,0.13,1,2019-12-17 14:31:21.000,235,2019-12-17 14:45:47.191,0.25,-90,60,0,-150,1
9445,181,0,870.0989999999998,0,60,1,0.25,2,9,0.0,0.0,4,45.0,30.0,9,0.951,1.0,870.914,0.13,1,2019-12-17 14:31:21.000,235,2019-12-17 14:45:51.099,0.25,-90,60,0,-150,1
9446,182,0,873.8860000000002,0,60,1,0.25,2,3,0.0,0.0,10,45.0,30.0,3,0.851,0.0,874.155,0.17,1,2019-12-17 14:31:21.000,235,2019-12-17 14:45:54.886,0.25,90,-120,-180,30,1
9447,183,0,877.549,0,60,1,0.25,2,3,0.0,0.0,10,45.0,30.0,3,0.8009999999999999,1.0,878.007,0.0,0,2019-12-17 14:31:21.000,235,2019-12-17 14:45:58.549,0.25,-90,-120,-180,-150,1
9448,185,0,887.025,0,60,1,0.25,2,9,0.0,0.0,4,45.0,30.0,9,0.901,0.0,887.602,0.0,0,2019-12-17 14:31:21.000,235,2019-12-17 14:46:08.025,0.25,90,60,0,30,1
9743,160,0,903.835,0,120,1,0.25,2,9,0.0,0.0,2,45.0,30.0,9,0.7509999999999999,1.0,904.623,0.13,1,2019-12-18 14:30:31.000,221,2019-12-18 14:45:34.835,0.25,-90,120,0,150,1
9744,161,0,910.079,0,120,1,0.25,2,3,0.0,0.0,8,45.0,30.0,3,0.951,0.0,910.484,0.17,1,2019-12-18 14:30:31.000,221,2019-12-18 14:45:41.079,0.25,90,-60,-180,-30,1
9745,162,0,913.816,0,120,1,0.25,2,3,0.0,0.0,8,45.0,30.0,3,0.851,0.0,914.381,0.17,1,2019-12-18 14:30:31.000,221,2019-12-18 14:45:44.816,0.25,90,-60,-180,-30,1
9746,163,0,917.405,0,120,1,0.25,2,9,0.0,0.0,2,45.0,30.0,9,0.7509999999999999,0.0,918.148,0.0,0,2019-12-18 14:30:31.000,221,2019-12-18 14:45:48.405,0.25,90,120,0,-30,1
9747,166,0,936.043,0,120,1,0.25,2,3,0.0,0.0,8,45.0,30.0,3,0.851,0.0,936.46,0.17,1,2019-12-18 14:30:31.000,221,2019-12-18 14:46:07.043,0.25,90,-60,-180,-30,1
9748,167,0,939.287,0,120,1,0.25,2,3,0.0,0.0,8,45.0,30.0,3,0.8009999999999999,1.0,939.723,0.0,0,2019-12-18 14:30:31.000,221,2019-12-18 14:46:10.287,0.25,-90,-60,-180,150,1
9749,169,0,953.611,1,120,1,0.25,2,9,0.0,0.0,2,45.0,30.0,9,0.7509999999999999,1.0,958.317,0.13,1,2019-12-18 14:30:31.000,221,2019-12-18 14:46:24.611,0.25,-90,120,0,150,1
9750,170,0,964.973,0,120,1,0.25,2,9,0.0,0.0,2,45.0,30.0,9,0.901,1.0,965.386,0.13,1,2019-12-18 14:30:31.000,221,2019-12-18 14:46:35.973,0.25,-90,120,0,150,1
9751,171,0,969.431,0,120,1,0.25,2,9,0.0,0.0,2,45.0,30.0,9,0.951,1.0,969.706,0.13,1,2019-12-18 14:30:31.000,221,2019-12-18 14:46:40.431,0.25,-90,120,0,150,1
9752,172,0,972.588,0,120,1,0.25,2,9,0.0,0.0,2,45.0,30.0,9,0.8009999999999999,1.0,973.198,0.13,1,2019-12-18 14:30:31.000,221,2019-12-18 14:46:43.588,0.25,-90,120,0,150,1
10083,202,0,1070.66,0,-120,1,0.25,2,3,0.0,0.0,4,45.0,30.0,3,0.8009999999999999,0.0,1071.15,0.17,1,2019-12-19 14:36:11.000,139,2019-12-19 14:54:01.660,0.25,90,60,-180,-150,1
10084,203,0,1074.451,0,-120,1,0.25,2,9,0.0,0.0,10,45.0,30.0,9,0.951,1.0,1075.566,0.13,1,2019-12-19 14:36:11.000,139,2019-12-19 14:54:05.451,0.25,-90,-120,0,30,1
10085,204,0,1079.933,0,-120,1,0.25,2,9,0.0,0.0,10,45.0,30.0,9,0.7509999999999999,0.0,1080.141,0.0,0,2019-12-19 14:36:11.000,139,2019-12-19 14:54:10.933,0.25,90,-120,0,-150,1
10086,206,0,1089.581,0,-120,1,0.25,2,9,0.0,0.0,10,45.0,30.0,9,0.7509999999999999,1.0,1090.096,0.13,1,2019-12-19 14:36:11.000,139,2019-12-19 14:54:20.581,0.25,-90,-120,0,30,1
10087,207,0,1093.457,0,-120,1,0.25,2,3,0.0,0.0,4,45.0,30.0,3,0.901,0.0,1093.892,0.17,1,2019-12-19 14:36:11.000,139,2019-12-19 14:54:24.457,0.25,90,60,-180,-150,1
10088,208,0,1097.257,0,-120,1,0.25,2,3,0.0,0.0,4,45.0,30.0,3,0.951,0.0,1097.564,0.17,1,2019-12-19 14:36:11.000,139,2019-12-19 14:54:28.257,0.25,90,60,-180,-150,1
10089,209,0,1100.46,0,-120,1,0.25,2,9,0.0,0.0,10,45.0,30.0,9,0.851,1.0,1101.064,0.13,1,2019-12-19 14:36:11.000,139,2019-12-19 14:54:31.460,0.25,-90,-120,0,30,1
10090,210,0,1104.005,0,-120,1,0.25,2,9,0.0,0.0,10,45.0,30.0,9,0.8009999999999999,1.0,1104.85,0.13,1,2019-12-19 14:36:11.000,139,2019-12-19 14:54:35.005,0.25,-90,-120,0,30,1
10091,211,0,1107.783,0,-120,1,0.25,2,9,0.0,0.0,10,45.0,30.0,9,0.851,1.0,1108.582,0.13,1,2019-12-19 14:36:11.000,139,2019-12-19 14:54:38.783,0.25,-90,-120,0,30,1
10092,212,0,1115.312,0,-120,1,0.25,2,3,0.0,0.0,4,45.0,30.0,3,0.951,1.0,1116.203,0.0,0,2019-12-19 14:36:11.000,139,2019-12-19 14:54:46.312,0.25,-90,60,-180,30,1
10276,154,0,751.201,0,90,1,0.25,2,9,0.0,0.0,3,45.0,30.0,9,0.7509999999999999,1.0,751.936,0.13,1,2019-12-20 14:27:57.000,68,2019-12-20 14:40:28.201,0.25,-90,90,0,-180,1
10277,155,0,755.1360000000002,1,90,1,0.25,2,3,0.0,0.0,9,45.0,30.0,3,0.951,0.0,755.4580000000002,0.17,1,2019-12-20 14:27:57.000,68,2019-12-20 14:40:32.136,0.25,90,-90,-180,0,1
10278,156,0,758.0139999999999,0,90,1,0.25,2,9,0.0,0.0,3,45.0,30.0,9,0.7509999999999999,1.0,759.916,0.13,1,2019-12-20 14:27:57.000,68,2019-12-20 14:40:35.014,0.25,-90,90,0,-180,1
10279,157,0,764.797,0,90,1,0.25,2,9,0.0,0.0,3,45.0,30.0,9,0.8009999999999999,0.0,765.997,0.0,0,2019-12-20 14:27:57.000,68,2019-12-20 14:40:41.797,0.25,90,90,0,0,1
10280,159,0,780.99,1,90,1,0.25,2,9,0.0,0.0,3,45.0,30.0,9,0.851,0.0,781.3589999999998,0.0,0,2019-12-20 14:27:57.000,68,2019-12-20 14:40:57.990,0.25,90,90,0,0,1
10281,161,0,793.278,0,90,1,0.25,2,9,0.0,0.0,3,45.0,30.0,9,0.951,1.0,793.665,0.13,1,2019-12-20 14:27:57.000,68,2019-12-20 14:41:10.278,0.25,-90,90,0,-180,1
10283,163,0,800.823,0,90,1,0.25,2,3,0.0,0.0,9,45.0,30.0,3,0.851,0.0,801.439,0.17,1,2019-12-20 14:27:57.000,68,2019-12-20 14:41:17.823,0.25,90,-90,-180,0,1
10284,164,0,804.2760000000002,0,90,1,0.25,2,3,0.0,0.0,9,45.0,30.0,3,0.8009999999999999,0.0,805.048,0.17,1,2019-12-20 14:27:57.000,68,2019-12-20 14:41:21.276,0.25,90,-90,-180,0,1
10286,166,0,817.2560000000002,0,90,1,0.25,2,3,0.0,0.0,9,45.0,30.0,3,0.901,0.0,817.563,0.17,1,2019-12-20 14:27:57.000,68,2019-12-20 14:41:34.256,0.25,90,-90,-180,0,1
10287,167,0,821.443,0,90,1,0.25,2,9,0.0,0.0,3,45.0,30.0,9,0.8009999999999999,0.0,821.942,0.0,0,2019-12-20 14:27:57.000,68,2019-12-20 14:41:38.443,0.25,90,90,0,0,1
10314,33,0,305.491,0,0,1,0.25,2,9,0.0,0.0,6,45.0,30.0,9,0.8009999999999999,1.0,305.894,0.13,1,2020-01-13 08:36:48.000,167,2020-01-13 08:41:53.491,0.25,-90,0,0,-90,1
10315,34,0,309.1740000000001,0,0,1,0.25,2,3,0.0,0.0,12,45.0,30.0,3,0.951,0.0,309.463,0.17,1,2020-01-13 08:36:48.000,167,2020-01-13 08:41:57.174,0.25,90,-180,-180,90,1
10316,35,0,314.9170000000001,0,0,1,0.25,2,3,0.0,0.0,12,45.0,30.0,3,0.851,1.0,315.546,0.0,0,2020-01-13 08:36:48.000,167,2020-01-13 08:42:02.917,0.25,-90,-180,-180,-90,1
10317,37,0,347.358,0,0,1,0.25,2,3,0.0,0.0,12,45.0,30.0,3,0.8009999999999999,1.0,347.96,0.0,0,2020-01-13 08:36:48.000,167,2020-01-13 08:42:35.358,0.25,-90,-180,-180,-90,1
10318,40,0,394.724,0,0,1,0.25,2,9,0.0,0.0,6,45.0,30.0,9,0.901,1.0,395.09,0.13,1,2020-01-13 08:36:48.000,167,2020-01-13 08:43:22.724,0.25,-90,0,0,-90,1
10319,41,0,398.47,0,0,1,0.25,2,9,0.0,0.0,6,45.0,30.0,9,0.8009999999999999,1.0,398.824,0.13,1,2020-01-13 08:36:48.000,167,2020-01-13 08:43:26.470,0.25,-90,0,0,-90,1
10320,42,0,402.867,0,0,1,0.25,2,3,0.0,0.0,12,45.0,30.0,3,0.7509999999999999,0.0,403.372,0.17,1,2020-01-13 08:36:48.000,167,2020-01-13 08:43:30.867,0.25,90,-180,-180,90,1
10321,43,0,410.513,1,0,1,0.25,2,3,0.0,0.0,12,45.0,30.0,3,0.951,0.0,410.975,0.17,1,2020-01-13 08:36:48.000,167,2020-01-13 08:43:38.513,0.25,90,-180,-180,90,1
10322,44,0,412.674,0,0,1,0.25,2,9,0.0,0.0,6,45.0,30.0,9,0.901,1.0,414.43300000000005,0.13,1,2020-01-13 08:36:48.000,167,2020-01-13 08:43:40.674,0.25,-90,0,0,-90,1
10323,45,0,420.903,0,0,1,0.25,2,9,0.0,0.0,6,45.0,30.0,9,0.851,0.0,421.784,0.0,0,2020-01-13 08:36:48.000,167,2020-01-13 08:43:48.903,0.25,90,0,0,90,1
10730,67,0,492.619,1,-60,1,0.25,2,9,0.0,0.0,8,45.0,30.0,9,0.951,1.0,495.392,0.13,1,2020-01-15 08:43:32.000,55,2020-01-15 08:51:44.619,0.25,-90,-60,0,-30,1
10731,68,0,499.339,0,-60,1,0.25,2,3,0.0,0.0,2,45.0,30.0,3,0.8009999999999999,1.0,500.499,0.0,0,2020-01-15 08:43:32.000,55,2020-01-15 08:51:51.339,0.25,-90,120,-180,-30,1
10733,71,0,512.612,1,-60,1,0.25,2,3,0.0,0.0,2,45.0,30.0,3,0.901,0.0,513.165,0.17,1,2020-01-15 08:43:32.000,55,2020-01-15 08:52:04.612,0.25,90,120,-180,150,1
10734,72,0,515.893,0,-60,1,0.25,2,3,0.0,0.0,2,45.0,30.0,3,0.851,1.0,517.714,0.0,0,2020-01-15 08:43:32.000,55,2020-01-15 08:52:07.893,0.25,-90,120,-180,-30,1
10735,74,0,526.655,0,-60,1,0.25,2,3,0.0,0.0,2,45.0,30.0,3,0.951,1.0,528.631,0.0,0,2020-01-15 08:43:32.000,55,2020-01-15 08:52:18.655,0.25,-90,120,-180,-30,1
10736,76,0,537.369,0,-60,1,0.25,2,3,0.0,0.0,2,45.0,30.0,3,0.951,1.0,539.17,0.0,0,2020-01-15 08:43:32.000,55,2020-01-15 08:52:29.369,0.25,-90,120,-180,-30,1
10737,78,0,553.535,0,-60,1,0.25,2,3,0.0,0.0,2,45.0,30.0,3,0.7509999999999999,1.0,554.081,0.0,0,2020-01-15 08:43:32.000,55,2020-01-15 08:52:45.535,0.25,-90,120,-180,-30,1
10738,80,0,564.754,0,-60,1,0.25,2,9,0.0,0.0,8,45.0,30.0,9,0.901,1.0,565.58,0.13,1,2020-01-15 08:43:32.000,55,2020-01-15 08:52:56.754,0.25,-90,-60,0,-30,1
10739,81,0,572.327,1,-60,1,0.25,2,9,0.0,0.0,8,45.0,30.0,9,0.951,0.0,572.747,0.0,0,2020-01-15 08:43:32.000,55,2020-01-15 08:53:04.327,0.25,90,-60,0,150,1
10740,83,0,584.694,1,-60,1,0.25,2,3,0.0,0.0,2,45.0,30.0,3,0.8009999999999999,1.0,587.964,0.0,0,2020-01-15 08:43:32.000,55,2020-01-15 08:53:16.694,0.25,-90,120,-180,-30,1
10818,101,0,624.592,0,150,1,0.25,2,9,0.0,0.0,1,45.0,30.0,9,0.901,1.0,625.3480000000002,0.13,1,2020-01-15 14:31:11.000,30,2020-01-15 14:41:35.592,0.25,-90,150,0,120,1
10819,102,0,628.75,0,150,1,0.25,2,3,0.0,0.0,7,45.0,30.0,3,0.951,1.0,629.373,0.0,0,2020-01-15 14:31:11.000,30,2020-01-15 14:41:39.750,0.25,-90,-30,-180,120,1
10820,104,0,648.9580000000002,0,150,1,0.25,2,9,0.0,0.0,1,45.0,30.0,9,0.851,1.0,649.624,0.13,1,2020-01-15 14:31:11.000,30,2020-01-15 14:41:59.958,0.25,-90,150,0,120,1
10821,105,0,652.4540000000002,0,150,1,0.25,2,3,0.0,0.0,7,45.0,30.0,3,0.7509999999999999,0.0,652.956,0.17,1,2020-01-15 14:31:11.000,30,2020-01-15 14:42:03.454,0.25,90,-30,-180,-60,1
10822,106,0,656.158,0,150,1,0.25,2,9,0.0,0.0,1,45.0,30.0,9,0.7509999999999999,1.0,656.6510000000002,0.13,1,2020-01-15 14:31:11.000,30,2020-01-15 14:42:07.158,0.25,-90,150,0,120,1
10823,107,0,660.693,0,150,1,0.25,2,3,0.0,0.0,7,45.0,30.0,3,0.851,0.0,661.179,0.17,1,2020-01-15 14:31:11.000,30,2020-01-15 14:42:11.693,0.25,90,-30,-180,-60,1
10824,108,0,664.055,0,150,1,0.25,2,9,0.0,0.0,1,45.0,30.0,9,0.901,0.0,664.633,0.0,0,2020-01-15 14:31:11.000,30,2020-01-15 14:42:15.055,0.25,90,150,0,-60,1
10825,111,0,681.2189999999998,0,150,1,0.25,2,3,0.0,0.0,7,45.0,30.0,3,0.901,0.0,681.627,0.17,1,2020-01-15 14:31:11.000,30,2020-01-15 14:42:32.219,0.25,90,-30,-180,-60,1
10826,112,0,684.941,0,150,1,0.25,2,9,0.0,0.0,1,45.0,30.0,9,0.951,1.0,685.352,0.13,1,2020-01-15 14:31:11.000,30,2020-01-15 14:42:35.941,0.25,-90,150,0,120,1
10827,113,0,689.3889999999999,0,150,1,0.25,2,9,0.0,0.0,1,45.0,30.0,9,0.8009999999999999,0.0,690.232,0.0,0,2020-01-15 14:31:11.000,30,2020-01-15 14:42:40.389,0.25,90,150,0,-60,1
10834,9,0,120.38,0,-120,1,0.25,2,9,0.0,0.0,10,45.0,30.0,9,0.7509999999999999,0.0,121.02,0.0,0,2020-01-16 09:02:39.000,212,2020-01-16 09:04:39.380,0.25,90,-120,0,-150,1
10835,12,0,146.159,0,-120,1,0.25,2,9,0.0,0.0,10,45.0,30.0,9,0.901,1.0,147.006,0.13,1,2020-01-16 09:02:39.000,212,2020-01-16 09:05:05.159,0.25,-90,-120,0,30,1
10836,13,0,150.15200000000004,0,-120,1,0.25,2,9,0.0,0.0,10,45.0,30.0,9,0.8009999999999999,0.0,150.373,0.0,0,2020-01-16 09:02:39.000,212,2020-01-16 09:05:09.152,0.25,90,-120,0,-150,1
10837,15,0,160.364,0,-120,1,0.25,2,9,0.0,0.0,10,45.0,30.0,9,0.7509999999999999,0.0,160.884,0.0,0,2020-01-16 09:02:39.000,212,2020-01-16 09:05:19.364,0.25,90,-120,0,-150,1
10838,17,0,174.065,0,-120,1,0.25,2,3,0.0,0.0,4,45.0,30.0,3,0.901,1.0,175.61,0.0,0,2020-01-16 09:02:39.000,212,2020-01-16 09:05:33.065,0.25,-90,60,-180,30,1
10840,20,0,190.132,0,-120,1,0.25,2,3,0.0,0.0,4,45.0,30.0,3,0.7509999999999999,0.0,190.5,0.17,1,2020-01-16 09:02:39.000,212,2020-01-16 09:05:49.132,0.25,90,60,-180,-150,1
10841,21,0,194.496,0,-120,1,0.25,2,3,0.0,0.0,4,45.0,30.0,3,0.7509999999999999,0.0,195.048,0.17,1,2020-01-16 09:02:39.000,212,2020-01-16 09:05:53.496,0.25,90,60,-180,-150,1
10843,23,0,216.611,0,-120,1,0.25,2,9,0.0,0.0,10,45.0,30.0,9,0.851,1.0,217.07,0.13,1,2020-01-16 09:02:39.000,212,2020-01-16 09:06:15.611,0.25,-90,-120,0,30,1
10844,24,0,220.073,0,-120,1,0.25,2,3,0.0,0.0,4,45.0,30.0,3,0.951,0.0,220.319,0.17,1,2020-01-16 09:02:39.000,212,2020-01-16 09:06:19.073,0.25,90,60,-180,-150,1
10845,25,0,226.345,0,-120,1,0.25,2,3,0.0,0.0,4,45.0,30.0,3,0.8009999999999999,1.0,226.984,0.0,0,2020-01-16 09:02:39.000,212,2020-01-16 09:06:25.345,0.25,-90,60,-180,30,1
10963,151,0,787.059,0,-150,1,0.25,2,3,0.0,0.0,5,45.0,30.0,3,0.8009999999999999,0.0,787.909,0.17,1,2020-01-16 15:26:08.000,136,2020-01-16 15:39:15.059,0.25,90,30,-180,-120,1
10964,152,0,790.562,0,-150,1,0.25,2,3,0.0,0.0,5,45.0,30.0,3,0.7509999999999999,0.0,791.135,0.17,1,2020-01-16 15:26:08.000,136,2020-01-16 15:39:18.562,0.25,90,30,-180,-120,1
10965,153,0,794.572,0,-150,1,0.25,2,9,0.0,0.0,11,45.0,30.0,9,0.901,1.0,795.03,0.13,1,2020-01-16 15:26:08.000,136,2020-01-16 15:39:22.572,0.25,-90,-150,0,60,1
10966,154,0,798.341,0,-150,1,0.25,2,9,0.0,0.0,11,45.0,30.0,9,0.851,1.0,798.823,0.13,1,2020-01-16 15:26:08.000,136,2020-01-16 15:39:26.341,0.25,-90,-150,0,60,1
10967,155,0,801.99,0,-150,1,0.25,2,9,0.0,0.0,11,45.0,30.0,9,0.951,1.0,802.445,0.13,1,2020-01-16 15:26:08.000,136,2020-01-16 15:39:29.990,0.25,-90,-150,0,60,1
10968,156,0,805.669,0,-150,1,0.25,2,9,0.0,0.0,11,45.0,30.0,9,0.7509999999999999,0.0,806.5010000000002,0.0,0,2020-01-16 15:26:08.000,136,2020-01-16 15:39:33.669,0.25,90,-150,0,-120,1
10969,158,0,818.8839999999999,0,-150,1,0.25,2,9,0.0,0.0,11,45.0,30.0,9,0.8009999999999999,1.0,819.331,0.13,1,2020-01-16 15:26:08.000,136,2020-01-16 15:39:46.884,0.25,-90,-150,0,60,1
10970,159,0,822.569,0,-150,1,0.25,2,3,0.0,0.0,5,45.0,30.0,3,0.851,0.0,823.07,0.17,1,2020-01-16 15:26:08.000,136,2020-01-16 15:39:50.569,0.25,90,30,-180,-120,1
10971,160,0,826.423,0,-150,1,0.25,2,9,0.0,0.0,11,45.0,30.0,9,0.951,0.0,826.829,0.0,0,2020-01-16 15:26:08.000,136,2020-01-16 15:39:54.423,0.25,90,-150,0,-120,1
10972,163,0,844.6339999999999,0,-150,1,0.25,2,3,0.0,0.0,5,45.0,30.0,3,0.7509999999999999,1.0,845.235,0.0,0,2020-01-16 15:26:08.000,136,2020-01-16 15:40:12.634,0.25,-90,30,-180,60,1
11024,80,0,855.347,1,0,1,0.25,2,3,0.0,0.0,12,45.0,30.0,3,0.901,0.0,855.847,0.17,1,2020-02-03 10:41:11.000,134,2020-02-03 10:55:26.347,0.25,90,-180,-180,90,1
11025,81,0,858.7639999999999,0,0,1,0.25,2,9,0.0,0.0,6,45.0,30.0,9,0.901,1.0,860.388,0.13,1,2020-02-03 10:41:11.000,134,2020-02-03 10:55:29.764,0.25,-90,0,0,-90,1
11026,82,0,868.8760000000002,1,0,1,0.25,2,3,0.0,0.0,12,45.0,30.0,3,0.7509999999999999,0.0,869.4860000000001,0.17,1,2020-02-03 10:41:11.000,134,2020-02-03 10:55:39.876,0.25,90,-180,-180,90,1
11027,83,0,872.612,0,0,1,0.25,2,9,0.0,0.0,6,45.0,30.0,9,0.851,0.0,874.5110000000002,0.0,0,2020-02-03 10:41:11.000,134,2020-02-03 10:55:43.612,0.25,90,0,0,90,1
11028,85,0,890.217,1,0,1,0.25,2,3,0.0,0.0,12,45.0,30.0,3,0.951,0.0,894.6410000000002,0.17,1,2020-02-03 10:41:11.000,134,2020-02-03 10:56:01.217,0.25,90,-180,-180,90,1
11029,86,0,898.427,1,0,1,0.25,2,3,0.0,0.0,12,45.0,30.0,3,0.7509999999999999,0.0,899.091,0.17,1,2020-02-03 10:41:11.000,134,2020-02-03 10:56:09.427,0.25,90,-180,-180,90,1
11030,87,0,903.033,1,0,1,0.25,2,3,0.0,0.0,12,45.0,30.0,3,0.901,0.0,907.594,0.17,1,2020-02-03 10:41:11.000,134,2020-02-03 10:56:14.033,0.25,90,-180,-180,90,1
11031,88,0,921.054,0,0,1,0.25,2,3,0.0,0.0,12,45.0,30.0,3,0.851,1.0,921.336,0.0,0,2020-02-03 10:41:11.000,134,2020-02-03 10:56:32.054,0.25,-90,-180,-180,-90,1
11032,90,0,934.871,1,0,1,0.25,2,9,0.0,0.0,6,45.0,30.0,9,0.8009999999999999,1.0,935.302,0.13,1,2020-02-03 10:41:11.000,134,2020-02-03 10:56:45.871,0.25,-90,0,0,-90,1
11033,91,0,946.725,0,0,1,0.25,2,9,0.0,0.0,6,45.0,30.0,9,0.7509999999999999,0.0,947.564,0.0,0,2020-02-03 10:41:11.000,134,2020-02-03 10:56:57.725,0.25,90,0,0,90,1
11530,53,0,391.048,0,-120,1,0.25,2,3,0.0,0.0,4,45.0,30.0,3,0.601,1.0,391.451,0.0,0,2020-02-06 09:10:08.000,95,2020-02-06 09:16:39.048,0.25,-90,60,-180,30,1
11531,56,0,408.33,0,-120,1,0.25,2,9,0.0,0.0,10,45.0,30.0,9,0.7509999999999999,1.0,408.661,0.19,1,2020-02-06 09:10:08.000,95,2020-02-06 09:16:56.330,0.25,-90,-120,0,30,1
11532,57,0,411.497,0,-120,1,0.25,2,3,0.0,0.0,4,45.0,30.0,3,0.6759999999999999,1.0,412.195,0.0,0,2020-02-06 09:10:08.000,95,2020-02-06 09:16:59.497,0.25,-90,60,-180,30,1
11533,59,0,421.583,0,-120,1,0.25,2,3,0.0,0.0,4,45.0,30.0,3,0.451,1.0,422.184,0.0,0,2020-02-06 09:10:08.000,95,2020-02-06 09:17:09.583,0.25,-90,60,-180,30,1
11534,61,0,448.157,0,-120,1,0.25,2,9,0.0,0.0,10,45.0,30.0,9,0.526,0.0,448.768,0.0,0,2020-02-06 09:10:08.000,95,2020-02-06 09:17:36.157,0.25,90,-120,0,-150,1
11535,67,0,504.312,0,-120,1,0.25,2,9,0.0,0.0,10,45.0,30.0,9,0.6759999999999999,1.0,505.554,0.19,1,2020-02-06 09:10:08.000,95,2020-02-06 09:18:32.312,0.25,-90,-120,0,30,1
11536,68,0,508.472,0,-120,1,0.25,2,3,0.0,0.0,4,45.0,30.0,3,0.526,1.0,509.253,0.0,0,2020-02-06 09:10:08.000,95,2020-02-06 09:18:36.472,0.25,-90,60,-180,30,1
11537,70,0,515.816,0,-120,1,0.25,2,3,0.0,0.0,4,45.0,30.0,3,0.451,1.0,516.391,0.0,0,2020-02-06 09:10:08.000,95,2020-02-06 09:18:43.816,0.25,-90,60,-180,30,1
11538,72,0,523.115,0,-120,1,0.25,2,3,0.0,0.0,4,45.0,30.0,3,0.601,0.0,523.678,0.15,1,2020-02-06 09:10:08.000,95,2020-02-06 09:18:51.115,0.25,90,60,-180,-150,1
11539,73,0,525.722,0,-120,1,0.25,2,9,0.0,0.0,10,45.0,30.0,9,0.451,0.0,526.304,0.0,0,2020-02-06 09:10:08.000,95,2020-02-06 09:18:53.722,0.25,90,-120,0,-150,1
11800,162,0,851.518,0,0,1,0.25,2,3,0.0,0.0,12,45.0,30.0,3,0.526,0.0,852.301,0.19,1,2020-02-07 10:24:12.000,178,2020-02-07 10:38:23.518,0.25,90,-180,-180,90,1
11801,163,0,854.975,0,0,1,0.25,2,3,0.0,0.0,12,45.0,30.0,3,0.6759999999999999,1.0,855.1419999999998,0.0,0,2020-02-07 10:24:12.000,178,2020-02-07 10:38:26.975,0.25,-90,-180,-180,-90,1
11803,166,0,866.091,0,0,1,0.25,2,3,0.0,0.0,12,45.0,30.0,3,0.526,0.0,866.435,0.19,1,2020-02-07 10:24:12.000,178,2020-02-07 10:38:38.091,0.25,90,-180,-180,90,1
11804,167,0,869.1039999999998,0,0,1,0.25,2,9,0.0,0.0,6,45.0,30.0,9,0.7509999999999999,1.0,870.347,0.15,1,2020-02-07 10:24:12.000,178,2020-02-07 10:38:41.104,0.25,-90,0,0,-90,1
11806,169,0,877.6260000000002,0,0,1,0.25,2,9,0.0,0.0,6,45.0,30.0,9,0.601,0.0,878.133,0.0,0,2020-02-07 10:24:12.000,178,2020-02-07 10:38:49.626,0.25,90,0,0,90,1
11807,171,0,888.0319999999998,0,0,1,0.25,2,9,0.0,0.0,6,45.0,30.0,9,0.6759999999999999,1.0,888.442,0.15,1,2020-02-07 10:24:12.000,178,2020-02-07 10:39:00.032,0.25,-90,0,0,-90,1
11808,172,0,892.165,0,0,1,0.25,2,9,0.0,0.0,6,45.0,30.0,9,0.601,1.0,893.1360000000002,0.15,1,2020-02-07 10:24:12.000,178,2020-02-07 10:39:04.165,0.25,-90,0,0,-90,1
11810,174,0,900.268,0,0,1,0.25,2,3,0.0,0.0,12,45.0,30.0,3,0.451,1.0,901.214,0.0,0,2020-02-07 10:24:12.000,178,2020-02-07 10:39:12.268,0.25,-90,-180,-180,-90,1
11812,177,0,913.958,0,0,1,0.25,2,3,0.0,0.0,12,45.0,30.0,3,0.526,0.0,914.237,0.19,1,2020-02-07 10:24:12.000,178,2020-02-07 10:39:25.958,0.25,90,-180,-180,90,1
11813,178,0,916.004,0,0,1,0.25,2,3,0.0,0.0,12,45.0,30.0,3,0.451,1.0,916.472,0.0,0,2020-02-07 10:24:12.000,178,2020-02-07 10:39:28.004,0.25,-90,-180,-180,-90,1
11951,179,0,977.379,0,180,1,0.25,2,3,0.0,0.0,6,45.0,30.0,3,0.7509999999999999,1.0,978.199,0.0,0,2020-02-07 15:56:47.000,165,2020-02-07 16:13:04.379,0.25,-90,0,-180,90,1
11952,181,0,995.769,0,180,1,0.25,2,9,0.0,0.0,12,45.0,30.0,9,0.6759999999999999,1.0,996.048,0.14,1,2020-02-07 15:56:47.000,165,2020-02-07 16:13:22.769,0.25,-90,-180,0,90,1
11953,182,0,999.099,0,180,1,0.25,2,3,0.0,0.0,6,45.0,30.0,3,0.526,1.0,1000.04,0.0,0,2020-02-07 15:56:47.000,165,2020-02-07 16:13:26.099,0.25,-90,0,-180,90,1
11954,184,0,1007.157,0,180,1,0.25,2,9,0.0,0.0,12,45.0,30.0,9,0.7509999999999999,0.0,1003.354,0.0,0,2020-02-07 15:56:47.000,165,2020-02-07 16:13:34.157,0.25,90,-180,0,-90,1
11955,186,0,1013.801,0,180,1,0.25,2,9,0.0,0.0,12,45.0,30.0,9,0.6759999999999999,1.0,1014.393,0.14,1,2020-02-07 15:56:47.000,165,2020-02-07 16:13:40.801,0.25,-90,-180,0,90,1
11956,187,0,1017.302,0,180,1,0.25,2,3,0.0,0.0,6,45.0,30.0,3,0.7509999999999999,1.0,1017.881,0.0,0,2020-02-07 15:56:47.000,165,2020-02-07 16:13:44.302,0.25,-90,0,-180,90,1
11957,189,0,1027.479,0,180,1,0.25,2,3,0.0,0.0,6,45.0,30.0,3,0.601,0.0,1027.913,0.195,1,2020-02-07 15:56:47.000,165,2020-02-07 16:13:54.479,0.25,90,0,-180,-90,1
11958,190,0,1030.22,0,180,1,0.25,2,9,0.0,0.0,12,45.0,30.0,9,0.451,0.0,1031.282,0.0,0,2020-02-07 15:56:47.000,165,2020-02-07 16:13:57.220,0.25,90,-180,0,-90,1
11959,192,0,1042.54,0,180,1,0.25,2,9,0.0,0.0,12,45.0,30.0,9,0.451,1.0,1043.514,0.14,1,2020-02-07 15:56:47.000,165,2020-02-07 16:14:09.540,0.25,-90,-180,0,90,1
11960,193,0,1047.018,0,180,1,0.25,2,3,0.0,0.0,6,45.0,30.0,3,0.7509999999999999,1.0,1047.639,0.0,0,2020-02-07 15:56:47.000,165,2020-02-07 16:14:14.018,0.25,-90,0,-180,90,1
11967,10,0,192.833,1,0,1,0.25,2,9,0.0,0.0,6,45.0,30.0,9,0.451,1.0,193.56,0.15,1,2020-02-12 12:19:47.000,19,2020-02-12 12:22:59.833,0.25,-90,0,0,-90,1
11968,11,0,205.268,1,0,1,0.25,2,9,0.0,0.0,6,45.0,30.0,9,0.488,0.0,210.261,0.0,0,2020-02-12 12:19:47.000,19,2020-02-12 12:23:12.268,0.25,90,0,0,90,1
11969,13,0,219.52,1,0,1,0.25,2,3,0.0,0.0,12,45.0,30.0,3,0.564,0.0,223.471,0.19,1,2020-02-12 12:19:47.000,19,2020-02-12 12:23:26.520,0.25,90,-180,-180,90,1
11971,15,0,234.032,1,0,1,0.25,2,3,0.0,0.0,12,45.0,30.0,3,0.601,0.0,239.873,0.19,1,2020-02-12 12:19:47.000,19,2020-02-12 12:23:41.032,0.25,90,-180,-180,90,1
11972,16,0,245.017,0,0,1,0.25,2,3,0.0,0.0,12,45.0,30.0,3,0.488,1.0,245.609,0.0,0,2020-02-12 12:19:47.000,19,2020-02-12 12:23:52.017,0.25,-90,-180,-180,-90,1
11973,19,0,268.273,1,0,1,0.25,2,9,0.0,0.0,6,45.0,30.0,9,0.526,0.0,272.492,0.0,0,2020-02-12 12:19:47.000,19,2020-02-12 12:24:15.273,0.25,90,0,0,90,1
11974,24,0,313.871,1,0,1,0.25,2,3,0.0,0.0,12,45.0,30.0,3,0.564,0.0,317.07,0.19,1,2020-02-12 12:19:47.000,19,2020-02-12 12:25:00.871,0.25,90,-180,-180,90,1
11975,25,0,321.722,1,0,1,0.25,2,9,0.0,0.0,6,45.0,30.0,9,0.488,0.0,325.577,0.0,0,2020-02-12 12:19:47.000,19,2020-02-12 12:25:08.722,0.25,90,0,0,90,1
11976,27,0,340.134,1,0,1,0.25,2,9,0.0,0.0,6,45.0,30.0,9,0.564,0.0,343.894,0.0,0,2020-02-12 12:19:47.000,19,2020-02-12 12:25:27.134,0.25,90,0,0,90,1
11977,29,0,384.7,0,0,1,0.25,2,3,0.0,0.0,12,45.0,30.0,3,0.601,1.0,388.285,0.0,0,2020-02-12 12:19:47.000,19,2020-02-12 12:26:11.700,0.25,-90,-180,-180,-90,1
12449,101,0,627.661,0,180,1,0.25,2,3,0.0,0.0,6,45.0,30.0,3,0.589,0.0,628.047,0.15,1,2020-02-18 14:56:49.000,118,2020-02-18 15:07:16.661,0.25,90,0,-180,-90,1
12450,102,0,631.9169999999998,0,180,1,0.25,2,3,0.0,0.0,6,45.0,30.0,3,0.6629999999999999,0.0,632.629,0.15,1,2020-02-18 14:56:49.000,118,2020-02-18 15:07:20.917,0.25,90,0,-180,-90,1
12451,103,0,636.556,0,180,1,0.25,2,3,0.0,0.0,6,45.0,30.0,3,0.626,1.0,637.095,0.0,0,2020-02-18 14:56:49.000,118,2020-02-18 15:07:25.556,0.25,-90,0,-180,90,1
12452,106,0,665.426,0,180,1,0.25,2,3,0.0,0.0,6,45.0,30.0,3,0.551,1.0,665.8,0.0,0,2020-02-18 14:56:49.000,118,2020-02-18 15:07:54.426,0.25,-90,0,-180,90,1
12453,108,0,679.061,0,180,1,0.25,2,3,0.0,0.0,6,45.0,30.0,3,0.6629999999999999,0.0,680.4110000000002,0.15,1,2020-02-18 14:56:49.000,118,2020-02-18 15:08:08.061,0.25,90,0,-180,-90,1
12454,109,0,684.28,0,180,1,0.25,2,3,0.0,0.0,6,45.0,30.0,3,0.701,1.0,684.528,0.0,0,2020-02-18 14:56:49.000,118,2020-02-18 15:08:13.280,0.25,-90,0,-180,90,1
12455,113,0,714.4889999999998,0,180,1,0.25,2,3,0.0,0.0,6,45.0,30.0,3,0.6629999999999999,1.0,715.293,0.0,0,2020-02-18 14:56:49.000,118,2020-02-18 15:08:43.489,0.25,-90,0,-180,90,1
12456,115,0,732.955,0,180,1,0.25,2,3,0.0,0.0,6,45.0,30.0,3,0.701,0.0,733.72,0.15,1,2020-02-18 14:56:49.000,118,2020-02-18 15:09:01.955,0.25,90,0,-180,-90,1
12457,116,0,737.798,0,180,1,0.25,2,9,0.0,0.0,12,45.0,30.0,9,0.701,1.0,737.94,0.15,1,2020-02-18 14:56:49.000,118,2020-02-18 15:09:06.798,0.25,-90,-180,0,90,1
12458,117,0,741.096,0,180,1,0.25,2,3,0.0,0.0,6,45.0,30.0,3,0.589,1.0,741.3739999999998,0.0,0,2020-02-18 14:56:49.000,118,2020-02-18 15:09:10.096,0.25,-90,0,-180,90,1
12735,109,0,727.312,0,-90,1,0.25,2,9,0.0,0.0,9,45.0,30.0,9,0.589,1.0,727.9680000000002,0.14,1,2020-02-20 07:46:34.000,104,2020-02-20 07:58:41.312,0.25,-90,-90,0,0,1
12736,110,0,733.181,0,-90,1,0.25,2,9,0.0,0.0,9,45.0,30.0,9,0.701,0.0,733.6060000000001,0.0,0,2020-02-20 07:46:34.000,104,2020-02-20 07:58:47.181,0.25,90,-90,0,-180,1
12737,112,0,742.171,0,-90,1,0.25,2,3,0.0,0.0,3,45.0,30.0,3,0.701,0.0,742.6439999999999,0.16,1,2020-02-20 07:46:34.000,104,2020-02-20 07:58:56.171,0.25,90,90,-180,-180,1
12738,113,0,746.4830000000002,1,-90,1,0.25,2,9,0.0,0.0,9,45.0,30.0,9,0.589,1.0,746.8710000000002,0.14,1,2020-02-20 07:46:34.000,104,2020-02-20 07:59:00.483,0.25,-90,-90,0,0,1
12739,114,0,750.0039999999998,0,-90,1,0.25,2,3,0.0,0.0,3,45.0,30.0,3,0.626,1.0,751.757,0.0,0,2020-02-20 07:46:34.000,104,2020-02-20 07:59:04.004,0.25,-90,90,-180,0,1
12740,117,0,765.885,0,-90,1,0.25,2,3,0.0,0.0,3,45.0,30.0,3,0.701,0.0,766.7739999999999,0.16,1,2020-02-20 07:46:34.000,104,2020-02-20 07:59:19.885,0.25,90,90,-180,-180,1
12741,118,0,773.7310000000001,0,-90,1,0.25,2,3,0.0,0.0,3,45.0,30.0,3,0.589,1.0,774.2869999999998,0.0,0,2020-02-20 07:46:34.000,104,2020-02-20 07:59:27.731,0.25,-90,90,-180,0,1
12742,120,0,787.671,0,-90,1,0.25,2,3,0.0,0.0,3,45.0,30.0,3,0.626,0.0,788.534,0.16,1,2020-02-20 07:46:34.000,104,2020-02-20 07:59:41.671,0.25,90,90,-180,-180,1
12743,121,0,793.23,0,-90,1,0.25,2,9,0.0,0.0,9,45.0,30.0,9,0.589,1.0,793.568,0.14,1,2020-02-20 07:46:34.000,104,2020-02-20 07:59:47.230,0.25,-90,-90,0,0,1
12745,123,0,805.5880000000002,0,-90,1,0.25,2,3,0.0,0.0,3,45.0,30.0,3,0.626,0.0,806.0210000000002,0.16,1,2020-02-20 07:46:34.000,104,2020-02-20 07:59:59.588,0.25,90,90,-180,-180,1
12862,153,0,1004.847,0,90,1,0.25,2,3,0.0,0.0,9,45.0,30.0,3,0.701,1.0,1005.382,0.0,0,2020-02-20 14:39:15.000,89,2020-02-20 14:55:59.847,0.25,-90,-90,-180,-180,1
12863,156,0,1024.422,0,90,1,0.25,2,3,0.0,0.0,9,45.0,30.0,3,0.626,0.0,1024.96,0.155,1,2020-02-20 14:39:15.000,89,2020-02-20 14:56:19.422,0.25,90,-90,-180,0,1
12864,157,0,1028.167,0,90,1,0.25,2,9,0.0,0.0,3,45.0,30.0,9,0.6629999999999999,1.0,1028.506,0.145,1,2020-02-20 14:39:15.000,89,2020-02-20 14:56:23.167,0.25,-90,90,0,-180,1
12865,158,0,1031.254,1,90,1,0.25,2,3,0.0,0.0,9,45.0,30.0,3,0.551,0.0,1032.155,0.155,1,2020-02-20 14:39:15.000,89,2020-02-20 14:56:26.254,0.25,90,-90,-180,0,1
12867,160,0,1040.237,0,90,1,0.25,2,9,0.0,0.0,3,45.0,30.0,9,0.589,1.0,1040.734,0.145,1,2020-02-20 14:39:15.000,89,2020-02-20 14:56:35.237,0.25,-90,90,0,-180,1
12868,161,0,1043.637,0,90,1,0.25,2,9,0.0,0.0,3,45.0,30.0,9,0.6629999999999999,1.0,1044.346,0.145,1,2020-02-20 14:39:15.000,89,2020-02-20 14:56:38.637,0.25,-90,90,0,-180,1
12869,162,0,1047.055,0,90,1,0.25,2,9,0.0,0.0,3,45.0,30.0,9,0.701,1.0,1047.721,0.145,1,2020-02-20 14:39:15.000,89,2020-02-20 14:56:42.055,0.25,-90,90,0,-180,1
12870,163,0,1050.715,0,90,1,0.25,2,9,0.0,0.0,3,45.0,30.0,9,0.589,1.0,1051.493,0.145,1,2020-02-20 14:39:15.000,89,2020-02-20 14:56:45.715,0.25,-90,90,0,-180,1
12871,164,0,1059.511,0,90,1,0.25,2,3,0.0,0.0,9,45.0,30.0,3,0.626,0.0,1060.639,0.155,1,2020-02-20 14:39:15.000,89,2020-02-20 14:56:54.511,0.25,90,-90,-180,0,1
12872,165,0,1064.381,0,90,1,0.25,2,3,0.0,0.0,9,45.0,30.0,3,0.551,1.0,1065.153,0.0,0,2020-02-20 14:39:15.000,89,2020-02-20 14:56:59.381,0.25,-90,-90,-180,-180,1
12959,130,0,849.2410000000001,0,-150,1,0.25,2,3,0.0,0.0,5,45.0,30.0,3,0.7140000000000001,0.0,849.83,0.16,1,2020-02-21 09:03:56.000,236,2020-02-21 09:18:05.241,0.25,90,30,-180,-120,1
12960,131,0,861.442,0,-150,1,0.25,2,3,0.0,0.0,5,45.0,30.0,3,0.7509999999999999,0.0,862.1030000000002,0.16,1,2020-02-21 09:03:56.000,236,2020-02-21 09:18:17.442,0.25,90,30,-180,-120,1
12961,132,0,873.9069999999998,0,-150,1,0.25,2,3,0.0,0.0,5,45.0,30.0,3,0.638,0.0,874.7230000000002,0.16,1,2020-02-21 09:03:56.000,236,2020-02-21 09:18:29.907,0.25,90,30,-180,-120,1
12962,133,0,883.545,0,-150,1,0.25,2,9,0.0,0.0,11,45.0,30.0,9,0.7140000000000001,1.0,884.0360000000002,0.135,1,2020-02-21 09:03:56.000,236,2020-02-21 09:18:39.545,0.25,-90,-150,0,60,1
12964,135,0,890.552,0,-150,1,0.25,2,9,0.0,0.0,11,45.0,30.0,9,0.601,1.0,891.155,0.135,1,2020-02-21 09:03:56.000,236,2020-02-21 09:18:46.552,0.25,-90,-150,0,60,1
12965,136,0,894.2260000000001,0,-150,1,0.25,2,3,0.0,0.0,5,45.0,30.0,3,0.638,1.0,894.9939999999998,0.0,0,2020-02-21 09:03:56.000,236,2020-02-21 09:18:50.226,0.25,-90,30,-180,60,1
12966,138,0,908.476,0,-150,1,0.25,2,9,0.0,0.0,11,45.0,30.0,9,0.7140000000000001,0.0,908.947,0.0,0,2020-02-21 09:03:56.000,236,2020-02-21 09:19:04.476,0.25,90,-150,0,-120,1
12967,141,0,941.073,0,-150,1,0.25,2,9,0.0,0.0,11,45.0,30.0,9,0.601,1.0,941.274,0.135,1,2020-02-21 09:03:56.000,236,2020-02-21 09:19:37.073,0.25,-90,-150,0,60,1
12968,142,0,949.965,0,-150,1,0.25,2,3,0.0,0.0,5,45.0,30.0,3,0.6759999999999999,0.0,950.291,0.16,1,2020-02-21 09:03:56.000,236,2020-02-21 09:19:45.965,0.25,90,30,-180,-120,1
12969,143,0,956.614,0,-150,1,0.25,2,9,0.0,0.0,11,45.0,30.0,9,0.7140000000000001,0.0,957.025,0.0,0,2020-02-21 09:03:56.000,236,2020-02-21 09:19:52.614,0.25,90,-150,0,-120,1
13062,119,0,1029.13,0,60,1,0.25,2,3,0.0,0.0,10,45.0,30.0,3,0.7140000000000001,1.0,1029.464,0.0,0,2020-02-21 14:31:04.000,35,2020-02-21 14:48:13.130,0.25,-90,-120,-180,-150,1
13063,121,0,1046.38,0,60,1,0.25,2,9,0.0,0.0,4,45.0,30.0,9,0.7509999999999999,1.0,1046.977,0.14,1,2020-02-21 14:31:04.000,35,2020-02-21 14:48:30.380,0.25,-90,60,0,-150,1
13064,122,0,1052.621,0,60,1,0.25,2,9,0.0,0.0,4,45.0,30.0,9,0.7140000000000001,1.0,1053.025,0.14,1,2020-02-21 14:31:04.000,35,2020-02-21 14:48:36.621,0.25,-90,60,0,-150,1
13067,125,0,1070.668,0,60,1,0.25,2,3,0.0,0.0,10,45.0,30.0,3,0.638,0.0,1073.203,0.16,1,2020-02-21 14:31:04.000,35,2020-02-21 14:48:54.668,0.25,90,-120,-180,30,1
13068,126,0,1079.775,0,60,1,0.25,2,3,0.0,0.0,10,45.0,30.0,3,0.7140000000000001,0.0,1080.354,0.16,1,2020-02-21 14:31:04.000,35,2020-02-21 14:49:03.775,0.25,90,-120,-180,30,1
13070,128,0,1089.465,0,60,1,0.25,2,3,0.0,0.0,10,45.0,30.0,3,0.601,0.0,1090.131,0.16,1,2020-02-21 14:31:04.000,35,2020-02-21 14:49:13.465,0.25,90,-120,-180,30,1
13071,129,0,1095.139,0,60,1,0.25,2,3,0.0,0.0,10,45.0,30.0,3,0.6759999999999999,0.0,1096.057,0.16,1,2020-02-21 14:31:04.000,35,2020-02-21 14:49:19.139,0.25,90,-120,-180,30,1
13072,130,0,1103.372,0,60,1,0.25,2,3,0.0,0.0,10,45.0,30.0,3,0.7509999999999999,0.0,1103.895,0.16,1,2020-02-21 14:31:04.000,35,2020-02-21 14:49:27.372,0.25,90,-120,-180,30,1
13073,131,0,1110.143,0,60,1,0.25,2,9,0.0,0.0,4,45.0,30.0,9,0.638,1.0,1110.7089999999996,0.14,1,2020-02-21 14:31:04.000,35,2020-02-21 14:49:34.143,0.25,-90,60,0,-150,1
13074,132,0,1113.631,0,60,1,0.25,2,3,0.0,0.0,10,45.0,30.0,3,0.7140000000000001,1.0,1113.953,0.0,0,2020-02-21 14:31:04.000,35,2020-02-21 14:49:37.631,0.25,-90,-120,-180,-150,1
13155,94,0,556.586,0,0,1,0.25,2,3,0.0,0.0,12,45.0,30.0,3,0.7509999999999999,0.0,557.078,0.155,1,2020-03-02 08:47:54.000,214,2020-03-02 08:57:10.586,0.25,90,-180,-180,90,1
13156,95,0,560.719,0,0,1,0.25,2,3,0.0,0.0,12,45.0,30.0,3,0.601,0.0,561.273,0.155,1,2020-03-02 08:47:54.000,214,2020-03-02 08:57:14.719,0.25,90,-180,-180,90,1
13157,96,0,565.1030000000002,0,0,1,0.25,2,9,0.0,0.0,6,45.0,30.0,9,0.6759999999999999,1.0,565.498,0.145,1,2020-03-02 08:47:54.000,214,2020-03-02 08:57:19.103,0.25,-90,0,0,-90,1
13158,97,0,569.086,0,0,1,0.25,2,9,0.0,0.0,6,45.0,30.0,9,0.601,1.0,569.332,0.145,1,2020-03-02 08:47:54.000,214,2020-03-02 08:57:23.086,0.25,-90,0,0,-90,1
13159,98,0,574.501,0,0,1,0.25,2,9,0.0,0.0,6,45.0,30.0,9,0.7509999999999999,0.0,574.814,0.0,0,2020-03-02 08:47:54.000,214,2020-03-02 08:57:28.501,0.25,90,0,0,90,1
13160,100,0,589.991,1,0,1,0.25,2,3,0.0,0.0,12,45.0,30.0,3,0.638,0.0,590.479,0.155,1,2020-03-02 08:47:54.000,214,2020-03-02 08:57:43.991,0.25,90,-180,-180,90,1
13161,101,0,593.754,0,0,1,0.25,2,9,0.0,0.0,6,45.0,30.0,9,0.601,1.0,593.951,0.145,1,2020-03-02 08:47:54.000,214,2020-03-02 08:57:47.754,0.25,-90,0,0,-90,1
13162,102,0,599.886,0,0,1,0.25,2,9,0.0,0.0,6,45.0,30.0,9,0.638,1.0,600.138,0.145,1,2020-03-02 08:47:54.000,214,2020-03-02 08:57:53.886,0.25,-90,0,0,-90,1
13163,103,0,605.315,0,0,1,0.25,2,3,0.0,0.0,12,45.0,30.0,3,0.7509999999999999,1.0,605.755,0.0,0,2020-03-02 08:47:54.000,214,2020-03-02 08:57:59.315,0.25,-90,-180,-180,-90,1
13164,105,0,629.09,0,0,1,0.25,2,9,0.0,0.0,6,45.0,30.0,9,0.7140000000000001,1.0,629.668,0.145,1,2020-03-02 08:47:54.000,214,2020-03-02 08:58:23.090,0.25,-90,0,0,-90,1
13649,143,0,802.762,0,30,1,0.25,2,3,0.0,0.0,11,45.0,30.0,3,0.501,1.0,803.3639999999998,0.0,0,2020-03-04 07:38:18.000,149,2020-03-04 07:51:40.762,0.25,-90,-150,-180,-120,1
13651,146,0,818.295,0,30,1,0.25,2,9,0.0,0.0,5,45.0,30.0,9,0.6509999999999999,1.0,818.577,0.145,1,2020-03-04 07:38:18.000,149,2020-03-04 07:51:56.295,0.25,-90,30,0,-120,1
13652,147,0,821.765,1,30,1,0.25,2,3,0.0,0.0,11,45.0,30.0,3,0.5760000000000001,0.0,824.5939999999998,0.155,1,2020-03-04 07:38:18.000,149,2020-03-04 07:51:59.765,0.25,90,-150,-180,60,1
13653,148,0,827.645,0,30,1,0.25,2,3,0.0,0.0,11,45.0,30.0,3,0.501,1.0,828.6519999999998,0.0,0,2020-03-04 07:38:18.000,149,2020-03-04 07:52:05.645,0.25,-90,-150,-180,-120,1
13654,151,0,846.012,0,30,1,0.25,2,9,0.0,0.0,5,45.0,30.0,9,0.5760000000000001,1.0,846.41,0.145,1,2020-03-04 07:38:18.000,149,2020-03-04 07:52:24.012,0.25,-90,30,0,-120,1
13655,152,0,849.342,0,30,1,0.25,2,3,0.0,0.0,11,45.0,30.0,3,0.501,1.0,850.06,0.0,0,2020-03-04 07:38:18.000,149,2020-03-04 07:52:27.342,0.25,-90,-150,-180,-120,1
13656,154,0,859.9889999999998,0,30,1,0.25,2,9,0.0,0.0,5,45.0,30.0,9,0.614,1.0,860.288,0.145,1,2020-03-04 07:38:18.000,149,2020-03-04 07:52:37.989,0.25,-90,30,0,-120,1
13657,155,0,866.194,1,30,1,0.25,2,3,0.0,0.0,11,45.0,30.0,3,0.6509999999999999,1.0,866.4989999999998,0.0,0,2020-03-04 07:38:18.000,149,2020-03-04 07:52:44.194,0.25,-90,-150,-180,-120,1
13658,158,0,884.345,0,30,1,0.25,2,3,0.0,0.0,11,45.0,30.0,3,0.501,0.0,884.878,0.155,1,2020-03-04 07:38:18.000,149,2020-03-04 07:53:02.345,0.25,90,-150,-180,60,1
13660,160,0,894.337,0,30,1,0.25,2,3,0.0,0.0,11,45.0,30.0,3,0.6509999999999999,1.0,895.1110000000001,0.0,0,2020-03-04 07:38:18.000,149,2020-03-04 07:53:12.337,0.25,-90,-150,-180,-120,1
13775,134,0,754.5939999999998,0,-60,1,0.25,2,3,0.0,0.0,2,45.0,30.0,3,0.5760000000000001,0.0,755.0189999999999,0.155,1,2020-03-04 14:23:01.000,32,2020-03-04 14:35:35.594,0.25,90,120,-180,150,1
13776,135,0,758.512,0,-60,1,0.25,2,9,0.0,0.0,8,45.0,30.0,9,0.6509999999999999,1.0,758.931,0.145,1,2020-03-04 14:23:01.000,32,2020-03-04 14:35:39.512,0.25,-90,-60,0,-30,1
13777,136,0,763.095,0,-60,1,0.25,2,3,0.0,0.0,2,45.0,30.0,3,0.5760000000000001,0.0,763.6489999999999,0.155,1,2020-03-04 14:23:01.000,32,2020-03-04 14:35:44.095,0.25,90,120,-180,150,1
13778,137,0,768.1519999999998,0,-60,1,0.25,2,9,0.0,0.0,8,45.0,30.0,9,0.5379999999999999,1.0,768.607,0.145,1,2020-03-04 14:23:01.000,32,2020-03-04 14:35:49.152,0.25,-90,-60,0,-30,1
13779,138,0,771.956,1,-60,1,0.25,2,9,0.0,0.0,8,45.0,30.0,9,0.614,1.0,774.247,0.145,1,2020-03-04 14:23:01.000,32,2020-03-04 14:35:52.956,0.25,-90,-60,0,-30,1
13780,139,0,778.159,0,-60,1,0.25,2,9,0.0,0.0,8,45.0,30.0,9,0.6509999999999999,1.0,778.817,0.145,1,2020-03-04 14:23:01.000,32,2020-03-04 14:35:59.159,0.25,-90,-60,0,-30,1
13781,140,0,782.075,0,-60,1,0.25,2,9,0.0,0.0,8,45.0,30.0,9,0.501,0.0,782.821,0.0,0,2020-03-04 14:23:01.000,32,2020-03-04 14:36:03.075,0.25,90,-60,0,150,1
13782,142,0,794.742,0,-60,1,0.25,2,9,0.0,0.0,8,45.0,30.0,9,0.614,1.0,795.28,0.145,1,2020-03-04 14:23:01.000,32,2020-03-04 14:36:15.742,0.25,-90,-60,0,-30,1
13783,143,0,798.547,0,-60,1,0.25,2,9,0.0,0.0,8,45.0,30.0,9,0.6509999999999999,1.0,798.9760000000001,0.145,1,2020-03-04 14:23:01.000,32,2020-03-04 14:36:19.547,0.25,-90,-60,0,-30,1
13784,144,0,801.63,0,-60,1,0.25,2,3,0.0,0.0,2,45.0,30.0,3,0.5379999999999999,1.0,802.41,0.0,0,2020-03-04 14:23:01.000,32,2020-03-04 14:36:22.630,0.25,-90,120,-180,-30,1
13898,153,0,848.3,0,-120,1,0.25,2,9,0.0,0.0,10,45.0,30.0,9,0.5760000000000001,1.0,848.686,0.15,1,2020-03-05 09:12:40.000,47,2020-03-05 09:26:48.300,0.25,-90,-120,0,30,1
13899,154,0,851.888,0,-120,1,0.25,2,3,0.0,0.0,4,45.0,30.0,3,0.614,1.0,852.158,0.0,0,2020-03-05 09:12:40.000,47,2020-03-05 09:26:51.888,0.25,-90,60,-180,30,1
13900,156,0,865.043,0,-120,1,0.25,2,3,0.0,0.0,4,45.0,30.0,3,0.6509999999999999,0.0,865.485,0.15,1,2020-03-05 09:12:40.000,47,2020-03-05 09:27:05.043,0.25,90,60,-180,-150,1
13901,157,0,869.0269999999998,0,-120,1,0.25,2,9,0.0,0.0,10,45.0,30.0,9,0.501,0.0,869.4010000000002,0.0,0,2020-03-05 09:12:40.000,47,2020-03-05 09:27:09.027,0.25,90,-120,0,-150,1
13903,162,0,899.5310000000002,0,-120,1,0.25,2,3,0.0,0.0,4,45.0,30.0,3,0.501,1.0,899.91,0.0,0,2020-03-05 09:12:40.000,47,2020-03-05 09:27:39.531,0.25,-90,60,-180,30,1
13904,164,0,911.088,0,-120,1,0.25,2,3,0.0,0.0,4,45.0,30.0,3,0.5760000000000001,0.0,911.409,0.15,1,2020-03-05 09:12:40.000,47,2020-03-05 09:27:51.088,0.25,90,60,-180,-150,1
13905,165,0,914.558,0,-120,1,0.25,2,9,0.0,0.0,10,45.0,30.0,9,0.6509999999999999,0.0,915.482,0.0,0,2020-03-05 09:12:40.000,47,2020-03-05 09:27:54.558,0.25,90,-120,0,-150,1
13906,167,0,923.522,0,-120,1,0.25,2,3,0.0,0.0,4,45.0,30.0,3,0.614,0.0,923.906,0.15,1,2020-03-05 09:12:40.000,47,2020-03-05 09:28:03.522,0.25,90,60,-180,-150,1
13907,168,0,926.86,0,-120,1,0.25,2,9,0.0,0.0,10,45.0,30.0,9,0.5760000000000001,0.0,927.718,0.0,0,2020-03-05 09:12:40.000,47,2020-03-05 09:28:06.860,0.25,90,-120,0,-150,1
13908,170,0,934.535,0,-120,1,0.25,2,3,0.0,0.0,4,45.0,30.0,3,0.6509999999999999,1.0,935.069,0.0,0,2020-03-05 09:12:40.000,47,2020-03-05 09:28:14.535,0.25,-90,60,-180,30,1
13999,125,0,825.173,0,90,1,0.25,2,9,0.0,0.0,3,45.0,30.0,9,0.6509999999999999,1.0,825.548,0.145,1,2020-03-05 15:32:28.000,148,2020-03-05 15:46:13.173,0.25,-90,90,0,-180,1
14000,126,0,828.813,0,90,1,0.25,2,3,0.0,0.0,9,45.0,30.0,3,0.614,1.0,829.518,0.0,0,2020-03-05 15:32:28.000,148,2020-03-05 15:46:16.813,0.25,-90,-90,-180,-180,1
14001,128,0,856.78,1,90,1,0.25,2,9,0.0,0.0,3,45.0,30.0,9,0.6509999999999999,1.0,857.243,0.145,1,2020-03-05 15:32:28.000,148,2020-03-05 15:46:44.780,0.25,-90,90,0,-180,1
14002,129,0,860.5239999999999,0,90,1,0.25,2,3,0.0,0.0,9,45.0,30.0,3,0.5379999999999999,0.0,861.8560000000001,0.155,1,2020-03-05 15:32:28.000,148,2020-03-05 15:46:48.524,0.25,90,-90,-180,0,1
14003,130,0,868.165,0,90,1,0.25,2,3,0.0,0.0,9,45.0,30.0,3,0.5760000000000001,0.0,869.293,0.155,1,2020-03-05 15:32:28.000,148,2020-03-05 15:46:56.165,0.25,90,-90,-180,0,1
14004,131,0,872.8960000000002,0,90,1,0.25,2,3,0.0,0.0,9,45.0,30.0,3,0.5760000000000001,0.0,873.404,0.155,1,2020-03-05 15:32:28.000,148,2020-03-05 15:47:00.896,0.25,90,-90,-180,0,1
14005,132,0,876.293,0,90,1,0.25,2,9,0.0,0.0,3,45.0,30.0,9,0.501,0.0,877.317,0.0,0,2020-03-05 15:32:28.000,148,2020-03-05 15:47:04.293,0.25,90,90,0,0,1
14006,135,0,908.313,0,90,1,0.25,2,9,0.0,0.0,3,45.0,30.0,9,0.614,1.0,908.696,0.145,1,2020-03-05 15:32:28.000,148,2020-03-05 15:47:36.313,0.25,-90,90,0,-180,1
14008,137,0,917.768,0,90,1,0.25,2,9,0.0,0.0,3,45.0,30.0,9,0.6509999999999999,1.0,918.082,0.145,1,2020-03-05 15:32:28.000,148,2020-03-05 15:47:45.768,0.25,-90,90,0,-180,1
14009,138,0,921.063,0,90,1,0.25,2,9,0.0,0.0,3,45.0,30.0,9,0.5760000000000001,0.0,921.864,0.0,0,2020-03-05 15:32:28.000,148,2020-03-05 15:47:49.063,0.25,90,90,0,0,1
14079,94,0,512.692,0,150,1,0.25,2,3,0.0,0.0,7,45.0,30.0,3,0.5379999999999999,0.0,513.221,0.155,1,2020-03-06 09:01:50.000,141,2020-03-06 09:10:22.692,0.25,90,-30,-180,-60,1
14080,95,0,516.111,0,150,1,0.25,2,3,0.0,0.0,7,45.0,30.0,3,0.5760000000000001,0.0,516.809,0.155,1,2020-03-06 09:01:50.000,141,2020-03-06 09:10:26.111,0.25,90,-30,-180,-60,1
14081,96,0,520.69,0,150,1,0.25,2,3,0.0,0.0,7,45.0,30.0,3,0.5379999999999999,0.0,521.846,0.155,1,2020-03-06 09:01:50.000,141,2020-03-06 09:10:30.690,0.25,90,-30,-180,-60,1
14082,97,0,524.946,0,150,1,0.25,2,3,0.0,0.0,7,45.0,30.0,3,0.6509999999999999,1.0,525.424,0.0,0,2020-03-06 09:01:50.000,141,2020-03-06 09:10:34.946,0.25,-90,-30,-180,120,1
14083,99,0,535.471,0,150,1,0.25,2,3,0.0,0.0,7,45.0,30.0,3,0.614,1.0,537.303,0.0,0,2020-03-06 09:01:50.000,141,2020-03-06 09:10:45.471,0.25,-90,-30,-180,120,1
14084,101,0,546.679,0,150,1,0.25,2,9,0.0,0.0,1,45.0,30.0,9,0.614,1.0,547.21,0.14,1,2020-03-06 09:01:50.000,141,2020-03-06 09:10:56.679,0.25,-90,150,0,120,1
14085,102,0,549.744,0,150,1,0.25,2,3,0.0,0.0,7,45.0,30.0,3,0.5379999999999999,0.0,550.575,0.16,1,2020-03-06 09:01:50.000,141,2020-03-06 09:10:59.744,0.25,90,-30,-180,-60,1
14086,103,0,553.043,0,150,1,0.25,2,9,0.0,0.0,1,45.0,30.0,9,0.5760000000000001,1.0,553.39,0.14,1,2020-03-06 09:01:50.000,141,2020-03-06 09:11:03.043,0.25,-90,150,0,120,1
14087,104,0,558.575,0,150,1,0.25,2,9,0.0,0.0,1,45.0,30.0,9,0.6509999999999999,1.0,559.094,0.14,1,2020-03-06 09:01:50.000,141,2020-03-06 09:11:08.575,0.25,-90,150,0,120,1
14088,105,0,561.3530000000002,0,150,1,0.25,2,3,0.0,0.0,7,45.0,30.0,3,0.501,1.0,562.183,0.0,0,2020-03-06 09:01:50.000,141,2020-03-06 09:11:11.353,0.25,-90,-30,-180,120,1
14208,145,0,873.123,0,-60,1,0.25,2,3,0.0,0.0,2,45.0,30.0,3,0.501,0.0,874.9689999999998,0.155,1,2020-03-06 14:54:16.000,210,2020-03-06 15:08:49.123,0.25,90,120,-180,150,1
14209,146,0,878.488,0,-60,1,0.25,2,9,0.0,0.0,8,45.0,30.0,9,0.6509999999999999,1.0,879.047,0.145,1,2020-03-06 14:54:16.000,210,2020-03-06 15:08:54.488,0.25,-90,-60,0,-30,1
14210,147,0,884.628,0,-60,1,0.25,2,3,0.0,0.0,2,45.0,30.0,3,0.501,0.0,885.336,0.155,1,2020-03-06 14:54:16.000,210,2020-03-06 15:09:00.628,0.25,90,120,-180,150,1
14211,148,0,888.2260000000001,0,-60,1,0.25,2,3,0.0,0.0,2,45.0,30.0,3,0.614,0.0,888.938,0.155,1,2020-03-06 14:54:16.000,210,2020-03-06 15:09:04.226,0.25,90,120,-180,150,1
14212,149,0,892.502,0,-60,1,0.25,2,9,0.0,0.0,8,45.0,30.0,9,0.5760000000000001,1.0,892.808,0.145,1,2020-03-06 14:54:16.000,210,2020-03-06 15:09:08.502,0.25,-90,-60,0,-30,1
14213,150,0,895.8580000000002,0,-60,1,0.25,2,3,0.0,0.0,2,45.0,30.0,3,0.5379999999999999,0.0,896.4789999999998,0.155,1,2020-03-06 14:54:16.000,210,2020-03-06 15:09:11.858,0.25,90,120,-180,150,1
14214,151,0,912.928,0,-60,1,0.25,2,3,0.0,0.0,2,45.0,30.0,3,0.6509999999999999,0.0,914.027,0.155,1,2020-03-06 14:54:16.000,210,2020-03-06 15:09:28.928,0.25,90,120,-180,150,1
14215,152,0,923.363,0,-60,1,0.25,2,3,0.0,0.0,2,45.0,30.0,3,0.614,0.0,923.712,0.155,1,2020-03-06 14:54:16.000,210,2020-03-06 15:09:39.363,0.25,90,120,-180,150,1
14216,153,0,929.606,0,-60,1,0.25,2,9,0.0,0.0,8,45.0,30.0,9,0.5760000000000001,1.0,930.042,0.145,1,2020-03-06 14:54:16.000,210,2020-03-06 15:09:45.606,0.25,-90,-60,0,-30,1
14217,154,0,1032.751,0,-60,1,0.25,2,9,0.0,0.0,8,45.0,30.0,9,0.5379999999999999,0.0,1033.162,0.0,0,2020-03-06 14:54:16.000,210,2020-03-06 15:11:28.751,0.25,90,-60,0,150,1
14361,168,0,904.639,0,0,1,0.25,2,3,0.0,0.0,12,45.0,30.0,3,0.614,0.0,904.914,0.155,1,2020-03-16 09:00:48.000,155,2020-03-16 09:15:52.639,0.25,90,-180,-180,90,1
14362,169,0,912.019,0,0,1,0.25,2,3,0.0,0.0,12,45.0,30.0,3,0.5379999999999999,0.0,913.256,0.155,1,2020-03-16 09:00:48.000,155,2020-03-16 09:16:00.019,0.25,90,-180,-180,90,1
14363,170,0,916.823,0,0,1,0.25,2,3,0.0,0.0,12,45.0,30.0,3,0.5760000000000001,0.0,917.385,0.155,1,2020-03-16 09:00:48.000,155,2020-03-16 09:16:04.823,0.25,90,-180,-180,90,1
14364,171,0,924.182,0,0,1,0.25,2,9,0.0,0.0,6,45.0,30.0,9,0.5379999999999999,1.0,924.848,0.145,1,2020-03-16 09:00:48.000,155,2020-03-16 09:16:12.182,0.25,-90,0,0,-90,1
14365,172,0,927.284,0,0,1,0.25,2,9,0.0,0.0,6,45.0,30.0,9,0.501,1.0,927.608,0.145,1,2020-03-16 09:00:48.000,155,2020-03-16 09:16:15.284,0.25,-90,0,0,-90,1
14366,173,0,930.437,0,0,1,0.25,2,3,0.0,0.0,12,45.0,30.0,3,0.5760000000000001,1.0,931.316,0.0,0,2020-03-16 09:00:48.000,155,2020-03-16 09:16:18.437,0.25,-90,-180,-180,-90,1
14367,175,0,943.823,0,0,1,0.25,2,9,0.0,0.0,6,45.0,30.0,9,0.6509999999999999,1.0,944.486,0.145,1,2020-03-16 09:00:48.000,155,2020-03-16 09:16:31.823,0.25,-90,0,0,-90,1
14368,176,0,947.002,0,0,1,0.25,2,9,0.0,0.0,6,45.0,30.0,9,0.614,1.0,947.342,0.145,1,2020-03-16 09:00:48.000,155,2020-03-16 09:16:35.002,0.25,-90,0,0,-90,1
14369,177,0,950.071,0,0,1,0.25,2,3,0.0,0.0,12,45.0,30.0,3,0.501,1.0,950.653,0.0,0,2020-03-16 09:00:48.000,155,2020-03-16 09:16:38.071,0.25,-90,-180,-180,-90,1
14370,179,0,959.167,0,0,1,0.25,2,9,0.0,0.0,6,45.0,30.0,9,0.5760000000000001,0.0,960.601,0.0,0,2020-03-16 09:00:48.000,155,2020-03-16 09:16:47.167,0.25,90,0,0,90,1
14460,102,0,557.175,0,60,1,0.25,2,3,0.0,0.0,10,45.0,30.0,3,0.614,0.0,559.925,0.155,1,2020-03-16 14:56:39.000,240,2020-03-16 15:05:56.175,0.25,90,-120,-180,30,1
14463,105,0,575.4169999999998,0,60,1,0.25,2,9,0.0,0.0,4,45.0,30.0,9,0.501,0.0,576.4169999999998,0.0,0,2020-03-16 14:56:39.000,240,2020-03-16 15:06:14.417,0.25,90,60,0,30,1
14464,108,0,590.9580000000002,0,60,1,0.25,2,3,0.0,0.0,10,45.0,30.0,3,0.5379999999999999,0.0,591.352,0.155,1,2020-03-16 14:56:39.000,240,2020-03-16 15:06:29.958,0.25,90,-120,-180,30,1
14465,109,0,596.4490000000002,0,60,1,0.25,2,3,0.0,0.0,10,45.0,30.0,3,0.6509999999999999,0.0,597.2669999999998,0.155,1,2020-03-16 14:56:39.000,240,2020-03-16 15:06:35.449,0.25,90,-120,-180,30,1
14466,110,0,602.797,0,60,1,0.25,2,3,0.0,0.0,10,45.0,30.0,3,0.501,1.0,603.237,0.0,0,2020-03-16 14:56:39.000,240,2020-03-16 15:06:41.797,0.25,-90,-120,-180,-150,1
14467,112,0,613.224,0,60,1,0.25,2,9,0.0,0.0,4,45.0,30.0,9,0.501,1.0,613.5169999999998,0.145,1,2020-03-16 14:56:39.000,240,2020-03-16 15:06:52.224,0.25,-90,60,0,-150,1
14468,113,0,616.4580000000002,0,60,1,0.25,2,3,0.0,0.0,10,45.0,30.0,3,0.5379999999999999,0.0,617.132,0.155,1,2020-03-16 14:56:39.000,240,2020-03-16 15:06:55.458,0.25,90,-120,-180,30,1
14469,114,0,620.446,0,60,1,0.25,2,3,0.0,0.0,10,45.0,30.0,3,0.614,0.0,621.234,0.155,1,2020-03-16 14:56:39.000,240,2020-03-16 15:06:59.446,0.25,90,-120,-180,30,1
14470,115,0,624.019,0,60,1,0.25,2,9,0.0,0.0,4,45.0,30.0,9,0.6509999999999999,1.0,624.197,0.145,1,2020-03-16 14:56:39.000,240,2020-03-16 15:07:03.019,0.25,-90,60,0,-150,1
14471,116,0,627.2909999999998,0,60,1,0.25,2,3,0.0,0.0,10,45.0,30.0,3,0.501,1.0,627.759,0.0,0,2020-03-16 14:56:39.000,240,2020-03-16 15:07:06.291,0.25,-90,-120,-180,-150,1
14585,145,0,1009.049,0,-60,1,0.25,2,3,0.0,0.0,2,45.0,30.0,3,0.5760000000000001,0.0,1009.384,0.155,1,2020-03-17 09:05:15.000,120,2020-03-17 09:22:04.049,0.25,90,120,-180,150,1
14586,146,0,1012.14,0,-60,1,0.25,2,9,0.0,0.0,8,45.0,30.0,9,0.5760000000000001,0.0,1012.593,0.0,0,2020-03-17 09:05:15.000,120,2020-03-17 09:22:07.140,0.25,90,-60,0,150,1
14587,148,0,1020.714,0,-60,1,0.25,2,9,0.0,0.0,8,45.0,30.0,9,0.5379999999999999,1.0,1021.144,0.145,1,2020-03-17 09:05:15.000,120,2020-03-17 09:22:15.714,0.25,-90,-60,0,-30,1
14589,150,0,1029.215,0,-60,1,0.25,2,3,0.0,0.0,2,45.0,30.0,3,0.6509999999999999,0.0,1029.873,0.155,1,2020-03-17 09:05:15.000,120,2020-03-17 09:22:24.215,0.25,90,120,-180,150,1
14590,151,0,1032.8339999999996,0,-60,1,0.25,2,9,0.0,0.0,8,45.0,30.0,9,0.5760000000000001,0.0,1033.706,0.0,0,2020-03-17 09:05:15.000,120,2020-03-17 09:22:27.834,0.25,90,-60,0,150,1
14591,153,0,1053.533,0,-60,1,0.25,2,3,0.0,0.0,2,45.0,30.0,3,0.5379999999999999,1.0,1053.981,0.0,0,2020-03-17 09:05:15.000,120,2020-03-17 09:22:48.533,0.25,-90,120,-180,-30,1
14592,155,0,1113.729,0,-60,1,0.25,2,3,0.0,0.0,2,45.0,30.0,3,0.6509999999999999,1.0,1114.203,0.0,0,2020-03-17 09:05:15.000,120,2020-03-17 09:23:48.729,0.25,-90,120,-180,-30,1
14593,157,0,1123.21,0,-60,1,0.25,2,3,0.0,0.0,2,45.0,30.0,3,0.5760000000000001,0.0,1123.902,0.155,1,2020-03-17 09:05:15.000,120,2020-03-17 09:23:58.210,0.25,90,120,-180,150,1
14594,158,0,1126.604,0,-60,1,0.25,2,9,0.0,0.0,8,45.0,30.0,9,0.5379999999999999,0.0,1127.396,0.0,0,2020-03-17 09:05:15.000,120,2020-03-17 09:24:01.604,0.25,90,-60,0,150,1
14595,160,0,1163.098,0,-60,1,0.25,2,9,0.0,0.0,8,45.0,30.0,9,0.501,1.0,1163.49,0.145,1,2020-03-17 09:05:15.000,120,2020-03-17 09:24:38.098,0.25,-90,-60,0,-30,1
14888,176,0,1102.351,0,120,1,0.25,2,3,0.0,0.0,8,45.0,30.0,3,0.6509999999999999,0.0,1103.072,0.155,1,2020-03-18 14:41:41.000,216,2020-03-18 15:00:03.351,0.25,90,-60,-180,-30,1
14890,178,0,1109.017,0,120,1,0.25,2,9,0.0,0.0,2,45.0,30.0,9,0.501,1.0,1110.447,0.145,1,2020-03-18 14:41:41.000,216,2020-03-18 15:00:10.017,0.25,-90,120,0,150,1
14891,179,0,1113.047,0,120,1,0.25,2,9,0.0,0.0,2,45.0,30.0,9,0.5379999999999999,1.0,1113.608,0.145,1,2020-03-18 14:41:41.000,216,2020-03-18 15:00:14.047,0.25,-90,120,0,150,1
