,Trial,CorrectionTrial,StartTime,CenterReward,CenterSpoutRotation,nStimReps,Duration,Modality,LED Location,LED_trial_V,LED_bgnd_V,Speaker Location,Speaker_trial_V,Speaker_bgnd_V,TargetSpout,HoldTime,Response,RespTime,ValveTime,Correct,SessionDate,SessionID,StartDateTime,StimulusTotalDuration,response_angle_world,speaker_angle_world,speaker_angle_platform,response_angle_platform,not_probe
248,1,0,50.662,0,180,1,0.25,2,3,0.0,0.0,5,48.0,30.0,3,0.501,0.0,0.0,0.12,1,2020-03-20 10:30:01.000,44,2020-03-20 10:30:51.662,0.25,90,30,-150,-90,1
249,2,0,64.824,1,180,1,0.25,2,9,0.0,0.0,11,48.0,30.0,9,0.551,1.0,74.52600000000002,0.19,1,2020-03-20 10:30:01.000,44,2020-03-20 10:31:05.824,0.25,-90,-150,30,90,1
250,3,0,95.674,1,180,1,0.25,2,3,0.0,0.0,5,48.0,30.0,3,0.526,0.0,0.0,0.12,1,2020-03-20 10:30:01.000,44,2020-03-20 10:31:36.674,0.25,90,30,-150,-90,1
251,4,0,119.332,0,180,1,0.25,2,9,0.0,0.0,11,48.0,30.0,9,0.451,0.0,0.0,0.0,0,2020-03-20 10:30:01.000,44,2020-03-20 10:32:00.332,0.25,90,-150,30,-90,1
252,7,0,166.071,0,180,1,0.25,2,9,0.0,0.0,11,48.0,30.0,9,0.476,1.0,167.72099999999998,0.19,1,2020-03-20 10:30:01.000,44,2020-03-20 10:32:47.071,0.25,-90,-150,30,90,1
253,8,0,189.212,0,180,1,0.25,2,3,0.0,0.0,5,48.0,30.0,3,0.551,0.0,0.0,0.12,1,2020-03-20 10:30:01.000,44,2020-03-20 10:33:10.212,0.25,90,30,-150,-90,1
254,9,0,196.791,0,180,1,0.25,2,3,0.0,0.0,5,48.0,30.0,3,0.501,0.0,0.0,0.12,1,2020-03-20 10:30:01.000,44,2020-03-20 10:33:17.791,0.25,90,30,-150,-90,1
255,10,0,204.944,0,180,1,0.25,2,3,0.0,0.0,5,48.0,30.0,3,0.476,0.0,0.0,0.12,1,2020-03-20 10:30:01.000,44,2020-03-20 10:33:25.944,0.25,90,30,-150,-90,1
256,11,0,226.521,0,180,1,0.25,2,9,0.0,0.0,11,48.0,30.0,9,0.526,1.0,228.248,0.19,1,2020-03-20 10:30:01.000,44,2020-03-20 10:33:47.521,0.25,-90,-150,30,90,1
257,12,0,248.859,0,180,1,0.25,2,9,0.0,0.0,11,48.0,30.0,9,0.451,1.0,250.181,0.19,1,2020-03-20 10:30:01.000,44,2020-03-20 10:34:09.859,0.25,-90,-150,30,90,1
377,1,0,20.424,0,0,1,0.25,2,3,0.0,0.0,5,48.0,30.0,3,0.451,1.0,28.576,0.0,0,2020-03-20 15:30:39.000,94,2020-03-20 15:30:59.424,0.25,-90,30,30,-90,1
378,4,0,64.35600000000001,0,0,1,0.25,2,3,0.0,0.0,5,48.0,30.0,3,0.501,0.0,0.0,0.12,1,2020-03-20 15:30:39.000,94,2020-03-20 15:31:43.356,0.25,90,30,30,90,1
379,5,0,75.08,0,0,1,0.25,2,9,0.0,0.0,11,48.0,30.0,9,0.526,1.0,77.399,0.19,1,2020-03-20 15:30:39.000,94,2020-03-20 15:31:54.080,0.25,-90,-150,-150,-90,1
380,6,0,93.079,0,0,1,0.25,2,3,0.0,0.0,5,48.0,30.0,3,0.476,0.0,0.0,0.12,1,2020-03-20 15:30:39.000,94,2020-03-20 15:32:12.079,0.25,90,30,30,90,1
381,7,0,104.482,0,0,1,0.25,2,9,0.0,0.0,11,48.0,30.0,9,0.551,0.0,0.0,0.0,0,2020-03-20 15:30:39.000,94,2020-03-20 15:32:23.482,0.25,90,-150,-150,90,1
382,9,0,151.278,0,0,1,0.25,2,3,0.0,0.0,5,48.0,30.0,3,0.451,0.0,0.0,0.12,1,2020-03-20 15:30:39.000,94,2020-03-20 15:33:10.278,0.25,90,30,30,90,1
383,10,0,161.392,0,0,1,0.25,2,9,0.0,0.0,11,48.0,30.0,9,0.476,0.0,0.0,0.0,0,2020-03-20 15:30:39.000,94,2020-03-20 15:33:20.392,0.25,90,-150,-150,90,1
384,12,0,189.466,0,0,1,0.25,2,3,0.0,0.0,5,48.0,30.0,3,0.551,0.0,0.0,0.12,1,2020-03-20 15:30:39.000,94,2020-03-20 15:33:48.466,0.25,90,30,30,90,1
385,13,0,201.817,0,0,1,0.25,2,3,0.0,0.0,5,48.0,30.0,3,0.501,1.0,204.292,0.0,0,2020-03-20 15:30:39.000,94,2020-03-20 15:34:00.817,0.25,-90,30,30,-90,1
386,16,0,228.701,0,0,1,0.25,2,3,0.0,0.0,5,48.0,30.0,3,0.526,0.0,0.0,0.12,1,2020-03-20 15:30:39.000,94,2020-03-20 15:34:27.701,0.25,90,30,30,90,1
1111,1,0,39.23,0,-60,1,0.25,2,9,0.0,0.0,11,48.0,30.0,9,0.526,1.0,40.838,0.19,1,2020-06-02 17:29:40.000,67,2020-06-02 17:30:19.230,0.25,-90,-150,-90,-30,1
1112,2,0,54.234,0,-60,1,0.25,2,9,0.0,0.0,11,48.0,30.0,9,0.476,1.0,56.026,0.19,1,2020-06-02 17:29:40.000,67,2020-06-02 17:30:34.234,0.25,-90,-150,-90,-30,1
1113,3,0,73.317,0,-60,1,0.25,2,9,0.0,0.0,11,48.0,30.0,9,0.451,1.0,79.312,0.19,1,2020-06-02 17:29:40.000,67,2020-06-02 17:30:53.317,0.25,-90,-150,-90,-30,1
1114,4,0,99.583,0,-60,1,0.25,2,9,0.0,0.0,11,48.0,30.0,9,0.501,0.0,0.0,0.0,0,2020-06-02 17:29:40.000,67,2020-06-02 17:31:19.583,0.25,90,-150,-90,150,1
1115,6,0,127.066,0,-60,1,0.25,2,3,0.0,0.0,5,48.0,30.0,3,0.551,0.0,0.0,0.12,1,2020-06-02 17:29:40.000,67,2020-06-02 17:31:47.066,0.25,90,30,90,150,1
1116,7,0,135.142,0,-60,1,0.25,2,9,0.0,0.0,11,48.0,30.0,9,0.501,0.0,0.0,0.0,0,2020-06-02 17:29:40.000,67,2020-06-02 17:31:55.142,0.25,90,-150,-90,150,1
1117,9,0,173.63099999999997,0,-60,1,0.25,2,9,0.0,0.0,11,48.0,30.0,9,0.451,0.0,0.0,0.0,0,2020-06-02 17:29:40.000,67,2020-06-02 17:32:33.631,0.25,90,-150,-90,150,1
1118,11,0,202.853,0,-60,1,0.25,2,3,0.0,0.0,5,48.0,30.0,3,0.476,1.0,215.21,0.0,0,2020-06-02 17:29:40.000,67,2020-06-02 17:33:02.853,0.25,-90,30,90,-30,1
1119,13,0,226.928,0,-60,1,0.25,2,9,0.0,0.0,11,48.0,30.0,9,0.551,1.0,228.538,0.19,1,2020-06-02 17:29:40.000,67,2020-06-02 17:33:26.928,0.25,-90,-150,-90,-30,1
1120,14,0,249.882,0,-60,1,0.25,2,9,0.0,0.0,11,48.0,30.0,9,0.526,1.0,251.877,0.19,1,2020-06-02 17:29:40.000,67,2020-06-02 17:33:49.882,0.25,-90,-150,-90,-30,1
1147,1,0,40.856,0,0,1,0.25,2,9,0.0,0.0,11,48.0,30.0,9,0.451,0.0,0.0,0.0,0,2020-06-03 12:14:52.000,65,2020-06-03 12:15:32.856,0.25,90,-150,-150,90,1
1148,3,0,77.07300000000002,1,0,1,0.25,2,9,0.0,0.0,11,48.0,30.0,9,0.551,1.0,82.99600000000002,0.19,1,2020-06-03 12:14:52.000,65,2020-06-03 12:16:09.073,0.25,-90,-150,-150,-90,1
1149,4,0,105.005,0,0,1,0.25,2,3,0.0,0.0,5,48.0,30.0,3,0.501,0.0,0.0,0.12,1,2020-06-03 12:14:52.000,65,2020-06-03 12:16:37.005,0.25,90,30,30,90,1
1150,5,0,113.918,0,0,1,0.25,2,3,0.0,0.0,5,48.0,30.0,3,0.476,0.0,0.0,0.12,1,2020-06-03 12:14:52.000,65,2020-06-03 12:16:45.918,0.25,90,30,30,90,1
1151,6,0,130.438,0,0,1,0.25,2,3,0.0,0.0,5,48.0,30.0,3,0.526,1.0,134.667,0.0,0,2020-06-03 12:14:52.000,65,2020-06-03 12:17:02.438,0.25,-90,30,30,-90,1
1152,8,0,155.877,0,0,1,0.25,2,9,0.0,0.0,11,48.0,30.0,9,0.501,1.0,158.165,0.19,1,2020-06-03 12:14:52.000,65,2020-06-03 12:17:27.877,0.25,-90,-150,-150,-90,1
1153,9,0,179.667,0,0,1,0.25,2,9,0.0,0.0,11,48.0,30.0,9,0.476,1.0,182.203,0.19,1,2020-06-03 12:14:52.000,65,2020-06-03 12:17:51.667,0.25,-90,-150,-150,-90,1
1154,10,0,215.493,0,0,1,0.25,2,9,0.0,0.0,11,48.0,30.0,9,0.551,0.0,0.0,0.0,0,2020-06-03 12:14:52.000,65,2020-06-03 12:18:27.493,0.25,90,-150,-150,90,1
1155,13,0,253.164,0,0,1,0.25,2,3,0.0,0.0,5,48.0,30.0,3,0.526,0.0,0.0,0.12,1,2020-06-03 12:14:52.000,65,2020-06-03 12:19:05.164,0.25,90,30,30,90,1
1156,14,0,261.296,0,0,1,0.25,2,9,0.0,0.0,11,48.0,30.0,9,0.451,0.0,0.0,0.0,0,2020-06-03 12:14:52.000,65,2020-06-03 12:19:13.296,0.25,90,-150,-150,90,1
1224,1,0,25.337,0,90,1,0.25,2,9,0.0,0.0,11,48.0,30.0,9,0.501,1.0,28.559,0.19,1,2020-06-03 17:25:41.000,25,2020-06-03 17:26:06.337,0.25,-90,-150,120,-180,1
1225,2,0,60.07899999999999,0,90,1,0.25,2,3,0.0,0.0,5,48.0,30.0,3,0.476,1.0,64.715,0.0,0,2020-06-03 17:25:41.000,25,2020-06-03 17:26:41.079,0.25,-90,30,-60,-180,1
1226,7,0,137.724,0,90,1,0.25,2,3,0.0,0.0,5,48.0,30.0,3,0.551,0.0,0.0,0.17,1,2020-06-03 17:25:41.000,25,2020-06-03 17:27:58.724,0.25,90,30,-60,0,1
1227,8,0,147.32399999999996,0,90,1,0.25,2,3,0.0,0.0,5,48.0,30.0,3,0.451,0.0,0.0,0.12,1,2020-06-03 17:25:41.000,25,2020-06-03 17:28:08.324,0.25,90,30,-60,0,1
1228,9,0,159.061,0,90,1,0.25,2,9,0.0,0.0,11,48.0,30.0,9,0.526,1.0,161.95600000000005,0.17,1,2020-06-03 17:25:41.000,25,2020-06-03 17:28:20.061,0.25,-90,-150,120,-180,1
1229,10,0,181.925,0,90,1,0.25,2,9,0.0,0.0,11,48.0,30.0,9,0.451,1.0,183.83900000000003,0.17,1,2020-06-03 17:25:41.000,25,2020-06-03 17:28:42.925,0.25,-90,-150,120,-180,1
1230,11,0,206.476,0,90,1,0.25,2,9,0.0,0.0,11,48.0,30.0,9,0.551,0.0,0.0,0.0,0,2020-06-03 17:25:41.000,25,2020-06-03 17:29:07.476,0.25,90,-150,120,0,1
1231,13,0,234.86,0,90,1,0.25,2,9,0.0,0.0,11,48.0,30.0,9,0.501,1.0,238.141,0.17,1,2020-06-03 17:25:41.000,25,2020-06-03 17:29:35.860,0.25,-90,-150,120,-180,1
1232,14,0,257.06,0,90,1,0.25,2,9,0.0,0.0,11,48.0,30.0,9,0.476,1.0,259.874,0.17,1,2020-06-03 17:25:41.000,25,2020-06-03 17:29:58.060,0.25,-90,-150,120,-180,1
1233,15,0,286.058,0,90,1,0.25,2,9,0.0,0.0,11,48.0,30.0,9,0.526,1.0,288.275,0.17,1,2020-06-03 17:25:41.000,25,2020-06-03 17:30:27.058,0.25,-90,-150,120,-180,1
1272,1,0,39.43,0,0,1,0.25,2,3,0.0,0.0,5,48.0,30.0,3,0.501,1.0,41.647,0.0,0,2020-06-04 12:15:53.000,91,2020-06-04 12:16:32.430,0.25,-90,30,30,-90,1
1273,3,0,64.418,0,0,1,0.25,2,9,0.0,0.0,11,48.0,30.0,9,0.526,1.0,66.243,0.19,1,2020-06-04 12:15:53.000,91,2020-06-04 12:16:57.418,0.25,-90,-150,-150,-90,1
1274,4,0,88.631,0,0,1,0.25,2,3,0.0,0.0,5,48.0,30.0,3,0.551,0.0,0.0,0.12,1,2020-06-04 12:15:53.000,91,2020-06-04 12:17:21.631,0.25,90,30,30,90,1
1275,5,0,97.109,0,0,1,0.25,2,9,0.0,0.0,11,48.0,30.0,9,0.451,1.0,98.778,0.19,1,2020-06-04 12:15:53.000,91,2020-06-04 12:17:30.109,0.25,-90,-150,-150,-90,1
1276,6,0,118.581,0,0,1,0.25,2,9,0.0,0.0,11,48.0,30.0,9,0.476,1.0,122.562,0.19,1,2020-06-04 12:15:53.000,91,2020-06-04 12:17:51.581,0.25,-90,-150,-150,-90,1
1277,7,0,149.421,0,0,1,0.25,2,3,0.0,0.0,5,48.0,30.0,3,0.501,0.0,0.0,0.12,1,2020-06-04 12:15:53.000,91,2020-06-04 12:18:22.421,0.25,90,30,30,90,1
1278,8,0,157.58700000000005,0,0,1,0.25,2,9,0.0,0.0,11,48.0,30.0,9,0.476,1.0,159.241,0.19,1,2020-06-04 12:15:53.000,91,2020-06-04 12:18:30.587,0.25,-90,-150,-150,-90,1
1279,9,0,179.03,0,0,1,0.25,2,9,0.0,0.0,11,48.0,30.0,9,0.551,1.0,181.323,0.19,1,2020-06-04 12:15:53.000,91,2020-06-04 12:18:52.030,0.25,-90,-150,-150,-90,1
1280,10,0,199.315,0,0,1,0.25,2,3,0.0,0.0,5,48.0,30.0,3,0.526,0.0,0.0,0.12,1,2020-06-04 12:15:53.000,91,2020-06-04 12:19:12.315,0.25,90,30,30,90,1
1281,11,0,206.598,0,0,1,0.25,2,9,0.0,0.0,11,48.0,30.0,9,0.451,0.0,0.0,0.0,0,2020-06-04 12:15:53.000,91,2020-06-04 12:19:19.598,0.25,90,-150,-150,90,1
1370,1,0,41.374,0,30,1,0.25,2,3,0.0,0.0,5,48.0,30.0,3,0.451,1.0,44.073,0.0,0,2020-06-05 12:30:29.000,32,2020-06-05 12:31:10.374,0.25,-90,30,0,-120,1
1371,3,0,56.869,0,30,1,0.25,2,9,0.0,0.0,11,48.0,30.0,9,0.501,0.0,0.0,0.0,0,2020-06-05 12:30:29.000,32,2020-06-05 12:31:25.869,0.25,90,-150,-180,60,1
1372,5,0,85.764,0,30,1,0.25,2,9,0.0,0.0,11,48.0,30.0,9,0.551,1.0,88.29700000000003,0.19,1,2020-06-05 12:30:29.000,32,2020-06-05 12:31:54.764,0.25,-90,-150,-180,-120,1
1373,6,0,106.856,0,30,1,0.25,2,3,0.0,0.0,5,48.0,30.0,3,0.526,0.0,0.0,0.12,1,2020-06-05 12:30:29.000,32,2020-06-05 12:32:15.856,0.25,90,30,0,60,1
1374,7,0,115.036,0,30,1,0.25,2,9,0.0,0.0,11,48.0,30.0,9,0.476,1.0,117.742,0.19,1,2020-06-05 12:30:29.000,32,2020-06-05 12:32:24.036,0.25,-90,-150,-180,-120,1
1375,8,0,133.372,0,30,1,0.25,2,3,0.0,0.0,5,48.0,30.0,3,0.551,1.0,136.688,0.0,0,2020-06-05 12:30:29.000,32,2020-06-05 12:32:42.372,0.25,-90,30,0,-120,1
1376,10,0,154.49,0,30,1,0.25,2,9,0.0,0.0,11,48.0,30.0,9,0.476,0.0,0.0,0.0,0,2020-06-05 12:30:29.000,32,2020-06-05 12:33:03.490,0.25,90,-150,-180,60,1
1377,12,0,180.439,0,30,1,0.25,2,3,0.0,0.0,5,48.0,30.0,3,0.501,1.0,183.853,0.0,0,2020-06-05 12:30:29.000,32,2020-06-05 12:33:29.439,0.25,-90,30,0,-120,1
1378,14,0,209.093,0,30,1,0.25,2,3,0.0,0.0,5,48.0,30.0,3,0.526,0.0,0.0,0.12,1,2020-06-05 12:30:29.000,32,2020-06-05 12:33:58.093,0.25,90,30,0,60,1
1379,15,0,218.538,0,30,1,0.25,2,9,0.0,0.0,11,48.0,30.0,9,0.451,0.0,0.0,0.0,0,2020-06-05 12:30:29.000,32,2020-06-05 12:34:07.538,0.25,90,-150,-180,60,1
1425,1,0,40.825,0,0,1,0.25,2,3,0.0,0.0,5,48.0,30.0,3,0.551,0.0,0.0,0.12,1,2020-06-05 18:01:48.000,43,2020-06-05 18:02:28.825,0.25,90,30,30,90,1
1426,2,0,47.136,0,0,1,0.25,2,9,0.0,0.0,11,48.0,30.0,9,0.501,0.0,0.0,0.0,0,2020-06-05 18:01:48.000,43,2020-06-05 18:02:35.136,0.25,90,-150,-150,90,1
1427,5,0,96.646,0,0,1,0.25,2,3,0.0,0.0,5,48.0,30.0,3,0.451,0.0,0.0,0.12,1,2020-06-05 18:01:48.000,43,2020-06-05 18:03:24.646,0.25,90,30,30,90,1
1428,6,0,103.034,0,0,1,0.25,2,3,0.0,0.0,5,48.0,30.0,3,0.476,0.0,0.0,0.12,1,2020-06-05 18:01:48.000,43,2020-06-05 18:03:31.034,0.25,90,30,30,90,1
1429,7,0,109.013,0,0,1,0.25,2,9,0.0,0.0,11,48.0,30.0,9,0.526,1.0,110.97,0.19,1,2020-06-05 18:01:48.000,43,2020-06-05 18:03:37.013,0.25,-90,-150,-150,-90,1
1430,8,0,129.047,0,0,1,0.25,2,3,0.0,0.0,5,48.0,30.0,3,0.451,0.0,0.0,0.12,1,2020-06-05 18:01:48.000,43,2020-06-05 18:03:57.047,0.25,90,30,30,90,1
1431,9,0,138.216,0,0,1,0.25,2,3,0.0,0.0,5,48.0,30.0,3,0.526,0.0,0.0,0.12,1,2020-06-05 18:01:48.000,43,2020-06-05 18:04:06.216,0.25,90,30,30,90,1
1432,10,0,145.461,0,0,1,0.25,2,9,0.0,0.0,11,48.0,30.0,9,0.501,1.0,147.066,0.19,1,2020-06-05 18:01:48.000,43,2020-06-05 18:04:13.461,0.25,-90,-150,-150,-90,1
1433,11,0,166.332,0,0,1,0.25,2,3,0.0,0.0,5,48.0,30.0,3,0.551,0.0,0.0,0.12,1,2020-06-05 18:01:48.000,43,2020-06-05 18:04:34.332,0.25,90,30,30,90,1
1434,12,0,172.59900000000005,0,0,1,0.25,2,3,0.0,0.0,5,48.0,30.0,3,0.476,0.0,0.0,0.12,1,2020-06-05 18:01:48.000,43,2020-06-05 18:04:40.599,0.25,90,30,30,90,1
1606,1,0,65.311,1,-30,1,0.25,2,3,0.0,0.0,5,48.0,30.0,3,0.551,0.0,71.282,0.12,1,2020-06-11 12:28:35.000,46,2020-06-11 12:29:40.311,0.25,90,30,60,120,1
1607,2,0,77.63,0,-30,1,0.25,2,9,0.0,0.0,11,48.0,30.0,9,0.501,1.0,79.343,0.19,1,2020-06-11 12:28:35.000,46,2020-06-11 12:29:52.630,0.25,-90,-150,-120,-60,1
1608,3,0,98.894,0,-30,1,0.25,2,3,0.0,0.0,5,48.0,30.0,3,0.476,0.0,101.128,0.12,1,2020-06-11 12:28:35.000,46,2020-06-11 12:30:13.894,0.25,90,30,60,120,1
1609,4,0,116.961,0,-30,1,0.25,2,9,0.0,0.0,11,48.0,30.0,9,0.451,1.0,118.983,0.19,1,2020-06-11 12:28:35.000,46,2020-06-11 12:30:31.961,0.25,-90,-150,-120,-60,1
1610,5,0,143.42600000000004,0,-30,1,0.25,2,3,0.0,0.0,5,48.0,30.0,3,0.526,0.0,145.431,0.12,1,2020-06-11 12:28:35.000,46,2020-06-11 12:30:58.426,0.25,90,30,60,120,1
1611,6,0,152.53799999999995,1,-30,1,0.25,2,3,0.0,0.0,5,48.0,30.0,3,0.526,0.0,159.835,0.12,1,2020-06-11 12:28:35.000,46,2020-06-11 12:31:07.538,0.25,90,30,60,120,1
1612,7,0,168.27,0,-30,1,0.25,2,3,0.0,0.0,5,48.0,30.0,3,0.476,0.0,170.041,0.12,1,2020-06-11 12:28:35.000,46,2020-06-11 12:31:23.270,0.25,90,30,60,120,1
1613,8,0,177.051,0,-30,1,0.25,2,3,0.0,0.0,5,48.0,30.0,3,0.451,0.0,178.957,0.12,1,2020-06-11 12:28:35.000,46,2020-06-11 12:31:32.051,0.25,90,30,60,120,1
1614,9,0,185.543,0,-30,1,0.25,2,3,0.0,0.0,5,48.0,30.0,3,0.551,0.0,187.886,0.12,1,2020-06-11 12:28:35.000,46,2020-06-11 12:31:40.543,0.25,90,30,60,120,1
1615,10,0,195.109,0,-30,1,0.25,2,9,0.0,0.0,11,48.0,30.0,9,0.501,1.0,196.788,0.19,1,2020-06-11 12:28:35.000,46,2020-06-11 12:31:50.109,0.25,-90,-150,-120,-60,1
1652,1,0,65.385,0,0,1,0.25,2,9,0.0,0.0,11,48.0,30.0,9,0.526,1.0,66.913,0.19,1,2020-06-11 18:04:52.000,62,2020-06-11 18:05:57.385,0.25,-90,-150,-150,-90,1
1653,2,0,80.25,0,0,1,0.25,2,3,0.0,0.0,5,48.0,30.0,3,0.551,1.0,82.44,0.0,0,2020-06-11 18:04:52.000,62,2020-06-11 18:06:12.250,0.25,-90,30,30,-90,1
1654,4,0,99.76,0,0,1,0.25,2,9,0.0,0.0,11,48.0,30.0,9,0.451,0.0,101.297,0.0,0,2020-06-11 18:04:52.000,62,2020-06-11 18:06:31.760,0.25,90,-150,-150,90,1
1655,6,0,129.707,0,0,1,0.25,2,3,0.0,0.0,5,48.0,30.0,3,0.501,1.0,133.991,0.0,0,2020-06-11 18:04:52.000,62,2020-06-11 18:07:01.707,0.25,-90,30,30,-90,1
1656,8,0,147.754,0,0,1,0.25,2,9,0.0,0.0,11,48.0,30.0,9,0.476,0.0,149.389,0.0,0,2020-06-11 18:04:52.000,62,2020-06-11 18:07:19.754,0.25,90,-150,-150,90,1
1657,11,0,227.072,0,0,1,0.25,2,9,0.0,0.0,11,48.0,30.0,9,0.526,1.0,230.223,0.19,1,2020-06-11 18:04:52.000,62,2020-06-11 18:08:39.072,0.25,-90,-150,-150,-90,1
1658,12,0,259.927,0,0,1,0.25,2,9,0.0,0.0,11,48.0,30.0,9,0.501,0.0,261.584,0.0,0,2020-06-11 18:04:52.000,62,2020-06-11 18:09:11.927,0.25,90,-150,-150,90,1
1659,14,0,290.63,0,0,1,0.25,2,3,0.0,0.0,5,48.0,30.0,3,0.551,0.0,292.774,0.12,1,2020-06-11 18:04:52.000,62,2020-06-11 18:09:42.630,0.25,90,30,30,90,1
1660,15,0,299.2990000000001,0,0,1,0.25,2,9,0.0,0.0,11,48.0,30.0,9,0.451,1.0,301.285,0.19,1,2020-06-11 18:04:52.000,62,2020-06-11 18:09:51.299,0.25,-90,-150,-150,-90,1
1661,16,0,324.471,0,0,1,0.25,2,3,0.0,0.0,5,48.0,30.0,3,0.476,0.0,326.2990000000001,0.12,1,2020-06-11 18:04:52.000,62,2020-06-11 18:10:16.471,0.25,90,30,30,90,1
2225,1,0,86.17299999999999,0,-90,1,0.25,2,9,0.0,0.0,11,48.0,30.0,9,0.551,0.0,87.564,0.0,0,2020-07-01 17:56:19.000,81,2020-07-01 17:57:45.173,0.25,90,-150,-60,-180,1
2226,3,0,129.905,0,-90,1,0.25,2,3,0.0,0.0,5,48.0,30.0,3,0.476,0.0,133.372,0.12,1,2020-07-01 17:56:19.000,81,2020-07-01 17:58:28.905,0.25,90,30,120,-180,1
2227,4,0,138.856,0,-90,1,0.25,2,9,0.0,0.0,11,48.0,30.0,9,0.451,1.0,140.512,0.19,1,2020-07-01 17:56:19.000,81,2020-07-01 17:58:37.856,0.25,-90,-150,-60,0,1
2228,5,0,153.438,0,-90,1,0.25,2,3,0.0,0.0,5,48.0,30.0,3,0.501,0.0,155.627,0.12,1,2020-07-01 17:56:19.000,81,2020-07-01 17:58:52.438,0.25,90,30,120,-180,1
2229,6,0,160.594,0,-90,1,0.25,2,9,0.0,0.0,11,48.0,30.0,9,0.526,0.0,162.71,0.0,0,2020-07-01 17:56:19.000,81,2020-07-01 17:58:59.594,0.25,90,-150,-60,-180,1
2230,9,0,204.404,0,-90,1,0.25,2,9,0.0,0.0,11,48.0,30.0,9,0.551,1.0,205.949,0.19,1,2020-07-01 17:56:19.000,81,2020-07-01 17:59:43.404,0.25,-90,-150,-60,0,1
2231,10,0,218.605,0,-90,1,0.25,2,9,0.0,0.0,11,48.0,30.0,9,0.501,0.0,221.107,0.0,0,2020-07-01 17:56:19.000,81,2020-07-01 17:59:57.605,0.25,90,-150,-60,-180,1
2232,12,0,253.567,0,-90,1,0.25,2,9,0.0,0.0,11,48.0,30.0,9,0.526,0.0,256.029,0.0,0,2020-07-01 17:56:19.000,81,2020-07-01 18:00:32.567,0.25,90,-150,-60,-180,1
2233,14,0,291.926,0,-90,1,0.25,2,9,0.0,0.0,11,48.0,30.0,9,0.476,1.0,294.758,0.19,1,2020-07-01 17:56:19.000,81,2020-07-01 18:01:10.926,0.25,-90,-150,-60,0,1
2234,15,0,310.708,0,-90,1,0.25,2,3,0.0,0.0,5,48.0,30.0,3,0.451,0.0,312.576,0.12,1,2020-07-01 17:56:19.000,81,2020-07-01 18:01:29.708,0.25,90,30,120,-180,1
2252,1,0,92.685,0,0,1,0.25,2,3,0.0,0.0,5,48.0,30.0,3,0.526,1.0,94.249,0.0,0,2020-07-02 12:15:01.000,2,2020-07-02 12:16:33.685,0.25,-90,30,30,-90,1
2253,3,0,121.39,0,0,1,0.25,2,9,0.0,0.0,11,48.0,30.0,9,0.476,1.0,124.327,0.19,1,2020-07-02 12:15:01.000,2,2020-07-02 12:17:02.390,0.25,-90,-150,-150,-90,1
2254,4,0,139.248,0,0,1,0.25,2,3,0.0,0.0,5,48.0,30.0,3,0.451,0.0,140.923,0.12,1,2020-07-02 12:15:01.000,2,2020-07-02 12:17:20.248,0.25,90,30,30,90,1
2255,5,0,148.789,0,0,1,0.25,2,3,0.0,0.0,5,48.0,30.0,3,0.551,0.0,150.496,0.12,1,2020-07-02 12:15:01.000,2,2020-07-02 12:17:29.789,0.25,90,30,30,90,1
2256,6,0,165.28900000000004,0,0,1,0.25,2,3,0.0,0.0,5,48.0,30.0,3,0.501,1.0,166.78,0.0,0,2020-07-02 12:15:01.000,2,2020-07-02 12:17:46.289,0.25,-90,30,30,-90,1
2257,8,0,185.153,0,0,1,0.25,2,9,0.0,0.0,11,48.0,30.0,9,0.476,1.0,187.07,0.185,1,2020-07-02 12:15:01.000,2,2020-07-02 12:18:06.153,0.25,-90,-150,-150,-90,1
2258,9,0,205.813,0,0,1,0.25,2,3,0.0,0.0,5,48.0,30.0,3,0.451,0.0,209.14,0.13,1,2020-07-02 12:15:01.000,2,2020-07-02 12:18:26.813,0.25,90,30,30,90,1
2259,10,0,214.838,0,0,1,0.25,2,9,0.0,0.0,11,48.0,30.0,9,0.501,1.0,216.205,0.185,1,2020-07-02 12:15:01.000,2,2020-07-02 12:18:35.838,0.25,-90,-150,-150,-90,1
2260,11,0,248.577,0,0,1,0.25,2,9,0.0,0.0,11,48.0,30.0,9,0.551,0.0,250.583,0.0,0,2020-07-02 12:15:01.000,2,2020-07-02 12:19:09.577,0.25,90,-150,-150,90,1
2261,14,0,323.981,0,0,1,0.25,2,9,0.0,0.0,11,48.0,30.0,9,0.526,0.0,325.377,0.0,0,2020-07-02 12:15:01.000,2,2020-07-02 12:20:24.981,0.25,90,-150,-150,90,1
2381,1,0,78.52600000000002,0,-30,1,0.25,2,9,0.0,0.0,11,48.0,30.0,9,0.551,1.0,80.585,0.19,1,2020-07-03 12:13:29.000,72,2020-07-03 12:14:47.526,0.25,-90,-150,-120,-60,1
2382,2,0,97.388,1,-30,1,0.25,2,3,0.0,0.0,5,48.0,30.0,3,0.476,0.0,105.368,0.12,1,2020-07-03 12:13:29.000,72,2020-07-03 12:15:06.388,0.25,90,30,60,120,1
2383,3,0,111.482,0,-30,1,0.25,2,9,0.0,0.0,11,48.0,30.0,9,0.451,1.0,112.998,0.19,1,2020-07-03 12:13:29.000,72,2020-07-03 12:15:20.482,0.25,-90,-150,-120,-60,1
2384,4,0,130.78,0,-30,1,0.25,2,3,0.0,0.0,5,48.0,30.0,3,0.526,0.0,132.608,0.12,1,2020-07-03 12:13:29.000,72,2020-07-03 12:15:39.780,0.25,90,30,60,120,1
2385,5,0,150.828,0,-30,1,0.25,2,9,0.0,0.0,11,48.0,30.0,9,0.501,1.0,152.637,0.19,1,2020-07-03 12:13:29.000,72,2020-07-03 12:15:59.828,0.25,-90,-150,-120,-60,1
2386,6,0,171.236,1,-30,1,0.25,2,3,0.0,0.0,5,48.0,30.0,3,0.476,0.0,180.271,0.12,1,2020-07-03 12:13:29.000,72,2020-07-03 12:16:20.236,0.25,90,30,60,120,1
2387,7,0,188.833,0,-30,1,0.25,2,3,0.0,0.0,5,48.0,30.0,3,0.501,0.0,190.062,0.12,1,2020-07-03 12:13:29.000,72,2020-07-03 12:16:37.833,0.25,90,30,60,120,1
2388,8,0,196.806,0,-30,1,0.25,2,9,0.0,0.0,11,48.0,30.0,9,0.551,1.0,198.793,0.19,1,2020-07-03 12:13:29.000,72,2020-07-03 12:16:45.806,0.25,-90,-150,-120,-60,1
2389,9,0,218.378,0,-30,1,0.25,2,9,0.0,0.0,11,48.0,30.0,9,0.526,1.0,220.69,0.19,1,2020-07-03 12:13:29.000,72,2020-07-03 12:17:07.378,0.25,-90,-150,-120,-60,1
2390,10,0,239.993,0,-30,1,0.25,2,9,0.0,0.0,11,48.0,30.0,9,0.451,1.0,243.193,0.19,1,2020-07-03 12:13:29.000,72,2020-07-03 12:17:28.993,0.25,-90,-150,-120,-60,1
2476,1,0,39.4,0,0,1,0.25,2,9,0.0,0.0,11,48.0,30.0,9,0.451,0.0,45.622,0.0,0,2020-07-06 12:43:00.000,63,2020-07-06 12:43:39.400,0.25,90,-150,-150,90,1
2477,3,0,97.121,0,0,1,0.25,2,3,0.0,0.0,5,48.0,30.0,3,0.551,0.0,99.044,0.12,1,2020-07-06 12:43:00.000,63,2020-07-06 12:44:37.121,0.25,90,30,30,90,1
2478,4,0,110.801,0,0,1,0.25,2,3,0.0,0.0,5,48.0,30.0,3,0.501,0.0,113.118,0.12,1,2020-07-06 12:43:00.000,63,2020-07-06 12:44:50.801,0.25,90,30,30,90,1
2479,5,0,122.224,0,0,1,0.25,2,3,0.0,0.0,5,48.0,30.0,3,0.476,0.0,125.138,0.12,1,2020-07-06 12:43:00.000,63,2020-07-06 12:45:02.224,0.25,90,30,30,90,1
2480,6,0,148.04,0,0,1,0.25,2,3,0.0,0.0,5,48.0,30.0,3,0.526,0.0,149.66299999999995,0.12,1,2020-07-06 12:43:00.000,63,2020-07-06 12:45:28.040,0.25,90,30,30,90,1
2481,7,0,156.779,0,0,1,0.25,2,9,0.0,0.0,11,48.0,30.0,9,0.501,1.0,158.77100000000004,0.19,1,2020-07-06 12:43:00.000,63,2020-07-06 12:45:36.779,0.25,-90,-150,-150,-90,1
2482,8,0,174.343,0,0,1,0.25,2,3,0.0,0.0,5,48.0,30.0,3,0.451,0.0,176.521,0.12,1,2020-07-06 12:43:00.000,63,2020-07-06 12:45:54.343,0.25,90,30,30,90,1
2483,9,0,184.502,0,0,1,0.25,2,3,0.0,0.0,5,48.0,30.0,3,0.551,0.0,186.147,0.12,1,2020-07-06 12:43:00.000,63,2020-07-06 12:46:04.502,0.25,90,30,30,90,1
2484,10,0,192.713,0,0,1,0.25,2,3,0.0,0.0,5,48.0,30.0,3,0.526,0.0,194.795,0.12,1,2020-07-06 12:43:00.000,63,2020-07-06 12:46:12.713,0.25,90,30,30,90,1
2485,11,0,202.49,0,0,1,0.25,2,9,0.0,0.0,11,48.0,30.0,9,0.476,1.0,204.16,0.19,1,2020-07-06 12:43:00.000,63,2020-07-06 12:46:22.490,0.25,-90,-150,-150,-90,1
2653,1,0,58.619,0,120,1,0.25,2,9,0.0,0.0,11,48.0,30.0,9,0.476,1.0,60.29600000000001,0.19,1,2020-07-07 17:25:52.000,7,2020-07-07 17:26:50.619,0.25,-90,-150,90,150,1
2654,2,0,81.15899999999998,0,120,1,0.25,2,3,0.0,0.0,5,48.0,30.0,3,0.526,0.0,84.25399999999998,0.12,1,2020-07-07 17:25:52.000,7,2020-07-07 17:27:13.159,0.25,90,30,-90,-30,1
2655,3,0,102.478,0,120,1,0.25,2,9,0.0,0.0,11,48.0,30.0,9,0.451,0.0,108.357,0.0,0,2020-07-07 17:25:52.000,7,2020-07-07 17:27:34.478,0.25,90,-150,90,-30,1
2656,5,0,146.757,0,120,1,0.25,2,9,0.0,0.0,11,48.0,30.0,9,0.501,1.0,149.61700000000005,0.19,1,2020-07-07 17:25:52.000,7,2020-07-07 17:28:18.757,0.25,-90,-150,90,150,1
2657,6,0,177.142,0,120,1,0.25,2,9,0.0,0.0,11,48.0,30.0,9,0.551,1.0,186.316,0.19,1,2020-07-07 17:25:52.000,7,2020-07-07 17:28:49.142,0.25,-90,-150,90,150,1
2658,7,0,205.427,0,120,1,0.25,2,9,0.0,0.0,11,48.0,30.0,9,0.501,1.0,208.17,0.19,1,2020-07-07 17:25:52.000,7,2020-07-07 17:29:17.427,0.25,-90,-150,90,150,1
2659,8,0,230.468,0,120,1,0.25,2,9,0.0,0.0,11,48.0,30.0,9,0.451,0.0,232.98,0.0,0,2020-07-07 17:25:52.000,7,2020-07-07 17:29:42.468,0.25,90,-150,90,-30,1
2660,10,0,259.808,0,120,1,0.25,2,3,0.0,0.0,5,48.0,30.0,3,0.526,0.0,261.543,0.12,1,2020-07-07 17:25:52.000,7,2020-07-07 17:30:11.808,0.25,90,30,-90,-30,1
2661,11,0,267.932,0,120,1,0.25,2,3,0.0,0.0,5,48.0,30.0,3,0.476,0.0,270.711,0.12,1,2020-07-07 17:25:52.000,7,2020-07-07 17:30:19.932,0.25,90,30,-90,-30,1
2662,12,0,314.599,0,120,1,0.25,2,3,0.0,0.0,5,48.0,30.0,3,0.551,0.0,317.4190000000001,0.12,1,2020-07-07 17:25:52.000,7,2020-07-07 17:31:06.599,0.25,90,30,-90,-30,1
2706,1,0,83.346,0,0,1,0.25,2,9,0.0,0.0,11,48.0,30.0,9,0.451,1.0,86.31299999999997,0.19,1,2020-07-08 12:01:45.000,18,2020-07-08 12:03:08.346,0.25,-90,-150,-150,-90,1
2707,2,0,102.15,0,0,1,0.25,2,9,0.0,0.0,11,48.0,30.0,9,0.526,0.0,104.503,0.0,0,2020-07-08 12:01:45.000,18,2020-07-08 12:03:27.150,0.25,90,-150,-150,90,1
2708,4,0,129.999,0,0,1,0.25,2,9,0.0,0.0,11,48.0,30.0,9,0.551,1.0,131.658,0.19,1,2020-07-08 12:01:45.000,18,2020-07-08 12:03:54.999,0.25,-90,-150,-150,-90,1
2709,5,0,149.899,0,0,1,0.25,2,9,0.0,0.0,11,48.0,30.0,9,0.476,1.0,152.21200000000005,0.19,1,2020-07-08 12:01:45.000,18,2020-07-08 12:04:14.899,0.25,-90,-150,-150,-90,1
2710,6,0,176.27700000000004,1,0,1,0.25,2,3,0.0,0.0,5,48.0,30.0,3,0.501,0.0,184.481,0.12,1,2020-07-08 12:01:45.000,18,2020-07-08 12:04:41.277,0.25,90,30,30,90,1
2711,7,0,191.606,0,0,1,0.25,2,9,0.0,0.0,11,48.0,30.0,9,0.526,1.0,193.497,0.19,1,2020-07-08 12:01:45.000,18,2020-07-08 12:04:56.606,0.25,-90,-150,-150,-90,1
2712,8,0,212.43,0,0,1,0.25,2,9,0.0,0.0,11,48.0,30.0,9,0.451,1.0,214.614,0.19,1,2020-07-08 12:01:45.000,18,2020-07-08 12:05:17.430,0.25,-90,-150,-150,-90,1
2713,9,0,229.471,0,0,1,0.25,2,9,0.0,0.0,11,48.0,30.0,9,0.501,1.0,232.766,0.19,1,2020-07-08 12:01:45.000,18,2020-07-08 12:05:34.471,0.25,-90,-150,-150,-90,1
2714,10,0,252.633,0,0,1,0.25,2,9,0.0,0.0,11,48.0,30.0,9,0.551,1.0,254.515,0.19,1,2020-07-08 12:01:45.000,18,2020-07-08 12:05:57.633,0.25,-90,-150,-150,-90,1
2715,11,0,269.903,0,0,1,0.25,2,9,0.0,0.0,11,48.0,30.0,9,0.476,1.0,272.622,0.19,1,2020-07-08 12:01:45.000,18,2020-07-08 12:06:14.903,0.25,-90,-150,-150,-90,1
2769,1,0,82.19,0,-150,1,0.25,2,3,0.0,0.0,5,48.0,30.0,3,0.476,1.0,84.005,0.0,0,2020-07-08 17:46:04.000,78,2020-07-08 17:47:26.190,0.25,-90,30,-180,60,1
2770,3,0,102.558,0,-150,1,0.25,2,9,0.0,0.0,11,48.0,30.0,9,0.551,1.0,108.696,0.19,1,2020-07-08 17:46:04.000,78,2020-07-08 17:47:46.558,0.25,-90,-150,0,60,1
2771,4,0,128.30200000000002,0,-150,1,0.25,2,9,0.0,0.0,11,48.0,30.0,9,0.526,0.0,130.586,0.0,0,2020-07-08 17:46:04.000,78,2020-07-08 17:48:12.302,0.25,90,-150,0,-120,1
2772,7,0,188.567,0,-150,1,0.25,2,9,0.0,0.0,11,48.0,30.0,9,0.451,1.0,190.62,0.19,1,2020-07-08 17:46:04.000,78,2020-07-08 17:49:12.567,0.25,-90,-150,0,60,1
2773,8,0,227.836,0,-150,1,0.25,2,9,0.0,0.0,11,48.0,30.0,9,0.501,0.0,229.604,0.0,0,2020-07-08 17:46:04.000,78,2020-07-08 17:49:51.836,0.25,90,-150,0,-120,1
2774,10,0,257.124,0,-150,1,0.25,2,9,0.0,0.0,11,48.0,30.0,9,0.476,0.0,258.899,0.0,0,2020-07-08 17:46:04.000,78,2020-07-08 17:50:21.124,0.25,90,-150,0,-120,1
2775,14,0,324.188,0,-150,1,0.25,2,3,0.0,0.0,5,48.0,30.0,3,0.501,0.0,325.65,0.12,1,2020-07-08 17:46:04.000,78,2020-07-08 17:51:28.188,0.25,90,30,-180,-120,1
2776,15,0,360.92800000000005,0,-150,1,0.25,2,9,0.0,0.0,11,48.0,30.0,9,0.551,1.0,362.987,0.19,1,2020-07-08 17:46:04.000,78,2020-07-08 17:52:04.928,0.25,-90,-150,0,60,1
2777,16,0,417.853,0,-150,1,0.25,2,3,0.0,0.0,5,48.0,30.0,3,0.526,1.0,421.747,0.0,0,2020-07-08 17:46:04.000,78,2020-07-08 17:53:01.853,0.25,-90,30,-180,60,1
2778,18,0,441.127,0,-150,1,0.25,2,3,0.0,0.0,5,48.0,30.0,3,0.451,0.0,445.351,0.12,1,2020-07-08 17:46:04.000,78,2020-07-08 17:53:25.127,0.25,90,30,-180,-120,1
2813,1,0,20.258,0,0,1,0.25,2,3,0.0,0.0,5,48.0,30.0,3,0.501,1.0,22.084,0.0,0,2020-07-09 12:10:41.000,16,2020-07-09 12:11:01.258,0.25,-90,30,30,-90,1
2814,3,0,36.361,0,0,1,0.25,2,3,0.0,0.0,5,48.0,30.0,3,0.526,0.0,37.73,0.12,1,2020-07-09 12:10:41.000,16,2020-07-09 12:11:17.361,0.25,90,30,30,90,1
2815,4,0,50.198,0,0,1,0.25,2,9,0.0,0.0,11,48.0,30.0,9,0.551,1.0,51.587,0.19,1,2020-07-09 12:10:41.000,16,2020-07-09 12:11:31.198,0.25,-90,-150,-150,-90,1
2816,5,0,69.762,1,0,1,0.25,2,9,0.0,0.0,11,48.0,30.0,9,0.476,1.0,79.057,0.19,1,2020-07-09 12:10:41.000,16,2020-07-09 12:11:50.762,0.25,-90,-150,-150,-90,1
2817,6,0,105.844,0,0,1,0.25,2,9,0.0,0.0,11,48.0,30.0,9,0.451,1.0,107.358,0.19,1,2020-07-09 12:10:41.000,16,2020-07-09 12:12:26.844,0.25,-90,-150,-150,-90,1
2818,7,0,124.533,0,0,1,0.25,2,9,0.0,0.0,11,48.0,30.0,9,0.551,1.0,126.582,0.19,1,2020-07-09 12:10:41.000,16,2020-07-09 12:12:45.533,0.25,-90,-150,-150,-90,1
2819,8,0,146.753,0,0,1,0.25,2,9,0.0,0.0,11,48.0,30.0,9,0.451,1.0,149.672,0.19,1,2020-07-09 12:10:41.000,16,2020-07-09 12:13:07.753,0.25,-90,-150,-150,-90,1
2820,9,0,168.08599999999996,0,0,1,0.25,2,9,0.0,0.0,11,48.0,30.0,9,0.476,1.0,170.114,0.19,1,2020-07-09 12:10:41.000,16,2020-07-09 12:13:29.086,0.25,-90,-150,-150,-90,1
2821,10,0,187.897,0,0,1,0.25,2,3,0.0,0.0,5,48.0,30.0,3,0.501,0.0,189.667,0.12,1,2020-07-09 12:10:41.000,16,2020-07-09 12:13:48.897,0.25,90,30,30,90,1
2822,11,0,196.689,0,0,1,0.25,2,9,0.0,0.0,11,48.0,30.0,9,0.526,0.0,198.152,0.0,0,2020-07-09 12:10:41.000,16,2020-07-09 12:13:57.689,0.25,90,-150,-150,90,1
2924,1,0,53.168,0,-120,1,0.25,2,3,0.0,0.0,5,48.0,30.0,3,0.551,1.0,57.541,0.0,0,2020-07-10 12:23:29.000,92,2020-07-10 12:24:22.168,0.25,-90,30,150,30,1
2925,3,0,80.706,0,-120,1,0.25,2,3,0.0,0.0,5,48.0,30.0,3,0.451,0.0,82.664,0.12,1,2020-07-10 12:23:29.000,92,2020-07-10 12:24:49.706,0.25,90,30,150,-150,1
2926,4,0,100.417,0,-120,1,0.25,2,3,0.0,0.0,5,48.0,30.0,3,0.501,0.0,102.5,0.12,1,2020-07-10 12:23:29.000,92,2020-07-10 12:25:09.417,0.25,90,30,150,-150,1
2927,5,0,111.543,0,-120,1,0.25,2,3,0.0,0.0,5,48.0,30.0,3,0.476,1.0,113.592,0.0,0,2020-07-10 12:23:29.000,92,2020-07-10 12:25:20.543,0.25,-90,30,150,30,1
2928,7,0,171.167,0,-120,1,0.25,2,9,0.0,0.0,11,48.0,30.0,9,0.526,0.0,174.06900000000005,0.0,0,2020-07-10 12:23:29.000,92,2020-07-10 12:26:20.167,0.25,90,-150,-30,-150,1
2929,9,0,205.835,0,-120,1,0.25,2,3,0.0,0.0,5,48.0,30.0,3,0.526,0.0,208.278,0.12,1,2020-07-10 12:23:29.000,92,2020-07-10 12:26:54.835,0.25,90,30,150,-150,1
2930,10,0,215.96,0,-120,1,0.25,2,9,0.0,0.0,11,48.0,30.0,9,0.551,1.0,217.995,0.19,1,2020-07-10 12:23:29.000,92,2020-07-10 12:27:04.960,0.25,-90,-150,-30,30,1
2931,11,0,250.256,0,-120,1,0.25,2,9,0.0,0.0,11,48.0,30.0,9,0.501,1.0,252.496,0.19,1,2020-07-10 12:23:29.000,92,2020-07-10 12:27:39.256,0.25,-90,-150,-30,30,1
2932,12,0,314.132,0,-120,1,0.25,2,9,0.0,0.0,11,48.0,30.0,9,0.476,1.0,316.218,0.19,1,2020-07-10 12:23:29.000,92,2020-07-10 12:28:43.132,0.25,-90,-150,-30,30,1
2933,13,0,343.286,0,-120,1,0.25,2,9,0.0,0.0,11,48.0,30.0,9,0.451,0.0,345.483,0.0,0,2020-07-10 12:23:29.000,92,2020-07-10 12:29:12.286,0.25,90,-150,-30,-150,1
2996,1,0,50.56800000000001,0,0,1,0.25,2,3,0.0,0.0,5,48.0,30.0,3,0.551,1.0,51.98,0.0,0,2020-07-10 17:57:43.000,70,2020-07-10 17:58:33.568,0.25,-90,30,30,-90,1
2997,3,0,90.04899999999998,0,0,1,0.25,2,9,0.0,0.0,11,48.0,30.0,9,0.526,1.0,92.348,0.19,1,2020-07-10 17:57:43.000,70,2020-07-10 17:59:13.049,0.25,-90,-150,-150,-90,1
2998,4,0,115.864,0,0,1,0.25,2,3,0.0,0.0,5,48.0,30.0,3,0.476,0.0,117.673,0.12,1,2020-07-10 17:57:43.000,70,2020-07-10 17:59:38.864,0.25,90,30,30,90,1
2999,5,0,124.232,0,0,1,0.25,2,3,0.0,0.0,5,48.0,30.0,3,0.451,0.0,125.611,0.12,1,2020-07-10 17:57:43.000,70,2020-07-10 17:59:47.232,0.25,90,30,30,90,1
3000,6,0,151.14700000000005,0,0,1,0.25,2,3,0.0,0.0,5,48.0,30.0,3,0.501,0.0,152.82,0.12,1,2020-07-10 17:57:43.000,70,2020-07-10 18:00:14.147,0.25,90,30,30,90,1
3001,7,0,159.892,0,0,1,0.25,2,9,0.0,0.0,11,48.0,30.0,9,0.451,1.0,161.672,0.19,1,2020-07-10 17:57:43.000,70,2020-07-10 18:00:22.892,0.25,-90,-150,-150,-90,1
3002,8,0,192.704,0,0,1,0.25,2,3,0.0,0.0,5,48.0,30.0,3,0.551,0.0,194.381,0.12,1,2020-07-10 17:57:43.000,70,2020-07-10 18:00:55.704,0.25,90,30,30,90,1
3003,9,0,201.489,0,0,1,0.25,2,9,0.0,0.0,11,48.0,30.0,9,0.476,1.0,203.155,0.19,1,2020-07-10 17:57:43.000,70,2020-07-10 18:01:04.489,0.25,-90,-150,-150,-90,1
3004,10,0,231.992,0,0,1,0.25,2,3,0.0,0.0,5,48.0,30.0,3,0.501,1.0,233.529,0.0,0,2020-07-10 17:57:43.000,70,2020-07-10 18:01:34.992,0.25,-90,30,30,-90,1
3005,12,0,255.187,0,0,1,0.25,2,3,0.0,0.0,5,48.0,30.0,3,0.526,1.0,256.958,0.0,0,2020-07-10 17:57:43.000,70,2020-07-10 18:01:58.187,0.25,-90,30,30,-90,1
3316,1,0,22.413,1,150,1,0.25,2,9,0.0,0.0,11,48.0,30.0,9,0.451,0.0,30.885,0.0,0,2020-07-15 12:13:28.000,29,2020-07-15 12:13:50.413,0.25,90,-150,60,-60,1
3317,3,0,62.73,0,150,1,0.25,2,3,0.0,0.0,5,48.0,30.0,3,0.501,0.0,64.958,0.12,1,2020-07-15 12:13:28.000,29,2020-07-15 12:14:30.730,0.25,90,30,-120,-60,1
3318,4,0,70.866,0,150,1,0.25,2,3,0.0,0.0,5,48.0,30.0,3,0.526,0.0,75.693,0.12,1,2020-07-15 12:13:28.000,29,2020-07-15 12:14:38.866,0.25,90,30,-120,-60,1
3319,5,0,95.88,0,150,1,0.25,2,3,0.0,0.0,5,48.0,30.0,3,0.551,1.0,98.569,0.0,0,2020-07-15 12:13:28.000,29,2020-07-15 12:15:03.880,0.25,-90,30,-120,120,1
3320,7,0,121.577,0,150,1,0.25,2,3,0.0,0.0,5,48.0,30.0,3,0.476,0.0,122.998,0.12,1,2020-07-15 12:13:28.000,29,2020-07-15 12:15:29.577,0.25,90,30,-120,-60,1
3321,8,0,131.187,0,150,1,0.25,2,3,0.0,0.0,5,48.0,30.0,3,0.476,1.0,133.178,0.0,0,2020-07-15 12:13:28.000,29,2020-07-15 12:15:39.187,0.25,-90,30,-120,120,1
3322,10,0,149.107,0,150,1,0.25,2,3,0.0,0.0,5,48.0,30.0,3,0.526,1.0,151.417,0.0,0,2020-07-15 12:13:28.000,29,2020-07-15 12:15:57.107,0.25,-90,30,-120,120,1
3323,13,0,173.32,0,150,1,0.25,2,9,0.0,0.0,11,48.0,30.0,9,0.451,1.0,175.12400000000005,0.19,1,2020-07-15 12:13:28.000,29,2020-07-15 12:16:21.320,0.25,-90,-150,60,120,1
3324,14,0,211.032,0,150,1,0.25,2,9,0.0,0.0,11,48.0,30.0,9,0.501,1.0,213.488,0.19,1,2020-07-15 12:13:28.000,29,2020-07-15 12:16:59.032,0.25,-90,-150,60,120,1
3325,15,0,240.767,0,150,1,0.25,2,9,0.0,0.0,11,48.0,30.0,9,0.551,1.0,242.79,0.19,1,2020-07-15 12:13:28.000,29,2020-07-15 12:17:28.767,0.25,-90,-150,60,120,1
3362,1,0,42.386,0,0,1,0.25,2,3,0.0,0.0,5,48.0,30.0,3,0.451,0.0,44.14100000000001,0.12,1,2020-07-15 17:43:30.000,6,2020-07-15 17:44:12.386,0.25,90,30,30,90,1
3363,2,0,51.363,0,0,1,0.25,2,3,0.0,0.0,5,48.0,30.0,3,0.501,0.0,52.98,0.12,1,2020-07-15 17:43:30.000,6,2020-07-15 17:44:21.363,0.25,90,30,30,90,1
3364,3,0,60.285,0,0,1,0.25,2,9,0.0,0.0,11,48.0,30.0,9,0.526,1.0,62.044,0.19,1,2020-07-15 17:43:30.000,6,2020-07-15 17:44:30.285,0.25,-90,-150,-150,-90,1
3365,4,0,81.637,0,0,1,0.25,2,3,0.0,0.0,5,48.0,30.0,3,0.476,0.0,83.118,0.12,1,2020-07-15 17:43:30.000,6,2020-07-15 17:44:51.637,0.25,90,30,30,90,1
3366,5,0,97.218,0,0,1,0.25,2,3,0.0,0.0,5,48.0,30.0,3,0.551,1.0,98.686,0.0,0,2020-07-15 17:43:30.000,6,2020-07-15 17:45:07.218,0.25,-90,30,30,-90,1
3367,7,0,126.116,0,0,1,0.25,2,3,0.0,0.0,5,48.0,30.0,3,0.476,1.0,127.573,0.0,0,2020-07-15 17:43:30.000,6,2020-07-15 17:45:36.116,0.25,-90,30,30,-90,1
3368,9,0,162.494,0,0,1,0.25,2,3,0.0,0.0,5,48.0,30.0,3,0.501,0.0,164.248,0.12,1,2020-07-15 17:43:30.000,6,2020-07-15 17:46:12.494,0.25,90,30,30,90,1
3369,10,0,173.109,0,0,1,0.25,2,9,0.0,0.0,11,48.0,30.0,9,0.526,1.0,174.429,0.19,1,2020-07-15 17:43:30.000,6,2020-07-15 17:46:23.109,0.25,-90,-150,-150,-90,1
3370,11,0,199.521,0,0,1,0.25,2,9,0.0,0.0,11,48.0,30.0,9,0.451,1.0,201.002,0.19,1,2020-07-15 17:43:30.000,6,2020-07-15 17:46:49.521,0.25,-90,-150,-150,-90,1
3371,12,0,223.008,0,0,1,0.25,2,9,0.0,0.0,11,48.0,30.0,9,0.551,1.0,224.538,0.19,1,2020-07-15 17:43:30.000,6,2020-07-15 17:47:13.008,0.25,-90,-150,-150,-90,1
3497,1,0,39.511,0,-30,1,0.25,2,3,0.0,0.0,5,48.0,30.0,3,0.451,0.0,41.234,0.12,1,2020-07-16 17:59:18.000,28,2020-07-16 17:59:57.511,0.25,90,30,60,120,1
3498,2,0,62.136,0,-30,1,0.25,2,9,0.0,0.0,11,48.0,30.0,9,0.476,1.0,63.56800000000001,0.19,1,2020-07-16 17:59:18.000,28,2020-07-16 18:00:20.136,0.25,-90,-150,-120,-60,1
3499,3,0,92.112,0,-30,1,0.25,2,9,0.0,0.0,11,48.0,30.0,9,0.501,1.0,93.689,0.19,1,2020-07-16 17:59:18.000,28,2020-07-16 18:00:50.112,0.25,-90,-150,-120,-60,1
3500,4,0,114.463,0,-30,1,0.25,2,3,0.0,0.0,5,48.0,30.0,3,0.551,1.0,115.759,0.0,0,2020-07-16 17:59:18.000,28,2020-07-16 18:01:12.463,0.25,-90,30,60,-60,1
3501,6,0,133.36700000000002,0,-30,1,0.25,2,9,0.0,0.0,11,48.0,30.0,9,0.526,1.0,135.188,0.19,1,2020-07-16 17:59:18.000,28,2020-07-16 18:01:31.367,0.25,-90,-150,-120,-60,1
3502,7,0,183.081,0,-30,1,0.25,2,3,0.0,0.0,5,48.0,30.0,3,0.501,0.0,184.772,0.12,1,2020-07-16 17:59:18.000,28,2020-07-16 18:02:21.081,0.25,90,30,60,120,1
3503,8,0,197.156,0,-30,1,0.25,2,3,0.0,0.0,5,48.0,30.0,3,0.451,0.0,199.287,0.12,1,2020-07-16 17:59:18.000,28,2020-07-16 18:02:35.156,0.25,90,30,60,120,1
3504,9,0,214.117,0,-30,1,0.25,2,9,0.0,0.0,11,48.0,30.0,9,0.551,1.0,215.68,0.19,1,2020-07-16 17:59:18.000,28,2020-07-16 18:02:52.117,0.25,-90,-150,-120,-60,1
3505,10,0,242.354,0,-30,1,0.25,2,3,0.0,0.0,5,48.0,30.0,3,0.526,0.0,244.392,0.12,1,2020-07-16 17:59:18.000,28,2020-07-16 18:03:20.354,0.25,90,30,60,120,1
3506,11,0,262.036,0,-30,1,0.25,2,9,0.0,0.0,11,48.0,30.0,9,0.476,1.0,263.957,0.19,1,2020-07-16 17:59:18.000,28,2020-07-16 18:03:40.036,0.25,-90,-150,-120,-60,1
3633,1,0,48.074,0,-60,1,0.25,2,3,0.0,0.0,5,48.0,30.0,3,0.501,1.0,52.179,0.0,0,2020-07-17 18:50:41.000,168,2020-07-17 18:51:29.074,0.25,-90,30,90,-30,1
3634,3,0,83.053,0,-60,1,0.25,2,3,0.0,0.0,5,48.0,30.0,3,0.451,0.0,84.899,0.12,1,2020-07-17 18:50:41.000,168,2020-07-17 18:52:04.053,0.25,90,30,90,150,1
3635,4,0,110.985,0,-60,1,0.25,2,3,0.0,0.0,5,48.0,30.0,3,0.476,0.0,112.645,0.12,1,2020-07-17 18:50:41.000,168,2020-07-17 18:52:31.985,0.25,90,30,90,150,1
3636,5,0,122.029,0,-60,1,0.25,2,3,0.0,0.0,5,48.0,30.0,3,0.526,0.0,123.647,0.12,1,2020-07-17 18:50:41.000,168,2020-07-17 18:52:43.029,0.25,90,30,90,150,1
3637,6,0,137.915,0,-60,1,0.25,2,3,0.0,0.0,5,48.0,30.0,3,0.551,1.0,139.66299999999998,0.0,0,2020-07-17 18:50:41.000,168,2020-07-17 18:52:58.915,0.25,-90,30,90,-30,1
3638,8,0,204.034,0,-60,1,0.25,2,3,0.0,0.0,5,48.0,30.0,3,0.526,1.0,205.256,0.0,0,2020-07-17 18:50:41.000,168,2020-07-17 18:54:05.034,0.25,-90,30,90,-30,1
3639,11,0,249.045,0,-60,1,0.25,2,3,0.0,0.0,5,48.0,30.0,3,0.501,0.0,251.085,0.12,1,2020-07-17 18:50:41.000,168,2020-07-17 18:54:50.045,0.25,90,30,90,150,1
3640,12,0,259.15,0,-60,1,0.25,2,3,0.0,0.0,5,48.0,30.0,3,0.451,0.0,261.288,0.12,1,2020-07-17 18:50:41.000,168,2020-07-17 18:55:00.150,0.25,90,30,90,150,1
3641,13,0,277.606,0,-60,1,0.25,2,3,0.0,0.0,5,48.0,30.0,3,0.476,0.0,279.525,0.12,1,2020-07-17 18:50:41.000,168,2020-07-17 18:55:18.606,0.25,90,30,90,150,1
3642,14,0,286.89,0,-60,1,0.25,2,9,0.0,0.0,11,48.0,30.0,9,0.551,1.0,289.189,0.19,1,2020-07-17 18:50:41.000,168,2020-07-17 18:55:27.890,0.25,-90,-150,-90,-30,1
3707,1,0,114.834,0,-30,1,0.25,2,9,0.0,0.0,11,48.0,30.0,9,0.451,1.0,116.665,0.19,1,2020-07-20 12:24:49.000,125,2020-07-20 12:26:43.834,0.25,-90,-150,-120,-60,1
3708,2,0,139.011,0,-30,1,0.25,2,9,0.0,0.0,11,48.0,30.0,9,0.551,0.0,140.69799999999998,0.0,0,2020-07-20 12:24:49.000,125,2020-07-20 12:27:08.011,0.25,90,-150,-120,120,1
3709,4,0,185.293,0,-30,1,0.25,2,9,0.0,0.0,11,48.0,30.0,9,0.476,1.0,187.147,0.19,1,2020-07-20 12:24:49.000,125,2020-07-20 12:27:54.293,0.25,-90,-150,-120,-60,1
3710,5,0,223.785,0,-30,1,0.25,2,9,0.0,0.0,11,48.0,30.0,9,0.501,1.0,224.955,0.19,1,2020-07-20 12:24:49.000,125,2020-07-20 12:28:32.785,0.25,-90,-150,-120,-60,1
3711,6,0,273.244,0,-30,1,0.25,2,3,0.0,0.0,5,48.0,30.0,3,0.526,1.0,274.762,0.0,0,2020-07-20 12:24:49.000,125,2020-07-20 12:29:22.244,0.25,-90,30,60,-60,1
3712,8,0,335.705,0,-30,1,0.25,2,9,0.0,0.0,11,48.0,30.0,9,0.476,1.0,337.5490000000001,0.19,1,2020-07-20 12:24:49.000,125,2020-07-20 12:30:24.705,0.25,-90,-150,-120,-60,1
3713,9,0,358.386,0,-30,1,0.25,2,9,0.0,0.0,11,48.0,30.0,9,0.526,1.0,360.341,0.19,1,2020-07-20 12:24:49.000,125,2020-07-20 12:30:47.386,0.25,-90,-150,-120,-60,1
3714,10,0,387.605,1,-30,1,0.25,2,3,0.0,0.0,5,48.0,30.0,3,0.501,0.0,389.319,0.12,1,2020-07-20 12:24:49.000,125,2020-07-20 12:31:16.605,0.25,90,30,60,120,1
3715,11,0,399.384,0,-30,1,0.25,2,9,0.0,0.0,11,48.0,30.0,9,0.551,0.0,403.455,0.0,0,2020-07-20 12:24:49.000,125,2020-07-20 12:31:28.384,0.25,90,-150,-120,120,1
3716,13,0,439.027,0,-30,1,0.25,2,3,0.0,0.0,5,48.0,30.0,3,0.451,1.0,442.957,0.0,0,2020-07-20 12:24:49.000,125,2020-07-20 12:32:08.027,0.25,-90,30,60,-60,1
3803,1,0,48.333,0,-60,1,0.25,2,9,0.0,0.0,11,48.0,30.0,9,0.551,1.0,51.163,0.19,1,2020-07-20 17:11:24.000,129,2020-07-20 17:12:12.333,0.25,-90,-150,-90,-30,1
3804,2,0,73.626,0,-60,1,0.25,2,9,0.0,0.0,11,48.0,30.0,9,0.451,1.0,79.34899999999998,0.19,1,2020-07-20 17:11:24.000,129,2020-07-20 17:12:37.626,0.25,-90,-150,-90,-30,1
3805,3,0,97.162,0,-60,1,0.25,2,9,0.0,0.0,11,48.0,30.0,9,0.526,0.0,99.551,0.0,0,2020-07-20 17:11:24.000,129,2020-07-20 17:13:01.162,0.25,90,-150,-90,150,1
3806,5,0,135.09799999999998,0,-60,1,0.25,2,3,0.0,0.0,5,48.0,30.0,3,0.501,0.0,136.697,0.12,1,2020-07-20 17:11:24.000,129,2020-07-20 17:13:39.098,0.25,90,30,90,150,1
3807,6,0,157.39600000000004,0,-60,1,0.25,2,9,0.0,0.0,11,48.0,30.0,9,0.476,1.0,158.775,0.19,1,2020-07-20 17:11:24.000,129,2020-07-20 17:14:01.396,0.25,-90,-150,-90,-30,1
3808,7,0,189.511,0,-60,1,0.25,2,3,0.0,0.0,5,48.0,30.0,3,0.501,0.0,191.441,0.12,1,2020-07-20 17:11:24.000,129,2020-07-20 17:14:33.511,0.25,90,30,90,150,1
3809,8,0,207.152,0,-60,1,0.25,2,3,0.0,0.0,5,48.0,30.0,3,0.476,1.0,208.665,0.0,0,2020-07-20 17:11:24.000,129,2020-07-20 17:14:51.152,0.25,-90,30,90,-30,1
3810,10,0,250.506,0,-60,1,0.25,2,3,0.0,0.0,5,48.0,30.0,3,0.451,0.0,252.563,0.12,1,2020-07-20 17:11:24.000,129,2020-07-20 17:15:34.506,0.25,90,30,90,150,1
3811,11,0,265.87,0,-60,1,0.25,2,3,0.0,0.0,5,48.0,30.0,3,0.526,0.0,267.946,0.12,1,2020-07-20 17:11:24.000,129,2020-07-20 17:15:49.870,0.25,90,30,90,150,1
3812,12,0,284.796,0,-60,1,0.25,2,3,0.0,0.0,5,48.0,30.0,3,0.551,0.0,286.552,0.12,1,2020-07-20 17:11:24.000,129,2020-07-20 17:16:08.796,0.25,90,30,90,150,1
3872,1,0,83.961,1,-90,1,0.25,2,9,0.0,0.0,11,48.0,30.0,9,0.451,1.0,88.40299999999998,0.19,1,2020-07-21 12:16:04.000,186,2020-07-21 12:17:27.961,0.25,-90,-150,-60,0,1
3873,2,0,111.623,0,-90,1,0.25,2,9,0.0,0.0,11,48.0,30.0,9,0.551,1.0,113.32,0.19,1,2020-07-21 12:16:04.000,186,2020-07-21 12:17:55.623,0.25,-90,-150,-60,0,1
3874,3,0,156.119,0,-90,1,0.25,2,9,0.0,0.0,11,48.0,30.0,9,0.526,1.0,157.754,0.19,1,2020-07-21 12:16:04.000,186,2020-07-21 12:18:40.119,0.25,-90,-150,-60,0,1
3875,4,0,178.89700000000005,0,-90,1,0.25,2,9,0.0,0.0,11,48.0,30.0,9,0.501,0.0,181.145,0.0,0,2020-07-21 12:16:04.000,186,2020-07-21 12:19:02.897,0.25,90,-150,-60,-180,1
3876,7,0,237.162,0,-90,1,0.25,2,9,0.0,0.0,11,48.0,30.0,9,0.476,1.0,239.623,0.19,1,2020-07-21 12:16:04.000,186,2020-07-21 12:20:01.162,0.25,-90,-150,-60,0,1
3877,8,0,264.499,0,-90,1,0.25,2,9,0.0,0.0,11,48.0,30.0,9,0.526,1.0,266.022,0.19,1,2020-07-21 12:16:04.000,186,2020-07-21 12:20:28.499,0.25,-90,-150,-60,0,1
3878,9,0,291.922,0,-90,1,0.25,2,9,0.0,0.0,11,48.0,30.0,9,0.451,1.0,293.931,0.19,1,2020-07-21 12:16:04.000,186,2020-07-21 12:20:55.922,0.25,-90,-150,-60,0,1
3879,10,0,325.574,0,-90,1,0.25,2,3,0.0,0.0,5,48.0,30.0,3,0.476,0.0,326.996,0.12,1,2020-07-21 12:16:04.000,186,2020-07-21 12:21:29.574,0.25,90,30,120,-180,1
3880,11,0,335.655,0,-90,1,0.25,2,9,0.0,0.0,11,48.0,30.0,9,0.501,0.0,337.53,0.0,0,2020-07-21 12:16:04.000,186,2020-07-21 12:21:39.655,0.25,90,-150,-60,-180,1
3881,13,0,369.687,0,-90,1,0.25,2,9,0.0,0.0,11,48.0,30.0,9,0.551,1.0,371.341,0.19,1,2020-07-21 12:16:04.000,186,2020-07-21 12:22:13.687,0.25,-90,-150,-60,0,1
3995,1,0,46.734,0,-120,1,0.25,2,9,0.0,0.0,11,48.0,30.0,9,0.501,0.0,49.442,0.0,0,2020-07-22 12:45:49.000,101,2020-07-22 12:46:35.734,0.25,90,-150,-30,-150,1
3996,3,0,88.446,0,-120,1,0.25,2,9,0.0,0.0,11,48.0,30.0,9,0.451,1.0,94.789,0.19,1,2020-07-22 12:45:49.000,101,2020-07-22 12:47:17.446,0.25,-90,-150,-30,30,1
3997,4,0,114.356,0,-120,1,0.25,2,9,0.0,0.0,11,48.0,30.0,9,0.551,1.0,118.215,0.19,1,2020-07-22 12:45:49.000,101,2020-07-22 12:47:43.356,0.25,-90,-150,-30,30,1
3998,5,0,135.974,0,-120,1,0.25,2,9,0.0,0.0,11,48.0,30.0,9,0.526,1.0,137.444,0.19,1,2020-07-22 12:45:49.000,101,2020-07-22 12:48:04.974,0.25,-90,-150,-30,30,1
3999,6,0,170.701,0,-120,1,0.25,2,3,0.0,0.0,5,48.0,30.0,3,0.476,1.0,172.704,0.0,0,2020-07-22 12:45:49.000,101,2020-07-22 12:48:39.701,0.25,-90,30,150,30,1
4000,9,0,247.415,0,-120,1,0.25,2,9,0.0,0.0,11,48.0,30.0,9,0.551,1.0,248.833,0.19,1,2020-07-22 12:45:49.000,101,2020-07-22 12:49:56.415,0.25,-90,-150,-30,30,1
4001,10,0,268.214,0,-120,1,0.25,2,3,0.0,0.0,5,48.0,30.0,3,0.451,1.0,269.698,0.0,0,2020-07-22 12:45:49.000,101,2020-07-22 12:50:17.214,0.25,-90,30,150,30,1
4004,15,0,376.659,0,-120,1,0.25,2,9,0.0,0.0,11,48.0,30.0,9,0.526,1.0,378.369,0.19,1,2020-07-22 12:45:49.000,101,2020-07-22 12:52:05.659,0.25,-90,-150,-30,30,1
4005,16,0,406.991,0,-120,1,0.25,2,3,0.0,0.0,5,48.0,30.0,3,0.476,0.0,408.554,0.12,1,2020-07-22 12:45:49.000,101,2020-07-22 12:52:35.991,0.25,90,30,150,-150,1
4006,17,0,418.223,0,-120,1,0.25,2,3,0.0,0.0,5,48.0,30.0,3,0.451,1.0,419.653,0.0,0,2020-07-22 12:45:49.000,101,2020-07-22 12:52:47.223,0.25,-90,30,150,30,1
4103,1,0,60.03,0,0,1,0.25,2,3,0.0,0.0,5,48.0,30.0,3,0.526,1.0,61.284,0.0,0,2020-08-03 11:30:59.000,198,2020-08-03 11:31:59.030,0.25,-90,30,30,-90,1
4104,3,0,100.221,0,0,1,0.25,2,9,0.0,0.0,11,48.0,30.0,9,0.476,1.0,101.464,0.18,1,2020-08-03 11:30:59.000,198,2020-08-03 11:32:39.221,0.25,-90,-150,-150,-90,1
4105,4,0,122.439,0,0,1,0.25,2,9,0.0,0.0,11,48.0,30.0,9,0.551,1.0,123.7,0.18,1,2020-08-03 11:30:59.000,198,2020-08-03 11:33:01.439,0.25,-90,-150,-150,-90,1
4106,5,0,162.047,0,0,1,0.25,2,3,0.0,0.0,5,48.0,30.0,3,0.501,1.0,163.472,0.0,0,2020-08-03 11:30:59.000,198,2020-08-03 11:33:41.047,0.25,-90,30,30,-90,1
4107,9,0,278.251,0,0,1,0.25,2,3,0.0,0.0,5,48.0,30.0,3,0.451,0.0,279.941,0.13,1,2020-08-03 11:30:59.000,198,2020-08-03 11:35:37.251,0.25,90,30,30,90,1
4108,10,0,287.7390000000001,0,0,1,0.25,2,3,0.0,0.0,5,48.0,30.0,3,0.551,0.0,289.16,0.13,1,2020-08-03 11:30:59.000,198,2020-08-03 11:35:46.739,0.25,90,30,30,90,1
4109,11,0,297.16,0,0,1,0.25,2,3,0.0,0.0,5,48.0,30.0,3,0.476,0.0,298.703,0.13,1,2020-08-03 11:30:59.000,198,2020-08-03 11:35:56.160,0.25,90,30,30,90,1
4110,12,0,307.983,0,0,1,0.25,2,9,0.0,0.0,11,48.0,30.0,9,0.526,1.0,309.2920000000001,0.18,1,2020-08-03 11:30:59.000,198,2020-08-03 11:36:06.983,0.25,-90,-150,-150,-90,1
4111,13,0,333.991,0,0,1,0.25,2,9,0.0,0.0,11,48.0,30.0,9,0.451,1.0,335.9240000000001,0.18,1,2020-08-03 11:30:59.000,198,2020-08-03 11:36:32.991,0.25,-90,-150,-150,-90,1
4112,14,0,354.634,0,0,1,0.25,2,9,0.0,0.0,11,48.0,30.0,9,0.501,1.0,356.587,0.18,1,2020-08-03 11:30:59.000,198,2020-08-03 11:36:53.634,0.25,-90,-150,-150,-90,1
4277,1,0,52.403,0,150,1,0.25,2,3,0.0,0.0,5,48.0,30.0,3,0.476,0.0,54.50899999999999,0.13,1,2020-08-05 11:54:19.000,115,2020-08-05 11:55:11.403,0.25,90,30,-120,-60,1
4278,2,0,70.002,0,150,1,0.25,2,3,0.0,0.0,5,48.0,30.0,3,0.551,0.0,71.282,0.13,1,2020-08-05 11:54:19.000,115,2020-08-05 11:55:29.002,0.25,90,30,-120,-60,1
4279,3,0,89.999,0,150,1,0.25,2,9,0.0,0.0,11,48.0,30.0,9,0.526,1.0,94.071,0.18,1,2020-08-05 11:54:19.000,115,2020-08-05 11:55:48.999,0.25,-90,-150,60,120,1
4280,4,0,117.511,0,150,1,0.25,2,9,0.0,0.0,11,48.0,30.0,9,0.451,1.0,119.36,0.18,1,2020-08-05 11:54:19.000,115,2020-08-05 11:56:16.511,0.25,-90,-150,60,120,1
4281,5,0,139.179,0,150,1,0.25,2,3,0.0,0.0,5,48.0,30.0,3,0.501,1.0,141.30100000000004,0.0,0,2020-08-05 11:54:19.000,115,2020-08-05 11:56:38.179,0.25,-90,30,-120,120,1
4282,7,0,153.312,0,150,1,0.25,2,3,0.0,0.0,5,48.0,30.0,3,0.476,0.0,155.857,0.13,1,2020-08-05 11:54:19.000,115,2020-08-05 11:56:52.312,0.25,90,30,-120,-60,1
4283,8,0,179.313,0,150,1,0.25,2,3,0.0,0.0,5,48.0,30.0,3,0.501,0.0,180.822,0.13,1,2020-08-05 11:54:19.000,115,2020-08-05 11:57:18.313,0.25,90,30,-120,-60,1
4284,9,0,194.249,0,150,1,0.25,2,3,0.0,0.0,5,48.0,30.0,3,0.551,0.0,196.032,0.13,1,2020-08-05 11:54:19.000,115,2020-08-05 11:57:33.249,0.25,90,30,-120,-60,1
4285,10,0,203.693,0,150,1,0.25,2,9,0.0,0.0,11,48.0,30.0,9,0.526,1.0,205.272,0.18,1,2020-08-05 11:54:19.000,115,2020-08-05 11:57:42.693,0.25,-90,-150,60,120,1
4286,11,0,226.193,0,150,1,0.25,2,3,0.0,0.0,5,48.0,30.0,3,0.451,1.0,227.978,0.0,0,2020-08-05 11:54:19.000,115,2020-08-05 11:58:05.193,0.25,-90,30,-120,120,1
4355,1,0,39.899,0,90,1,0.25,2,9,0.0,0.0,11,48.0,30.0,9,0.451,0.0,43.68600000000001,0.0,0,2020-08-05 17:32:28.000,172,2020-08-05 17:33:07.899,0.25,90,-150,120,0,1
4356,3,0,87.32,0,90,1,0.25,2,9,0.0,0.0,11,48.0,30.0,9,0.551,1.0,89.25200000000002,0.18,1,2020-08-05 17:32:28.000,172,2020-08-05 17:33:55.320,0.25,-90,-150,120,-180,1
4357,4,0,116.731,0,90,1,0.25,2,3,0.0,0.0,5,48.0,30.0,3,0.526,0.0,119.854,0.13,1,2020-08-05 17:32:28.000,172,2020-08-05 17:34:24.731,0.25,90,30,-60,0,1
4358,5,0,132.155,0,90,1,0.25,2,3,0.0,0.0,5,48.0,30.0,3,0.501,1.0,135.817,0.0,0,2020-08-05 17:32:28.000,172,2020-08-05 17:34:40.155,0.25,-90,30,-60,-180,1
4359,7,0,180.465,0,90,1,0.25,2,3,0.0,0.0,5,48.0,30.0,3,0.476,0.0,185.365,0.13,1,2020-08-05 17:32:28.000,172,2020-08-05 17:35:28.465,0.25,90,30,-60,0,1
4360,8,0,190.423,0,90,1,0.25,2,3,0.0,0.0,5,48.0,30.0,3,0.451,1.0,193.817,0.0,0,2020-08-05 17:32:28.000,172,2020-08-05 17:35:38.423,0.25,-90,30,-60,-180,1
4361,10,0,217.847,0,90,1,0.25,2,3,0.0,0.0,5,48.0,30.0,3,0.476,0.0,220.27,0.13,1,2020-08-05 17:32:28.000,172,2020-08-05 17:36:05.847,0.25,90,30,-60,0,1
4362,11,0,226.693,0,90,1,0.25,2,9,0.0,0.0,11,48.0,30.0,9,0.551,1.0,229.115,0.18,1,2020-08-05 17:32:28.000,172,2020-08-05 17:36:14.693,0.25,-90,-150,120,-180,1
4363,12,0,254.295,0,90,1,0.25,2,9,0.0,0.0,11,48.0,30.0,9,0.526,1.0,256.023,0.18,1,2020-08-05 17:32:28.000,172,2020-08-05 17:36:42.295,0.25,-90,-150,120,-180,1
4364,13,0,302.185,0,90,1,0.25,2,9,0.0,0.0,11,48.0,30.0,9,0.501,1.0,304.236,0.18,1,2020-08-05 17:32:28.000,172,2020-08-05 17:37:30.185,0.25,-90,-150,120,-180,1
4408,1,0,100.887,1,-60,1,0.25,2,3,0.0,0.0,5,48.0,30.0,3,0.476,0.0,110.455,0.13,1,2020-08-06 11:25:49.000,130,2020-08-06 11:27:29.887,0.25,90,30,90,150,1
4409,2,0,123.4,1,-60,1,0.25,2,3,0.0,0.0,5,48.0,30.0,3,0.451,0.0,132.644,0.13,1,2020-08-06 11:25:49.000,130,2020-08-06 11:27:52.400,0.25,90,30,90,150,1
4410,3,0,138.731,0,-60,1,0.25,2,9,0.0,0.0,11,48.0,30.0,9,0.501,0.0,141.99200000000005,0.0,0,2020-08-06 11:25:49.000,130,2020-08-06 11:28:07.731,0.25,90,-150,-90,150,1
4411,5,0,179.13099999999997,0,-60,1,0.25,2,3,0.0,0.0,5,48.0,30.0,3,0.551,0.0,180.802,0.13,1,2020-08-06 11:25:49.000,130,2020-08-06 11:28:48.131,0.25,90,30,90,150,1
4412,6,0,202.992,0,-60,1,0.25,2,3,0.0,0.0,5,48.0,30.0,3,0.526,0.0,205.124,0.13,1,2020-08-06 11:25:49.000,130,2020-08-06 11:29:11.992,0.25,90,30,90,150,1
4413,7,0,219.767,0,-60,1,0.25,2,9,0.0,0.0,11,48.0,30.0,9,0.501,1.0,221.219,0.18,1,2020-08-06 11:25:49.000,130,2020-08-06 11:29:28.767,0.25,-90,-150,-90,-30,1
4414,8,0,237.912,0,-60,1,0.25,2,3,0.0,0.0,5,48.0,30.0,3,0.476,1.0,239.759,0.0,0,2020-08-06 11:25:49.000,130,2020-08-06 11:29:46.912,0.25,-90,30,90,-30,1
4415,11,0,277.17900000000003,0,-60,1,0.25,2,3,0.0,0.0,5,48.0,30.0,3,0.526,0.0,278.931,0.13,1,2020-08-06 11:25:49.000,130,2020-08-06 11:30:26.179,0.25,90,30,90,150,1
4416,12,0,292.99,0,-60,1,0.25,2,3,0.0,0.0,5,48.0,30.0,3,0.551,0.0,294.343,0.13,1,2020-08-06 11:25:49.000,130,2020-08-06 11:30:41.990,0.25,90,30,90,150,1
4417,13,0,301.454,0,-60,1,0.25,2,9,0.0,0.0,11,48.0,30.0,9,0.451,1.0,303.483,0.18,1,2020-08-06 11:25:49.000,130,2020-08-06 11:30:50.454,0.25,-90,-150,-90,-30,1
4483,1,0,25.963,0,180,1,0.25,2,3,0.0,0.0,5,48.0,30.0,3,0.451,1.0,29.598000000000006,0.0,0,2020-08-06 17:13:01.000,122,2020-08-06 17:13:26.963,0.25,-90,30,-150,90,1
4484,3,0,68.215,0,180,1,0.25,2,9,0.0,0.0,11,48.0,30.0,9,0.476,0.0,70.006,0.0,0,2020-08-06 17:13:01.000,122,2020-08-06 17:14:09.215,0.25,90,-150,30,-90,1
4485,5,0,109.786,0,180,1,0.25,2,9,0.0,0.0,11,48.0,30.0,9,0.551,1.0,111.076,0.18,1,2020-08-06 17:13:01.000,122,2020-08-06 17:14:50.786,0.25,-90,-150,30,90,1
4486,6,0,133.57,0,180,1,0.25,2,3,0.0,0.0,5,48.0,30.0,3,0.526,0.0,135.609,0.13,1,2020-08-06 17:13:01.000,122,2020-08-06 17:15:14.570,0.25,90,30,-150,-90,1
4487,7,0,159.39,0,180,1,0.25,2,9,0.0,0.0,11,48.0,30.0,9,0.501,1.0,163.322,0.18,1,2020-08-06 17:13:01.000,122,2020-08-06 17:15:40.390,0.25,-90,-150,30,90,1
4488,8,0,188.542,1,180,1,0.25,2,3,0.0,0.0,5,48.0,30.0,3,0.501,1.0,195.553,0.0,0,2020-08-06 17:13:01.000,122,2020-08-06 17:16:09.542,0.25,-90,30,-150,90,1
4489,10,0,218.558,0,180,1,0.25,2,3,0.0,0.0,5,48.0,30.0,3,0.451,0.0,224.079,0.13,1,2020-08-06 17:13:01.000,122,2020-08-06 17:16:39.558,0.25,90,30,-150,-90,1
4490,11,0,229.885,0,180,1,0.25,2,9,0.0,0.0,11,48.0,30.0,9,0.476,0.0,231.973,0.0,0,2020-08-06 17:13:01.000,122,2020-08-06 17:16:50.885,0.25,90,-150,30,-90,1
4491,13,0,261.04400000000004,0,180,1,0.25,2,3,0.0,0.0,5,48.0,30.0,3,0.526,1.0,263.205,0.0,0,2020-08-06 17:13:01.000,122,2020-08-06 17:17:22.044,0.25,-90,30,-150,90,1
4492,15,0,276.313,0,180,1,0.25,2,9,0.0,0.0,11,48.0,30.0,9,0.551,1.0,278.106,0.18,1,2020-08-06 17:13:01.000,122,2020-08-06 17:17:37.313,0.25,-90,-150,30,90,1
4560,1,0,59.593,0,60,1,0.25,2,3,0.0,0.0,5,48.0,30.0,3,0.551,0.0,65.268,0.13,1,2020-08-07 11:54:21.000,201,2020-08-07 11:55:20.593,0.25,90,30,-30,30,1
4561,2,0,75.53,0,60,1,0.25,2,3,0.0,0.0,5,48.0,30.0,3,0.526,1.0,78.015,0.0,0,2020-08-07 11:54:21.000,201,2020-08-07 11:55:36.530,0.25,-90,30,-30,-150,1
4562,5,0,138.843,0,60,1,0.25,2,9,0.0,0.0,11,48.0,30.0,9,0.451,1.0,140.139,0.18,1,2020-08-07 11:54:21.000,201,2020-08-07 11:56:39.843,0.25,-90,-150,150,-150,1
4563,6,0,155.832,0,60,1,0.25,2,3,0.0,0.0,5,48.0,30.0,3,0.476,0.0,157.576,0.13,1,2020-08-07 11:54:21.000,201,2020-08-07 11:56:56.832,0.25,90,30,-30,30,1
4564,7,0,164.45,0,60,1,0.25,2,9,0.0,0.0,11,48.0,30.0,9,0.501,1.0,167.082,0.18,1,2020-08-07 11:54:21.000,201,2020-08-07 11:57:05.450,0.25,-90,-150,150,-150,1
4565,8,0,193.061,1,60,1,0.25,2,3,0.0,0.0,5,48.0,30.0,3,0.551,1.0,200.728,0.0,0,2020-08-07 11:54:21.000,201,2020-08-07 11:57:34.061,0.25,-90,30,-30,-150,1
4567,12,0,236.66,0,60,1,0.25,2,3,0.0,0.0,5,48.0,30.0,3,0.476,0.0,239.064,0.13,1,2020-08-07 11:54:21.000,201,2020-08-07 11:58:17.660,0.25,90,30,-30,30,1
4569,14,0,266.783,0,60,1,0.25,2,9,0.0,0.0,11,48.0,30.0,9,0.451,1.0,269.035,0.18,1,2020-08-07 11:54:21.000,201,2020-08-07 11:58:47.783,0.25,-90,-150,150,-150,1
4570,15,0,289.288,0,60,1,0.25,2,9,0.0,0.0,11,48.0,30.0,9,0.476,0.0,290.883,0.0,0,2020-08-07 11:54:21.000,201,2020-08-07 11:59:10.288,0.25,90,-150,150,30,1
4571,17,0,320.675,0,60,1,0.25,2,9,0.0,0.0,11,48.0,30.0,9,0.526,1.0,322.628,0.18,1,2020-08-07 11:54:21.000,201,2020-08-07 11:59:41.675,0.25,-90,-150,150,-150,1
4657,1,0,48.31399999999999,0,90,1,0.25,2,3,0.0,0.0,5,48.0,30.0,3,0.526,1.0,50.15600000000001,0.0,0,2020-08-07 17:18:59.000,146,2020-08-07 17:19:47.314,0.25,-90,30,-60,-180,1
4658,4,0,96.777,0,90,1,0.25,2,9,0.0,0.0,11,48.0,30.0,9,0.551,1.0,99.642,0.18,1,2020-08-07 17:18:59.000,146,2020-08-07 17:20:35.777,0.25,-90,-150,120,-180,1
4659,5,0,120.431,0,90,1,0.25,2,9,0.0,0.0,11,48.0,30.0,9,0.501,1.0,122.495,0.18,1,2020-08-07 17:18:59.000,146,2020-08-07 17:20:59.431,0.25,-90,-150,120,-180,1
4660,6,0,140.664,0,90,1,0.25,2,9,0.0,0.0,11,48.0,30.0,9,0.451,1.0,142.472,0.18,1,2020-08-07 17:18:59.000,146,2020-08-07 17:21:19.664,0.25,-90,-150,120,-180,1
4661,7,0,172.236,0,90,1,0.25,2,9,0.0,0.0,11,48.0,30.0,9,0.476,1.0,174.15400000000002,0.18,1,2020-08-07 17:18:59.000,146,2020-08-07 17:21:51.236,0.25,-90,-150,120,-180,1
4662,8,0,203.435,0,90,1,0.25,2,3,0.0,0.0,5,48.0,30.0,3,0.501,0.0,205.269,0.13,1,2020-08-07 17:18:59.000,146,2020-08-07 17:22:22.435,0.25,90,30,-60,0,1
4663,9,0,210.806,0,90,1,0.25,2,9,0.0,0.0,11,48.0,30.0,9,0.526,1.0,212.624,0.18,1,2020-08-07 17:18:59.000,146,2020-08-07 17:22:29.806,0.25,-90,-150,120,-180,1
4664,10,0,242.763,0,90,1,0.25,2,9,0.0,0.0,11,48.0,30.0,9,0.476,0.0,244.669,0.0,0,2020-08-07 17:18:59.000,146,2020-08-07 17:23:01.763,0.25,90,-150,120,0,1
4665,12,0,286.005,0,90,1,0.25,2,9,0.0,0.0,11,48.0,30.0,9,0.451,0.0,288.395,0.0,0,2020-08-07 17:18:59.000,146,2020-08-07 17:23:45.005,0.25,90,-150,120,0,1
4666,15,0,352.9380000000001,0,90,1,0.25,2,3,0.0,0.0,5,48.0,30.0,3,0.551,1.0,358.218,0.0,0,2020-08-07 17:18:59.000,146,2020-08-07 17:24:51.938,0.25,-90,30,-60,-180,1
4726,1,0,54.813,0,-30,1,0.25,2,3,0.0,0.0,5,48.0,30.0,3,0.451,0.0,56.355,0.13,1,2020-08-11 11:27:43.000,200,2020-08-11 11:28:37.813,0.25,90,30,60,120,1
4727,2,0,61.952,0,-30,1,0.25,2,3,0.0,0.0,5,48.0,30.0,3,0.526,0.0,63.219,0.13,1,2020-08-11 11:27:43.000,200,2020-08-11 11:28:44.952,0.25,90,30,60,120,1
4728,3,0,70.339,0,-30,1,0.25,2,9,0.0,0.0,11,48.0,30.0,9,0.476,1.0,72.067,0.18,1,2020-08-11 11:27:43.000,200,2020-08-11 11:28:53.339,0.25,-90,-150,-120,-60,1
4729,4,0,85.426,0,-30,1,0.25,2,3,0.0,0.0,5,48.0,30.0,3,0.501,0.0,86.804,0.13,1,2020-08-11 11:27:43.000,200,2020-08-11 11:29:08.426,0.25,90,30,60,120,1
4730,5,0,100.388,0,-30,1,0.25,2,3,0.0,0.0,5,48.0,30.0,3,0.551,0.0,102.176,0.13,1,2020-08-11 11:27:43.000,200,2020-08-11 11:29:23.388,0.25,90,30,60,120,1
4731,6,0,108.3,0,-30,1,0.25,2,9,0.0,0.0,11,48.0,30.0,9,0.501,1.0,109.493,0.18,1,2020-08-11 11:27:43.000,200,2020-08-11 11:29:31.300,0.25,-90,-150,-120,-60,1
4732,7,0,123.493,0,-30,1,0.25,2,9,0.0,0.0,11,48.0,30.0,9,0.551,1.0,125.365,0.18,1,2020-08-11 11:27:43.000,200,2020-08-11 11:29:46.493,0.25,-90,-150,-120,-60,1
4733,8,0,146.02200000000005,0,-30,1,0.25,2,9,0.0,0.0,11,48.0,30.0,9,0.476,0.0,147.738,0.0,0,2020-08-11 11:27:43.000,200,2020-08-11 11:30:09.022,0.25,90,-150,-120,120,1
4734,11,0,212.513,0,-30,1,0.25,2,3,0.0,0.0,5,48.0,30.0,3,0.526,0.0,214.075,0.13,1,2020-08-11 11:27:43.000,200,2020-08-11 11:31:15.513,0.25,90,30,60,120,1
4735,12,0,219.897,0,-30,1,0.25,2,9,0.0,0.0,11,48.0,30.0,9,0.451,1.0,221.953,0.18,1,2020-08-11 11:27:43.000,200,2020-08-11 11:31:22.897,0.25,-90,-150,-120,-60,1
4756,1,0,46.01600000000001,0,30,1,0.25,2,3,0.0,0.0,5,48.0,30.0,3,0.526,0.0,52.017,0.13,1,2020-08-11 16:54:17.000,126,2020-08-11 16:55:03.016,0.25,90,30,0,60,1
4757,2,0,57.79600000000001,0,30,1,0.25,2,3,0.0,0.0,5,48.0,30.0,3,0.551,1.0,59.441,0.0,0,2020-08-11 16:54:17.000,126,2020-08-11 16:55:14.796,0.25,-90,30,0,-120,1
4758,4,0,96.28,0,30,1,0.25,2,9,0.0,0.0,11,48.0,30.0,9,0.451,0.0,97.927,0.0,0,2020-08-11 16:54:17.000,126,2020-08-11 16:55:53.280,0.25,90,-150,-180,60,1
4759,6,0,130.502,0,30,1,0.25,2,9,0.0,0.0,11,48.0,30.0,9,0.501,1.0,132.418,0.18,1,2020-08-11 16:54:17.000,126,2020-08-11 16:56:27.502,0.25,-90,-150,-180,-120,1
4760,7,0,152.776,0,30,1,0.25,2,3,0.0,0.0,5,48.0,30.0,3,0.476,0.0,155.784,0.13,1,2020-08-11 16:54:17.000,126,2020-08-11 16:56:49.776,0.25,90,30,0,60,1
4761,8,0,161.785,0,30,1,0.25,2,9,0.0,0.0,11,48.0,30.0,9,0.526,1.0,163.319,0.18,1,2020-08-11 16:54:17.000,126,2020-08-11 16:56:58.785,0.25,-90,-150,-180,-120,1
4762,9,0,188.57,0,30,1,0.25,2,3,0.0,0.0,5,48.0,30.0,3,0.476,1.0,190.649,0.0,0,2020-08-11 16:54:17.000,126,2020-08-11 16:57:25.570,0.25,-90,30,0,-120,1
4763,12,0,216.129,0,30,1,0.25,2,3,0.0,0.0,5,48.0,30.0,3,0.451,0.0,217.414,0.13,1,2020-08-11 16:54:17.000,126,2020-08-11 16:57:53.129,0.25,90,30,0,60,1
4764,13,0,224.785,0,30,1,0.25,2,3,0.0,0.0,5,48.0,30.0,3,0.551,0.0,226.194,0.13,1,2020-08-11 16:54:17.000,126,2020-08-11 16:58:01.785,0.25,90,30,0,60,1
4765,14,0,251.844,0,30,1,0.25,2,9,0.0,0.0,11,48.0,30.0,9,0.501,0.0,253.66,0.0,0,2020-08-11 16:54:17.000,126,2020-08-11 16:58:28.844,0.25,90,-150,-180,60,1
4900,1,0,107.829,0,-30,1,0.25,2,3,0.0,0.0,5,48.0,30.0,3,0.551,1.0,109.858,0.0,0,2020-08-12 17:10:53.000,103,2020-08-12 17:12:40.829,0.25,-90,30,60,-60,1
4901,3,0,155.849,0,-30,1,0.25,2,3,0.0,0.0,5,48.0,30.0,3,0.526,0.0,157.349,0.13,1,2020-08-12 17:10:53.000,103,2020-08-12 17:13:28.849,0.25,90,30,60,120,1
4902,4,0,169.77,1,-30,1,0.25,2,3,0.0,0.0,5,48.0,30.0,3,0.451,0.0,178.736,0.13,1,2020-08-12 17:10:53.000,103,2020-08-12 17:13:42.770,0.25,90,30,60,120,1
4903,5,0,185.011,0,-30,1,0.25,2,9,0.0,0.0,11,48.0,30.0,9,0.501,0.0,188.701,0.0,0,2020-08-12 17:10:53.000,103,2020-08-12 17:13:58.011,0.25,90,-150,-120,120,1
4904,7,0,210.152,0,-30,1,0.25,2,3,0.0,0.0,5,48.0,30.0,3,0.476,1.0,212.508,0.0,0,2020-08-12 17:10:53.000,103,2020-08-12 17:14:23.152,0.25,-90,30,60,-60,1
4905,9,0,227.305,0,-30,1,0.25,2,3,0.0,0.0,5,48.0,30.0,3,0.551,1.0,229.778,0.0,0,2020-08-12 17:10:53.000,103,2020-08-12 17:14:40.305,0.25,-90,30,60,-60,1
4906,11,0,249.919,0,-30,1,0.25,2,9,0.0,0.0,11,48.0,30.0,9,0.476,1.0,252.743,0.18,1,2020-08-12 17:10:53.000,103,2020-08-12 17:15:02.919,0.25,-90,-150,-120,-60,1
4907,12,0,271.157,1,-30,1,0.25,2,9,0.0,0.0,11,48.0,30.0,9,0.451,0.0,282.513,0.0,0,2020-08-12 17:10:53.000,103,2020-08-12 17:15:24.157,0.25,90,-150,-120,120,1
4909,15,0,327.777,0,-30,1,0.25,2,9,0.0,0.0,11,48.0,30.0,9,0.501,1.0,329.969,0.18,1,2020-08-12 17:10:53.000,103,2020-08-12 17:16:20.777,0.25,-90,-150,-120,-60,1
4910,16,0,357.455,0,-30,1,0.25,2,9,0.0,0.0,11,48.0,30.0,9,0.526,1.0,359.57,0.18,1,2020-08-12 17:10:53.000,103,2020-08-12 17:16:50.455,0.25,-90,-150,-120,-60,1
4958,1,0,55.06,0,180,1,0.25,2,9,0.0,0.0,11,48.0,30.0,9,0.526,0.0,65.546,0.0,0,2020-08-13 11:35:01.000,142,2020-08-13 11:35:56.060,0.25,90,-150,30,-90,1
4959,3,0,95.751,0,180,1,0.25,2,9,0.0,0.0,11,48.0,30.0,9,0.476,1.0,97.549,0.18,1,2020-08-13 11:35:01.000,142,2020-08-13 11:36:36.751,0.25,-90,-150,30,90,1
4960,4,0,118.762,0,180,1,0.25,2,3,0.0,0.0,5,48.0,30.0,3,0.551,0.0,121.364,0.13,1,2020-08-13 11:35:01.000,142,2020-08-13 11:36:59.762,0.25,90,30,-150,-90,1
4961,5,0,132.36,0,180,1,0.25,2,9,0.0,0.0,11,48.0,30.0,9,0.451,1.0,133.809,0.18,1,2020-08-13 11:35:01.000,142,2020-08-13 11:37:13.360,0.25,-90,-150,30,90,1
4962,6,0,154.69899999999996,0,180,1,0.25,2,3,0.0,0.0,5,48.0,30.0,3,0.501,1.0,156.594,0.0,0,2020-08-13 11:35:01.000,142,2020-08-13 11:37:35.699,0.25,-90,30,-150,90,1
4963,9,0,178.972,0,180,1,0.25,2,3,0.0,0.0,5,48.0,30.0,3,0.551,0.0,180.238,0.13,1,2020-08-13 11:35:01.000,142,2020-08-13 11:37:59.972,0.25,90,30,-150,-90,1
4964,10,0,218.377,0,180,1,0.25,2,3,0.0,0.0,5,48.0,30.0,3,0.501,1.0,219.495,0.0,0,2020-08-13 11:35:01.000,142,2020-08-13 11:38:39.377,0.25,-90,30,-150,90,1
4965,12,0,239.199,0,180,1,0.25,2,9,0.0,0.0,11,48.0,30.0,9,0.451,0.0,243.525,0.0,0,2020-08-13 11:35:01.000,142,2020-08-13 11:39:00.199,0.25,90,-150,30,-90,1
4966,14,0,285.118,0,180,1,0.25,2,9,0.0,0.0,11,48.0,30.0,9,0.526,1.0,286.752,0.18,1,2020-08-13 11:35:01.000,142,2020-08-13 11:39:46.118,0.25,-90,-150,30,90,1
4967,15,0,303.455,0,180,1,0.25,2,3,0.0,0.0,5,48.0,30.0,3,0.476,0.0,305.41,0.13,1,2020-08-13 11:35:01.000,142,2020-08-13 11:40:04.455,0.25,90,30,-150,-90,1
5022,1,0,60.82100000000001,0,-30,1,0.25,2,9,0.0,0.0,11,48.0,30.0,9,0.501,0.0,63.209,0.0,0,2020-08-13 17:00:40.000,98,2020-08-13 17:01:40.821,0.25,90,-150,-120,120,1
5023,3,0,103.513,0,-30,1,0.25,2,3,0.0,0.0,5,48.0,30.0,3,0.451,0.0,105.368,0.13,1,2020-08-13 17:00:40.000,98,2020-08-13 17:02:23.513,0.25,90,30,60,120,1
5024,4,0,112.279,0,-30,1,0.25,2,3,0.0,0.0,5,48.0,30.0,3,0.526,1.0,116.252,0.0,0,2020-08-13 17:00:40.000,98,2020-08-13 17:02:32.279,0.25,-90,30,60,-60,1
5025,6,0,141.968,0,-30,1,0.25,2,3,0.0,0.0,5,48.0,30.0,3,0.551,0.0,144.023,0.13,1,2020-08-13 17:00:40.000,98,2020-08-13 17:03:01.968,0.25,90,30,60,120,1
5026,7,0,151.839,0,-30,1,0.25,2,3,0.0,0.0,5,48.0,30.0,3,0.476,0.0,153.495,0.13,1,2020-08-13 17:00:40.000,98,2020-08-13 17:03:11.839,0.25,90,30,60,120,1
5027,8,0,159.67600000000004,0,-30,1,0.25,2,3,0.0,0.0,5,48.0,30.0,3,0.451,0.0,161.925,0.13,1,2020-08-13 17:00:40.000,98,2020-08-13 17:03:19.676,0.25,90,30,60,120,1
5028,9,0,169.632,0,-30,1,0.25,2,3,0.0,0.0,5,48.0,30.0,3,0.501,0.0,171.299,0.13,1,2020-08-13 17:00:40.000,98,2020-08-13 17:03:29.632,0.25,90,30,60,120,1
5029,10,0,178.832,1,-30,1,0.25,2,9,0.0,0.0,11,48.0,30.0,9,0.476,1.0,188.876,0.18,1,2020-08-13 17:00:40.000,98,2020-08-13 17:03:38.832,0.25,-90,-150,-120,-60,1
5030,11,0,210.397,0,-30,1,0.25,2,3,0.0,0.0,5,48.0,30.0,3,0.526,0.0,212.779,0.13,1,2020-08-13 17:00:40.000,98,2020-08-13 17:04:10.397,0.25,90,30,60,120,1
5031,12,0,220.546,0,-30,1,0.25,2,3,0.0,0.0,5,48.0,30.0,3,0.551,0.0,222.873,0.13,1,2020-08-13 17:00:40.000,98,2020-08-13 17:04:20.546,0.25,90,30,60,120,1
5102,1,0,50.856,1,150,1,0.25,2,3,0.0,0.0,5,48.0,30.0,3,0.551,1.0,58.06,0.0,0,2020-08-14 11:39:08.000,162,2020-08-14 11:39:58.856,0.25,-90,30,-120,120,1
5103,3,0,75.491,0,150,1,0.25,2,3,0.0,0.0,5,48.0,30.0,3,0.451,0.0,77.419,0.13,1,2020-08-14 11:39:08.000,162,2020-08-14 11:40:23.491,0.25,90,30,-120,-60,1
5104,4,0,96.855,0,150,1,0.25,2,3,0.0,0.0,5,48.0,30.0,3,0.526,0.0,99.09,0.13,1,2020-08-14 11:39:08.000,162,2020-08-14 11:40:44.855,0.25,90,30,-120,-60,1
5105,5,0,106.271,0,150,1,0.25,2,9,0.0,0.0,11,48.0,30.0,9,0.476,1.0,107.84,0.18,1,2020-08-14 11:39:08.000,162,2020-08-14 11:40:54.271,0.25,-90,-150,60,120,1
5106,6,0,126.343,0,150,1,0.25,2,3,0.0,0.0,5,48.0,30.0,3,0.501,0.0,127.93,0.13,1,2020-08-14 11:39:08.000,162,2020-08-14 11:41:14.343,0.25,90,30,-120,-60,1
5107,7,0,134.19299999999998,0,150,1,0.25,2,3,0.0,0.0,5,48.0,30.0,3,0.551,0.0,135.575,0.13,1,2020-08-14 11:39:08.000,162,2020-08-14 11:41:22.193,0.25,90,30,-120,-60,1
5108,8,0,142.718,0,150,1,0.25,2,9,0.0,0.0,11,48.0,30.0,9,0.526,0.0,144.09799999999996,0.0,0,2020-08-14 11:39:08.000,162,2020-08-14 11:41:30.718,0.25,90,-150,60,-60,1
5109,10,0,181.48,0,150,1,0.25,2,9,0.0,0.0,11,48.0,30.0,9,0.451,1.0,185.006,0.18,1,2020-08-14 11:39:08.000,162,2020-08-14 11:42:09.480,0.25,-90,-150,60,120,1
5110,11,0,204.371,0,150,1,0.25,2,9,0.0,0.0,11,48.0,30.0,9,0.501,1.0,206.865,0.18,1,2020-08-14 11:39:08.000,162,2020-08-14 11:42:32.371,0.25,-90,-150,60,120,1
5111,12,0,236.044,0,150,1,0.25,2,9,0.0,0.0,11,48.0,30.0,9,0.476,1.0,238.852,0.18,1,2020-08-14 11:39:08.000,162,2020-08-14 11:43:04.044,0.25,-90,-150,60,120,1
5279,1,0,72.725,0,-30,1,0.25,2,9,0.0,0.0,11,48.0,30.0,9,0.476,1.0,74.857,0.18,1,2020-08-17 11:25:15.000,183,2020-08-17 11:26:27.725,0.25,-90,-150,-120,-60,1
5280,2,0,119.306,0,-30,1,0.25,2,3,0.0,0.0,5,48.0,30.0,3,0.501,1.0,121.785,0.0,0,2020-08-17 11:25:15.000,183,2020-08-17 11:27:14.306,0.25,-90,30,60,-60,1
5281,5,0,147.686,0,-30,1,0.25,2,9,0.0,0.0,11,48.0,30.0,9,0.526,1.0,149.594,0.18,1,2020-08-17 11:25:15.000,183,2020-08-17 11:27:42.686,0.25,-90,-150,-120,-60,1
5282,6,0,165.485,0,-30,1,0.25,2,9,0.0,0.0,11,48.0,30.0,9,0.451,1.0,167.134,0.18,1,2020-08-17 11:25:15.000,183,2020-08-17 11:28:00.485,0.25,-90,-150,-120,-60,1
5283,7,0,196.57,0,-30,1,0.25,2,3,0.0,0.0,5,48.0,30.0,3,0.551,0.0,198.026,0.13,1,2020-08-17 11:25:15.000,183,2020-08-17 11:28:31.570,0.25,90,30,60,120,1
5284,8,0,206.945,0,-30,1,0.25,2,3,0.0,0.0,5,48.0,30.0,3,0.501,1.0,208.66,0.0,0,2020-08-17 11:25:15.000,183,2020-08-17 11:28:41.945,0.25,-90,30,60,-60,1
5285,10,0,250.445,0,-30,1,0.25,2,9,0.0,0.0,11,48.0,30.0,9,0.476,1.0,252.039,0.18,1,2020-08-17 11:25:15.000,183,2020-08-17 11:29:25.445,0.25,-90,-150,-120,-60,1
5286,11,0,295.471,0,-30,1,0.25,2,9,0.0,0.0,11,48.0,30.0,9,0.526,1.0,297.139,0.18,1,2020-08-17 11:25:15.000,183,2020-08-17 11:30:10.471,0.25,-90,-150,-120,-60,1
5287,12,0,326.056,0,-30,1,0.25,2,9,0.0,0.0,11,48.0,30.0,9,0.451,1.0,327.802,0.18,1,2020-08-17 11:25:15.000,183,2020-08-17 11:30:41.056,0.25,-90,-150,-120,-60,1
5288,13,0,346.776,0,-30,1,0.25,2,9,0.0,0.0,11,48.0,30.0,9,0.551,1.0,349.3180000000001,0.18,1,2020-08-17 11:25:15.000,183,2020-08-17 11:31:01.776,0.25,-90,-150,-120,-60,1
5332,1,0,67.61399999999999,0,-120,1,0.25,2,9,0.0,0.0,11,48.0,30.0,9,0.476,0.0,69.723,0.0,0,2020-08-17 16:39:56.000,199,2020-08-17 16:41:03.614,0.25,90,-150,-30,-150,1
5333,4,0,109.233,0,-120,1,0.25,2,3,0.0,0.0,5,48.0,30.0,3,0.451,0.0,111.877,0.13,1,2020-08-17 16:39:56.000,199,2020-08-17 16:41:45.233,0.25,90,30,150,-150,1
5334,5,0,156.377,0,-120,1,0.25,2,3,0.0,0.0,5,48.0,30.0,3,0.526,0.0,159.045,0.13,1,2020-08-17 16:39:56.000,199,2020-08-17 16:42:32.377,0.25,90,30,150,-150,1
5335,6,0,176.18200000000004,0,-120,1,0.25,2,3,0.0,0.0,5,48.0,30.0,3,0.501,0.0,178.25599999999997,0.13,1,2020-08-17 16:39:56.000,199,2020-08-17 16:42:52.182,0.25,90,30,150,-150,1
5336,7,0,197.967,0,-120,1,0.25,2,3,0.0,0.0,5,48.0,30.0,3,0.551,1.0,199.502,0.0,0,2020-08-17 16:39:56.000,199,2020-08-17 16:43:13.967,0.25,-90,30,150,30,1
5337,9,0,223.872,0,-120,1,0.25,2,9,0.0,0.0,11,48.0,30.0,9,0.501,0.0,227.11,0.0,0,2020-08-17 16:39:56.000,199,2020-08-17 16:43:39.872,0.25,90,-150,-30,-150,1
5338,11,0,268.286,0,-120,1,0.25,2,9,0.0,0.0,11,48.0,30.0,9,0.551,1.0,269.884,0.18,1,2020-08-17 16:39:56.000,199,2020-08-17 16:44:24.286,0.25,-90,-150,-30,30,1
5339,12,0,312.471,0,-120,1,0.25,2,3,0.0,0.0,5,48.0,30.0,3,0.526,1.0,314.626,0.0,0,2020-08-17 16:39:56.000,199,2020-08-17 16:45:08.471,0.25,-90,30,150,30,1
5340,14,0,349.654,0,-120,1,0.25,2,9,0.0,0.0,11,48.0,30.0,9,0.451,0.0,352.417,0.0,0,2020-08-17 16:39:56.000,199,2020-08-17 16:45:45.654,0.25,90,-150,-30,-150,1
5342,17,0,401.471,0,-120,1,0.25,2,3,0.0,0.0,5,48.0,30.0,3,0.526,0.0,403.68,0.13,1,2020-08-17 16:39:56.000,199,2020-08-17 16:46:37.471,0.25,90,30,150,-150,1
5385,1,0,77.911,0,-90,1,0.25,2,9,0.0,0.0,11,48.0,30.0,9,0.451,0.0,80.021,0.0,0,2020-08-18 11:16:25.000,133,2020-08-18 11:17:42.911,0.25,90,-150,-60,-180,1
5386,3,0,124.976,0,-90,1,0.25,2,9,0.0,0.0,11,48.0,30.0,9,0.526,1.0,126.55,0.18,1,2020-08-18 11:16:25.000,133,2020-08-18 11:18:29.976,0.25,-90,-150,-60,0,1
5387,4,0,148.832,0,-90,1,0.25,2,3,0.0,0.0,5,48.0,30.0,3,0.476,0.0,150.704,0.13,1,2020-08-18 11:16:25.000,133,2020-08-18 11:18:53.832,0.25,90,30,120,-180,1
5388,5,0,159.093,0,-90,1,0.25,2,9,0.0,0.0,11,48.0,30.0,9,0.501,1.0,160.859,0.18,1,2020-08-18 11:16:25.000,133,2020-08-18 11:19:04.093,0.25,-90,-150,-60,0,1
5389,6,0,181.392,0,-90,1,0.25,2,9,0.0,0.0,11,48.0,30.0,9,0.551,0.0,183.715,0.0,0,2020-08-18 11:16:25.000,133,2020-08-18 11:19:26.392,0.25,90,-150,-60,-180,1
5390,8,0,212.075,0,-90,1,0.25,2,3,0.0,0.0,5,48.0,30.0,3,0.551,0.0,214.446,0.13,1,2020-08-18 11:16:25.000,133,2020-08-18 11:19:57.075,0.25,90,30,120,-180,1
5391,9,0,221.455,0,-90,1,0.25,2,3,0.0,0.0,5,48.0,30.0,3,0.451,0.0,224.422,0.13,1,2020-08-18 11:16:25.000,133,2020-08-18 11:20:06.455,0.25,90,30,120,-180,1
5392,10,0,232.122,0,-90,1,0.25,2,3,0.0,0.0,5,48.0,30.0,3,0.526,0.0,233.918,0.13,1,2020-08-18 11:16:25.000,133,2020-08-18 11:20:17.122,0.25,90,30,120,-180,1
5393,11,0,242.092,0,-90,1,0.25,2,9,0.0,0.0,11,48.0,30.0,9,0.501,1.0,243.633,0.18,1,2020-08-18 11:16:25.000,133,2020-08-18 11:20:27.092,0.25,-90,-150,-60,0,1
5394,12,0,266.797,0,-90,1,0.25,2,3,0.0,0.0,5,48.0,30.0,3,0.476,0.0,268.876,0.13,1,2020-08-18 11:16:25.000,133,2020-08-18 11:20:51.797,0.25,90,30,120,-180,1
5506,1,0,43.807,0,90,1,0.25,2,9,0.0,0.0,11,48.0,30.0,9,0.501,0.0,49.777,0.0,0,2020-08-18 16:54:56.000,171,2020-08-18 16:55:39.807,0.25,90,-150,120,0,1
5507,3,0,75.391,0,90,1,0.25,2,9,0.0,0.0,11,48.0,30.0,9,0.476,0.0,78.831,0.0,0,2020-08-18 16:54:56.000,171,2020-08-18 16:56:11.391,0.25,90,-150,120,0,1
5508,5,0,125.768,0,90,1,0.25,2,3,0.0,0.0,5,48.0,30.0,3,0.551,0.0,127.683,0.13,1,2020-08-18 16:54:56.000,171,2020-08-18 16:57:01.768,0.25,90,30,-60,0,1
5509,6,0,133.846,0,90,1,0.25,2,3,0.0,0.0,5,48.0,30.0,3,0.451,0.0,136.766,0.13,1,2020-08-18 16:54:56.000,171,2020-08-18 16:57:09.846,0.25,90,30,-60,0,1
5510,7,0,143.291,0,90,1,0.25,2,3,0.0,0.0,5,48.0,30.0,3,0.526,0.0,145.34799999999996,0.13,1,2020-08-18 16:54:56.000,171,2020-08-18 16:57:19.291,0.25,90,30,-60,0,1
5511,8,0,152.493,0,90,1,0.25,2,9,0.0,0.0,11,48.0,30.0,9,0.451,1.0,154.39600000000004,0.18,1,2020-08-18 16:54:56.000,171,2020-08-18 16:57:28.493,0.25,-90,-150,120,-180,1
5512,9,0,179.572,0,90,1,0.25,2,3,0.0,0.0,5,48.0,30.0,3,0.526,0.0,181.331,0.13,1,2020-08-18 16:54:56.000,171,2020-08-18 16:57:55.572,0.25,90,30,-60,0,1
5513,10,0,187.845,0,90,1,0.25,2,3,0.0,0.0,5,48.0,30.0,3,0.501,0.0,189.784,0.13,1,2020-08-18 16:54:56.000,171,2020-08-18 16:58:03.845,0.25,90,30,-60,0,1
5514,11,0,196.866,0,90,1,0.25,2,3,0.0,0.0,5,48.0,30.0,3,0.551,0.0,198.75,0.13,1,2020-08-18 16:54:56.000,171,2020-08-18 16:58:12.866,0.25,90,30,-60,0,1
5515,12,0,205.574,0,90,1,0.25,2,9,0.0,0.0,11,48.0,30.0,9,0.476,1.0,207.708,0.18,1,2020-08-18 16:54:56.000,171,2020-08-18 16:58:21.574,0.25,-90,-150,120,-180,1
5694,1,0,43.4,0,-150,1,0.25,2,3,0.0,0.0,5,48.0,30.0,3,0.526,0.0,45.487,0.11,1,2020-08-19 17:18:35.000,141,2020-08-19 17:19:18.400,0.25,90,30,-180,-120,1
5695,2,0,51.057,0,-150,1,0.25,2,3,0.0,0.0,5,48.0,30.0,3,0.551,0.0,52.475,0.11,1,2020-08-19 17:18:35.000,141,2020-08-19 17:19:26.057,0.25,90,30,-180,-120,1
5696,3,0,58.432,0,-150,1,0.25,2,3,0.0,0.0,5,48.0,30.0,3,0.501,0.0,60.769,0.11,1,2020-08-19 17:18:35.000,141,2020-08-19 17:19:33.432,0.25,90,30,-180,-120,1
5697,4,0,65.01100000000001,0,-150,1,0.25,2,9,0.0,0.0,11,48.0,30.0,9,0.476,1.0,66.721,0.19,1,2020-08-19 17:18:35.000,141,2020-08-19 17:19:40.011,0.25,-90,-150,0,60,1
5698,5,0,79.32,0,-150,1,0.25,2,3,0.0,0.0,5,48.0,30.0,3,0.451,0.0,81.322,0.11,1,2020-08-19 17:18:35.000,141,2020-08-19 17:19:54.320,0.25,90,30,-180,-120,1
5699,6,0,96.524,0,-150,1,0.25,2,3,0.0,0.0,5,48.0,30.0,3,0.551,0.0,98.541,0.11,1,2020-08-19 17:18:35.000,141,2020-08-19 17:20:11.524,0.25,90,30,-180,-120,1
5700,7,0,103.594,0,-150,1,0.25,2,3,0.0,0.0,5,48.0,30.0,3,0.526,1.0,106.018,0.0,0,2020-08-19 17:18:35.000,141,2020-08-19 17:20:18.594,0.25,-90,30,-180,60,1
5701,9,0,128.162,0,-150,1,0.25,2,9,0.0,0.0,11,48.0,30.0,9,0.476,1.0,129.996,0.19,1,2020-08-19 17:18:35.000,141,2020-08-19 17:20:43.162,0.25,-90,-150,0,60,1
5702,10,0,146.536,0,-150,1,0.25,2,9,0.0,0.0,11,48.0,30.0,9,0.451,0.0,148.68200000000004,0.0,0,2020-08-19 17:18:35.000,141,2020-08-19 17:21:01.536,0.25,90,-150,0,-120,1
5703,12,0,187.173,0,-150,1,0.25,2,3,0.0,0.0,11,48.0,30.0,3,0.501,0.0,188.587,0.11,1,2020-08-19 17:18:35.000,141,2020-08-19 17:21:42.173,0.25,90,-150,0,-120,1
5764,1,0,48.969,0,60,1,0.25,2,3,0.0,0.0,5,48.0,30.0,3,0.501,1.0,50.742,0.0,0,2020-08-20 11:58:57.000,116,2020-08-20 11:59:45.969,0.25,-90,30,-30,-150,1
5765,3,0,64.861,0,60,1,0.25,2,9,0.0,0.0,11,48.0,30.0,9,0.476,1.0,67.069,0.19,1,2020-08-20 11:58:57.000,116,2020-08-20 12:00:01.861,0.25,-90,-150,150,-150,1
5766,4,0,86.458,0,60,1,0.25,2,3,0.0,0.0,5,48.0,30.0,3,0.526,0.0,89.286,0.11,1,2020-08-20 11:58:57.000,116,2020-08-20 12:00:23.458,0.25,90,30,-30,30,1
5767,5,0,94.959,0,60,1,0.25,2,9,0.0,0.0,11,48.0,30.0,9,0.551,1.0,96.754,0.19,1,2020-08-20 11:58:57.000,116,2020-08-20 12:00:31.959,0.25,-90,-150,150,-150,1
5768,6,0,128.749,0,60,1,0.25,2,3,0.0,0.0,5,48.0,30.0,3,0.451,1.0,131.145,0.0,0,2020-08-20 11:58:57.000,116,2020-08-20 12:01:05.749,0.25,-90,30,-30,-150,1
5769,9,0,173.516,0,60,1,0.25,2,3,0.0,0.0,5,48.0,30.0,3,0.451,0.0,179.071,0.12,1,2020-08-20 11:58:57.000,116,2020-08-20 12:01:50.516,0.25,90,30,-30,30,1
5770,10,0,187.865,0,60,1,0.25,2,9,0.0,0.0,11,48.0,30.0,9,0.551,1.0,189.848,0.18,1,2020-08-20 11:58:57.000,116,2020-08-20 12:02:04.865,0.25,-90,-150,150,-150,1
5771,11,0,207.597,0,60,1,0.25,2,3,0.0,0.0,5,48.0,30.0,3,0.476,1.0,208.915,0.0,0,2020-08-20 11:58:57.000,116,2020-08-20 12:02:24.597,0.25,-90,30,-30,-150,1
5772,13,0,222.41,0,60,1,0.25,2,9,0.0,0.0,11,48.0,30.0,9,0.501,1.0,224.193,0.18,1,2020-08-20 11:58:57.000,116,2020-08-20 12:02:39.410,0.25,-90,-150,150,-150,1
5773,14,0,248.033,0,60,1,0.25,2,3,0.0,0.0,5,48.0,30.0,3,0.526,0.0,249.939,0.12,1,2020-08-20 11:58:57.000,116,2020-08-20 12:03:05.033,0.25,90,30,-30,30,1
5910,1,0,79.987,0,-120,1,0.25,2,9,0.0,0.0,11,48.0,30.0,9,0.451,1.0,81.742,0.19,1,2020-08-21 12:19:20.000,117,2020-08-21 12:20:39.987,0.25,-90,-150,-30,30,1
5911,2,0,122.528,0,-120,1,0.25,2,9,0.0,0.0,11,48.0,30.0,9,0.501,1.0,124.98,0.19,1,2020-08-21 12:19:20.000,117,2020-08-21 12:21:22.528,0.25,-90,-150,-30,30,1
5912,3,0,150.268,0,-120,1,0.25,2,3,0.0,0.0,5,48.0,30.0,3,0.526,1.0,152.467,0.0,0,2020-08-21 12:19:20.000,117,2020-08-21 12:21:50.268,0.25,-90,30,150,30,1
5913,8,0,243.436,0,-120,1,0.25,2,3,0.0,0.0,5,48.0,30.0,3,0.476,0.0,245.813,0.11,1,2020-08-21 12:19:20.000,117,2020-08-21 12:23:23.436,0.25,90,30,150,-150,1
5914,9,0,257.125,0,-120,1,0.25,2,3,0.0,0.0,5,48.0,30.0,3,0.551,1.0,259.322,0.0,0,2020-08-21 12:19:20.000,117,2020-08-21 12:23:37.125,0.25,-90,30,150,30,1
5915,11,0,283.588,0,-120,1,0.25,2,9,0.0,0.0,11,48.0,30.0,9,0.501,1.0,285.833,0.185,1,2020-08-21 12:19:20.000,117,2020-08-21 12:24:03.588,0.25,-90,-150,-30,30,1
5916,12,0,315.608,0,-120,1,0.25,2,3,0.0,0.0,5,48.0,30.0,3,0.476,0.0,321.193,0.11,1,2020-08-21 12:19:20.000,117,2020-08-21 12:24:35.608,0.25,90,30,150,-150,1
5917,13,0,330.182,0,-120,1,0.25,2,9,0.0,0.0,11,48.0,30.0,9,0.451,1.0,331.5619999999999,0.185,1,2020-08-21 12:19:20.000,117,2020-08-21 12:24:50.182,0.25,-90,-150,-30,30,1
5918,14,0,351.362,0,-120,1,0.25,2,3,0.0,0.0,5,48.0,30.0,3,0.551,0.0,353.439,0.11,1,2020-08-21 12:19:20.000,117,2020-08-21 12:25:11.362,0.25,90,30,150,-150,1
5919,15,0,360.80800000000005,0,-120,1,0.25,2,3,0.0,0.0,5,48.0,30.0,3,0.526,1.0,362.954,0.0,0,2020-08-21 12:19:20.000,117,2020-08-21 12:25:20.808,0.25,-90,30,150,30,1
5983,1,0,28.167,0,-60,1,0.25,2,3,0.0,0.0,5,48.0,30.0,3,0.476,0.0,29.936,0.11,1,2020-08-21 17:06:36.000,151,2020-08-21 17:07:04.167,0.25,90,30,90,150,1
5984,2,0,61.374,0,-60,1,0.25,2,3,0.0,0.0,5,48.0,30.0,3,0.501,0.0,62.82899999999999,0.11,1,2020-08-21 17:06:36.000,151,2020-08-21 17:07:37.374,0.25,90,30,90,150,1
5985,3,0,85.708,0,-60,1,0.25,2,3,0.0,0.0,5,48.0,30.0,3,0.451,0.0,88.229,0.11,1,2020-08-21 17:06:36.000,151,2020-08-21 17:08:01.708,0.25,90,30,90,150,1
5986,4,0,95.76,0,-60,1,0.25,2,9,0.0,0.0,11,48.0,30.0,9,0.526,1.0,97.43,0.19,1,2020-08-21 17:06:36.000,151,2020-08-21 17:08:11.760,0.25,-90,-150,-90,-30,1
5987,5,0,124.655,0,-60,1,0.25,2,3,0.0,0.0,5,48.0,30.0,3,0.551,1.0,126.108,0.0,0,2020-08-21 17:06:36.000,151,2020-08-21 17:08:40.655,0.25,-90,30,90,-30,1
5988,7,0,140.141,0,-60,1,0.25,2,9,0.0,0.0,11,48.0,30.0,9,0.476,1.0,142.091,0.19,1,2020-08-21 17:06:36.000,151,2020-08-21 17:08:56.141,0.25,-90,-150,-90,-30,1
5989,8,0,163.70600000000005,0,-60,1,0.25,2,3,0.0,0.0,5,48.0,30.0,3,0.451,0.0,165.34599999999998,0.11,1,2020-08-21 17:06:36.000,151,2020-08-21 17:09:19.706,0.25,90,30,90,150,1
5990,9,0,179.12900000000005,0,-60,1,0.25,2,9,0.0,0.0,11,48.0,30.0,9,0.501,1.0,180.898,0.19,1,2020-08-21 17:06:36.000,151,2020-08-21 17:09:35.129,0.25,-90,-150,-90,-30,1
5991,10,0,204.187,0,-60,1,0.25,2,3,0.0,0.0,5,48.0,30.0,3,0.526,0.0,206.062,0.11,1,2020-08-21 17:06:36.000,151,2020-08-21 17:10:00.187,0.25,90,30,90,150,1
5992,11,0,214.12,0,-60,1,0.25,2,3,0.0,0.0,5,48.0,30.0,3,0.551,0.0,215.803,0.11,1,2020-08-21 17:06:36.000,151,2020-08-21 17:10:10.120,0.25,90,30,90,150,1
6088,1,0,53.624,0,60,1,0.25,2,9,0.0,0.0,11,48.0,30.0,9,0.476,0.0,56.024,0.0,0,2020-08-25 10:09:12.000,149,2020-08-25 10:10:05.624,0.25,90,-150,150,30,1
6089,3,0,84.436,0,60,1,0.25,2,9,0.0,0.0,11,48.0,30.0,9,0.526,1.0,86.271,0.19,1,2020-08-25 10:09:12.000,149,2020-08-25 10:10:36.436,0.25,-90,-150,150,-150,1
6090,4,0,114.287,0,60,1,0.25,2,3,0.0,0.0,5,48.0,30.0,3,0.501,1.0,116.77,0.0,0,2020-08-25 10:09:12.000,149,2020-08-25 10:11:06.287,0.25,-90,30,-30,-150,1
6091,6,0,131.57399999999998,0,60,1,0.25,2,3,0.0,0.0,5,48.0,30.0,3,0.551,0.0,133.141,0.11,1,2020-08-25 10:09:12.000,149,2020-08-25 10:11:23.574,0.25,90,30,-30,30,1
6092,7,0,139.796,0,60,1,0.25,2,3,0.0,0.0,5,48.0,30.0,3,0.451,0.0,141.385,0.11,1,2020-08-25 10:09:12.000,149,2020-08-25 10:11:31.796,0.25,90,30,-30,30,1
6093,8,0,154.072,0,60,1,0.25,2,3,0.0,0.0,5,48.0,30.0,3,0.476,0.0,155.583,0.11,1,2020-08-25 10:09:12.000,149,2020-08-25 10:11:46.072,0.25,90,30,-30,30,1
6094,9,0,162.966,0,60,1,0.25,2,3,0.0,0.0,5,48.0,30.0,3,0.501,0.0,164.69099999999997,0.11,1,2020-08-25 10:09:12.000,149,2020-08-25 10:11:54.966,0.25,90,30,-30,30,1
6095,10,0,170.734,0,60,1,0.25,2,9,0.0,0.0,11,48.0,30.0,9,0.551,1.0,172.52200000000005,0.19,1,2020-08-25 10:09:12.000,149,2020-08-25 10:12:02.734,0.25,-90,-150,150,-150,1
6096,11,0,190.355,0,60,1,0.25,2,3,0.0,0.0,5,48.0,30.0,3,0.526,0.0,192.555,0.11,1,2020-08-25 10:09:12.000,149,2020-08-25 10:12:22.355,0.25,90,30,-30,30,1
6097,12,0,197.645,0,60,1,0.25,2,9,0.0,0.0,11,48.0,30.0,9,0.451,0.0,199.355,0.0,0,2020-08-25 10:09:12.000,149,2020-08-25 10:12:29.645,0.25,90,-150,150,30,1
6129,1,0,64.362,0,0,1,0.25,2,3,0.0,0.0,5,48.0,30.0,3,0.476,1.0,66.001,0.0,0,2020-08-25 16:50:04.000,100,2020-08-25 16:51:08.362,0.25,-90,30,30,-90,1
6130,3,0,79.954,0,0,1,0.25,2,3,0.0,0.0,5,48.0,30.0,3,0.551,0.0,81.564,0.11,1,2020-08-25 16:50:04.000,100,2020-08-25 16:51:23.954,0.25,90,30,30,90,1
6131,4,0,104.234,0,0,1,0.25,2,3,0.0,0.0,5,48.0,30.0,3,0.501,0.0,105.771,0.11,1,2020-08-25 16:50:04.000,100,2020-08-25 16:51:48.234,0.25,90,30,30,90,1
6132,5,0,123.212,0,0,1,0.25,2,3,0.0,0.0,5,48.0,30.0,3,0.526,0.0,124.77,0.11,1,2020-08-25 16:50:04.000,100,2020-08-25 16:52:07.212,0.25,90,30,30,90,1
6133,6,0,134.371,0,0,1,0.25,2,3,0.0,0.0,5,48.0,30.0,3,0.451,1.0,136.735,0.0,0,2020-08-25 16:50:04.000,100,2020-08-25 16:52:18.371,0.25,-90,30,30,-90,1
6134,8,0,163.109,0,0,1,0.25,2,3,0.0,0.0,5,48.0,30.0,3,0.476,1.0,164.924,0.0,0,2020-08-25 16:50:04.000,100,2020-08-25 16:52:47.109,0.25,-90,30,30,-90,1
6135,10,0,182.003,0,0,1,0.25,2,3,0.0,0.0,5,48.0,30.0,3,0.551,0.0,183.674,0.11,1,2020-08-25 16:50:04.000,100,2020-08-25 16:53:06.003,0.25,90,30,30,90,1
6136,11,0,194.903,0,0,1,0.25,2,3,0.0,0.0,5,48.0,30.0,3,0.451,1.0,196.84,0.0,0,2020-08-25 16:50:04.000,100,2020-08-25 16:53:18.903,0.25,-90,30,30,-90,1
6137,13,0,217.853,0,0,1,0.25,2,3,0.0,0.0,5,48.0,30.0,3,0.526,0.0,219.616,0.11,1,2020-08-25 16:50:04.000,100,2020-08-25 16:53:41.853,0.25,90,30,30,90,1
6138,14,0,227.109,0,0,1,0.25,2,9,0.0,0.0,11,48.0,30.0,9,0.501,1.0,230.023,0.19,1,2020-08-25 16:50:04.000,100,2020-08-25 16:53:51.109,0.25,-90,-150,-150,-90,1
6196,1,0,42.35,0,60,1,0.25,2,9,0.0,0.0,11,48.0,30.0,9,0.501,0.0,58.088,0.0,0,2020-08-26 09:04:58.000,197,2020-08-26 09:05:40.350,0.25,90,-150,150,30,1
6197,3,0,88.56200000000003,0,60,1,0.25,2,3,0.0,0.0,5,48.0,30.0,3,0.451,0.0,99.655,0.11,1,2020-08-26 09:04:58.000,197,2020-08-26 09:06:26.562,0.25,90,30,-30,30,1
6198,4,0,121.12,0,60,1,0.25,2,9,0.0,0.0,11,48.0,30.0,9,0.476,1.0,123.199,0.19,1,2020-08-26 09:04:58.000,197,2020-08-26 09:06:59.120,0.25,-90,-150,150,-150,1
6199,5,0,150.64,0,60,1,0.25,2,3,0.0,0.0,5,48.0,30.0,3,0.551,0.0,152.398,0.11,1,2020-08-26 09:04:58.000,197,2020-08-26 09:07:28.640,0.25,90,30,-30,30,1
6200,6,0,158.123,1,60,1,0.25,2,3,0.0,0.0,5,48.0,30.0,3,0.526,0.0,169.7,0.11,1,2020-08-26 09:04:58.000,197,2020-08-26 09:07:36.123,0.25,90,30,-30,30,1
6201,7,0,175.217,0,60,1,0.25,2,9,0.0,0.0,11,48.0,30.0,9,0.476,1.0,177.458,0.19,1,2020-08-26 09:04:58.000,197,2020-08-26 09:07:53.217,0.25,-90,-150,150,-150,1
6202,8,0,193.952,0,60,1,0.25,2,9,0.0,0.0,11,48.0,30.0,9,0.501,0.0,198.547,0.0,0,2020-08-26 09:04:58.000,197,2020-08-26 09:08:11.952,0.25,90,-150,150,30,1
6203,10,0,226.915,0,60,1,0.25,2,3,0.0,0.0,5,48.0,30.0,3,0.551,0.0,229.431,0.11,1,2020-08-26 09:04:58.000,197,2020-08-26 09:08:44.915,0.25,90,30,-30,30,1
6204,11,0,255.577,1,60,1,0.25,2,9,0.0,0.0,11,48.0,30.0,9,0.451,0.0,263.813,0.0,0,2020-08-26 09:04:58.000,197,2020-08-26 09:09:13.577,0.25,90,-150,150,30,1
6205,15,0,308.677,0,60,1,0.25,2,9,0.0,0.0,11,48.0,30.0,9,0.526,1.0,311.003,0.19,1,2020-08-26 09:04:58.000,197,2020-08-26 09:10:06.677,0.25,-90,-150,150,-150,1
6248,1,0,27.73,0,30,1,0.25,2,9,0.0,0.0,11,48.0,30.0,9,0.451,0.0,30.787,0.0,0,2020-08-26 16:31:36.000,185,2020-08-26 16:32:03.730,0.25,90,-150,-180,60,1
6249,4,0,97.551,0,30,1,0.25,2,3,0.0,0.0,5,48.0,30.0,3,0.501,1.0,99.944,0.0,0,2020-08-26 16:31:36.000,185,2020-08-26 16:33:13.551,0.25,-90,30,0,-120,1
6250,7,0,141.437,0,30,1,0.25,2,9,0.0,0.0,11,48.0,30.0,9,0.476,1.0,143.481,0.19,1,2020-08-26 16:31:36.000,185,2020-08-26 16:33:57.437,0.25,-90,-150,-180,-120,1
6251,8,0,181.077,0,30,1,0.25,2,9,0.0,0.0,11,48.0,30.0,9,0.526,1.0,183.351,0.19,1,2020-08-26 16:31:36.000,185,2020-08-26 16:34:37.077,0.25,-90,-150,-180,-120,1
6252,9,0,204.897,0,30,1,0.25,2,9,0.0,0.0,11,48.0,30.0,9,0.551,1.0,206.842,0.19,1,2020-08-26 16:31:36.000,185,2020-08-26 16:35:00.897,0.25,-90,-150,-180,-120,1
6253,10,0,267.448,0,30,1,0.25,2,9,0.0,0.0,11,48.0,30.0,9,0.551,1.0,268.521,0.19,1,2020-08-26 16:31:36.000,185,2020-08-26 16:36:03.448,0.25,-90,-150,-180,-120,1
6254,11,0,291.928,0,30,1,0.25,2,9,0.0,0.0,11,48.0,30.0,9,0.451,1.0,293.694,0.19,1,2020-08-26 16:31:36.000,185,2020-08-26 16:36:27.928,0.25,-90,-150,-180,-120,1
6255,12,0,314.848,0,30,1,0.25,2,3,0.0,0.0,5,48.0,30.0,3,0.476,0.0,316.702,0.11,1,2020-08-26 16:31:36.000,185,2020-08-26 16:36:50.848,0.25,90,30,0,60,1
6256,13,0,336.13,0,30,1,0.25,2,9,0.0,0.0,11,48.0,30.0,9,0.501,1.0,338.094,0.19,1,2020-08-26 16:31:36.000,185,2020-08-26 16:37:12.130,0.25,-90,-150,-180,-120,1
6257,14,0,367.141,0,30,1,0.25,2,9,0.0,0.0,11,48.0,30.0,9,0.526,1.0,368.89,0.19,1,2020-08-26 16:31:36.000,185,2020-08-26 16:37:43.141,0.25,-90,-150,-180,-120,1
6334,1,0,93.759,0,180,1,0.25,2,3,0.0,0.0,5,48.0,30.0,3,0.451,1.0,95.046,0.0,0,2020-08-27 08:22:11.000,145,2020-08-27 08:23:44.759,0.25,-90,30,-150,90,1
6335,3,0,142.578,0,180,1,0.25,2,3,0.0,0.0,5,48.0,30.0,3,0.551,1.0,143.569,0.0,0,2020-08-27 08:22:11.000,145,2020-08-27 08:24:33.578,0.25,-90,30,-150,90,1
6336,5,0,159.921,0,180,1,0.25,2,3,0.0,0.0,5,48.0,30.0,3,0.501,0.0,161.17700000000005,0.11,1,2020-08-27 08:22:11.000,145,2020-08-27 08:24:50.921,0.25,90,30,-150,-90,1
6337,6,0,179.812,0,180,1,0.25,2,3,0.0,0.0,5,48.0,30.0,3,0.476,0.0,181.799,0.11,1,2020-08-27 08:22:11.000,145,2020-08-27 08:25:10.812,0.25,90,30,-150,-90,1
6338,7,0,205.036,0,180,1,0.25,2,9,0.0,0.0,11,48.0,30.0,9,0.526,1.0,206.706,0.19,1,2020-08-27 08:22:11.000,145,2020-08-27 08:25:36.036,0.25,-90,-150,30,90,1
6339,8,0,228.117,0,180,1,0.25,2,9,0.0,0.0,11,48.0,30.0,9,0.451,1.0,229.921,0.19,1,2020-08-27 08:22:11.000,145,2020-08-27 08:25:59.117,0.25,-90,-150,30,90,1
6340,9,0,255.201,1,180,1,0.25,2,3,0.0,0.0,5,48.0,30.0,3,0.526,1.0,264.25,0.0,0,2020-08-27 08:22:11.000,145,2020-08-27 08:26:26.201,0.25,-90,30,-150,90,1
6341,11,0,287.7290000000001,0,180,1,0.25,2,3,0.0,0.0,5,48.0,30.0,3,0.501,0.0,290.88,0.125,1,2020-08-27 08:22:11.000,145,2020-08-27 08:26:58.729,0.25,90,30,-150,-90,1
6342,12,0,299.689,0,180,1,0.25,2,3,0.0,0.0,5,48.0,30.0,3,0.476,0.0,300.911,0.125,1,2020-08-27 08:22:11.000,145,2020-08-27 08:27:10.689,0.25,90,30,-150,-90,1
6343,13,0,308.188,0,180,1,0.25,2,3,0.0,0.0,5,48.0,30.0,3,0.551,0.0,309.651,0.125,1,2020-08-27 08:22:11.000,145,2020-08-27 08:27:19.188,0.25,90,30,-150,-90,1
6406,1,0,55.809,0,120,1,0.25,2,3,0.0,0.0,5,48.0,30.0,3,0.476,0.0,58.45399999999999,0.11,1,2020-08-27 16:33:07.000,124,2020-08-27 16:34:02.809,0.25,90,30,-90,-30,1
6407,2,0,70.439,0,120,1,0.25,2,9,0.0,0.0,11,48.0,30.0,9,0.551,1.0,72.148,0.19,1,2020-08-27 16:33:07.000,124,2020-08-27 16:34:17.439,0.25,-90,-150,90,150,1
6408,3,0,79.557,0,120,1,0.25,2,3,0.0,0.0,5,48.0,30.0,3,0.526,0.0,81.092,0.11,1,2020-08-27 16:33:07.000,124,2020-08-27 16:34:26.557,0.25,90,30,-90,-30,1
6409,4,0,87.525,0,120,1,0.25,2,3,0.0,0.0,5,48.0,30.0,3,0.451,0.0,89.40799999999999,0.11,1,2020-08-27 16:33:07.000,124,2020-08-27 16:34:34.525,0.25,90,30,-90,-30,1
6410,5,0,99.088,0,120,1,0.25,2,9,0.0,0.0,11,48.0,30.0,9,0.501,1.0,100.837,0.19,1,2020-08-27 16:33:07.000,124,2020-08-27 16:34:46.088,0.25,-90,-150,90,150,1
6411,6,0,135.626,0,120,1,0.25,2,9,0.0,0.0,11,48.0,30.0,9,0.501,1.0,137.364,0.19,1,2020-08-27 16:33:07.000,124,2020-08-27 16:35:22.626,0.25,-90,-150,90,150,1
6412,7,0,165.875,0,120,1,0.25,2,9,0.0,0.0,11,48.0,30.0,9,0.451,1.0,167.799,0.19,1,2020-08-27 16:33:07.000,124,2020-08-27 16:35:52.875,0.25,-90,-150,90,150,1
6413,8,0,196.112,0,120,1,0.25,2,3,0.0,0.0,5,48.0,30.0,3,0.476,0.0,197.933,0.11,1,2020-08-27 16:33:07.000,124,2020-08-27 16:36:23.112,0.25,90,30,-90,-30,1
6414,9,0,204.257,0,120,1,0.25,2,9,0.0,0.0,11,48.0,30.0,9,0.526,0.0,205.959,0.0,0,2020-08-27 16:33:07.000,124,2020-08-27 16:36:31.257,0.25,90,-150,90,-30,1
6415,11,0,237.47,0,120,1,0.25,2,9,0.0,0.0,11,48.0,30.0,9,0.551,1.0,239.203,0.19,1,2020-08-27 16:33:07.000,124,2020-08-27 16:37:04.470,0.25,-90,-150,90,150,1
6490,1,0,131.007,0,-60,1,0.25,2,3,0.0,0.0,5,48.0,30.0,3,0.476,1.0,136.546,0.0,0,2020-08-28 10:55:47.000,147,2020-08-28 10:57:58.007,0.25,-90,30,90,-30,1
6491,4,0,190.986,0,-60,1,0.25,2,9,0.0,0.0,11,48.0,30.0,9,0.526,0.0,194.08,0.0,0,2020-08-28 10:55:47.000,147,2020-08-28 10:58:57.986,0.25,90,-150,-90,150,1
6492,6,0,217.058,0,-60,1,0.25,2,9,0.0,0.0,11,48.0,30.0,9,0.551,1.0,218.942,0.19,1,2020-08-28 10:55:47.000,147,2020-08-28 10:59:24.058,0.25,-90,-150,-90,-30,1
6493,7,0,238.343,0,-60,1,0.25,2,3,0.0,0.0,5,48.0,30.0,3,0.501,0.0,240.232,0.11,1,2020-08-28 10:55:47.000,147,2020-08-28 10:59:45.343,0.25,90,30,90,150,1
6494,8,0,247.695,0,-60,1,0.25,2,9,0.0,0.0,11,48.0,30.0,9,0.451,0.0,249.354,0.0,0,2020-08-28 10:55:47.000,147,2020-08-28 10:59:54.695,0.25,90,-150,-90,150,1
6495,10,0,283.117,0,-60,1,0.25,2,9,0.0,0.0,11,48.0,30.0,9,0.451,1.0,285.022,0.19,1,2020-08-28 10:55:47.000,147,2020-08-28 11:00:30.117,0.25,-90,-150,-90,-30,1
6496,11,0,312.833,0,-60,1,0.25,2,9,0.0,0.0,11,48.0,30.0,9,0.501,1.0,314.328,0.19,1,2020-08-28 10:55:47.000,147,2020-08-28 11:00:59.833,0.25,-90,-150,-90,-30,1
6497,12,0,333.07,0,-60,1,0.25,2,3,0.0,0.0,5,48.0,30.0,3,0.476,0.0,334.82199999999995,0.11,1,2020-08-28 10:55:47.000,147,2020-08-28 11:01:20.070,0.25,90,30,90,150,1
6498,13,0,342.641,0,-60,1,0.25,2,3,0.0,0.0,5,48.0,30.0,3,0.551,0.0,344.136,0.11,1,2020-08-28 10:55:47.000,147,2020-08-28 11:01:29.641,0.25,90,30,90,150,1
6500,15,0,375.468,0,-60,1,0.25,2,9,0.0,0.0,11,48.0,30.0,9,0.526,1.0,377.5630000000001,0.19,1,2020-08-28 10:55:47.000,147,2020-08-28 11:02:02.468,0.25,-90,-150,-90,-30,1
6546,1,0,49.659,0,30,1,0.25,2,9,0.0,0.0,11,48.0,30.0,9,0.451,1.0,51.344,0.19,1,2020-08-28 16:36:33.000,193,2020-08-28 16:37:22.659,0.25,-90,-150,-180,-120,1
6547,2,0,112.421,0,30,1,0.25,2,9,0.0,0.0,11,48.0,30.0,9,0.476,1.0,114.03,0.19,1,2020-08-28 16:36:33.000,193,2020-08-28 16:38:25.421,0.25,-90,-150,-180,-120,1
6548,3,0,134.697,0,30,1,0.25,2,9,0.0,0.0,11,48.0,30.0,9,0.551,1.0,137.60299999999998,0.19,1,2020-08-28 16:36:33.000,193,2020-08-28 16:38:47.697,0.25,-90,-150,-180,-120,1
6549,4,0,160.596,0,30,1,0.25,2,9,0.0,0.0,11,48.0,30.0,9,0.526,1.0,162.257,0.19,1,2020-08-28 16:36:33.000,193,2020-08-28 16:39:13.596,0.25,-90,-150,-180,-120,1
6550,5,0,185.46,0,30,1,0.25,2,9,0.0,0.0,11,48.0,30.0,9,0.501,1.0,187.3,0.19,1,2020-08-28 16:36:33.000,193,2020-08-28 16:39:38.460,0.25,-90,-150,-180,-120,1
6551,6,0,206.151,0,30,1,0.25,2,9,0.0,0.0,11,48.0,30.0,9,0.451,1.0,208.351,0.19,1,2020-08-28 16:36:33.000,193,2020-08-28 16:39:59.151,0.25,-90,-150,-180,-120,1
6552,7,0,236.632,0,30,1,0.25,2,9,0.0,0.0,11,48.0,30.0,9,0.501,0.0,238.371,0.0,0,2020-08-28 16:36:33.000,193,2020-08-28 16:40:29.632,0.25,90,-150,-180,60,1
6553,9,0,264.182,0,30,1,0.25,2,3,0.0,0.0,5,48.0,30.0,3,0.526,1.0,265.99,0.0,0,2020-08-28 16:36:33.000,193,2020-08-28 16:40:57.182,0.25,-90,30,0,-120,1
6554,11,0,285.332,0,30,1,0.25,2,9,0.0,0.0,11,48.0,30.0,9,0.551,1.0,286.866,0.19,1,2020-08-28 16:36:33.000,193,2020-08-28 16:41:18.332,0.25,-90,-150,-180,-120,1
6556,13,0,339.714,0,30,1,0.25,2,3,0.0,0.0,5,48.0,30.0,3,0.501,0.0,341.37,0.11,1,2020-08-28 16:36:33.000,193,2020-08-28 16:42:12.714,0.25,90,30,0,60,1
6701,1,0,81.185,0,120,1,0.25,2,3,0.0,0.0,5,48.0,30.0,3,0.551,1.0,83.147,0.0,0,2020-09-01 16:46:51.000,138,2020-09-01 16:48:12.185,0.25,-90,30,-90,150,1
6702,4,0,154.595,0,120,1,0.25,2,3,0.0,0.0,5,48.0,30.0,3,0.501,1.0,156.80100000000004,0.0,0,2020-09-01 16:46:51.000,138,2020-09-01 16:49:25.595,0.25,-90,30,-90,150,1
6703,6,0,174.27599999999995,0,120,1,0.25,2,3,0.0,0.0,5,48.0,30.0,3,0.526,0.0,176.52900000000002,0.11,1,2020-09-01 16:46:51.000,138,2020-09-01 16:49:45.276,0.25,90,30,-90,-30,1
6704,7,0,185.021,0,120,1,0.25,2,9,0.0,0.0,11,48.0,30.0,9,0.451,1.0,186.718,0.19,1,2020-09-01 16:46:51.000,138,2020-09-01 16:49:56.021,0.25,-90,-150,90,150,1
6705,8,0,204.804,0,120,1,0.25,2,3,0.0,0.0,5,48.0,30.0,3,0.476,0.0,206.612,0.11,1,2020-09-01 16:46:51.000,138,2020-09-01 16:50:15.804,0.25,90,30,-90,-30,1
6706,9,0,212.552,0,120,1,0.25,2,3,0.0,0.0,5,48.0,30.0,3,0.476,0.0,214.33,0.11,1,2020-09-01 16:46:51.000,138,2020-09-01 16:50:23.552,0.25,90,30,-90,-30,1
6707,10,0,221.483,0,120,1,0.25,2,9,0.0,0.0,11,48.0,30.0,9,0.451,1.0,223.264,0.19,1,2020-09-01 16:46:51.000,138,2020-09-01 16:50:32.483,0.25,-90,-150,90,150,1
6708,11,0,242.885,0,120,1,0.25,2,3,0.0,0.0,5,48.0,30.0,3,0.551,1.0,244.751,0.0,0,2020-09-01 16:46:51.000,138,2020-09-01 16:50:53.885,0.25,-90,30,-90,150,1
6709,13,0,260.789,0,120,1,0.25,2,3,0.0,0.0,5,48.0,30.0,3,0.501,0.0,263.084,0.11,1,2020-09-01 16:46:51.000,138,2020-09-01 16:51:11.789,0.25,90,30,-90,-30,1
6710,14,0,269.55,0,120,1,0.25,2,3,0.0,0.0,5,48.0,30.0,3,0.526,0.0,270.997,0.11,1,2020-09-01 16:46:51.000,138,2020-09-01 16:51:20.550,0.25,90,30,-90,-30,1
6774,1,0,153.161,0,-30,1,0.25,2,3,0.0,0.0,5,48.0,30.0,3,0.526,0.0,157.744,0.11,1,2020-09-02 10:43:17.000,107,2020-09-02 10:45:50.161,0.25,90,30,60,120,1
6775,2,0,164.02,0,-30,1,0.25,2,9,0.0,0.0,11,48.0,30.0,9,0.451,1.0,166.005,0.19,1,2020-09-02 10:43:17.000,107,2020-09-02 10:46:01.020,0.25,-90,-150,-120,-60,1
6776,3,0,184.146,0,-30,1,0.25,2,3,0.0,0.0,5,48.0,30.0,3,0.501,0.0,187.762,0.11,1,2020-09-02 10:43:17.000,107,2020-09-02 10:46:21.146,0.25,90,30,60,120,1
6777,4,0,194.75,0,-30,1,0.25,2,9,0.0,0.0,11,48.0,30.0,9,0.476,1.0,196.83,0.19,1,2020-09-02 10:43:17.000,107,2020-09-02 10:46:31.750,0.25,-90,-150,-120,-60,1
6778,5,0,219.037,0,-30,1,0.25,2,9,0.0,0.0,11,48.0,30.0,9,0.551,1.0,220.998,0.19,1,2020-09-02 10:43:17.000,107,2020-09-02 10:46:56.037,0.25,-90,-150,-120,-60,1
6779,6,0,241.238,0,-30,1,0.25,2,3,0.0,0.0,5,48.0,30.0,3,0.476,1.0,242.371,0.0,0,2020-09-02 10:43:17.000,107,2020-09-02 10:47:18.238,0.25,-90,30,60,-60,1
6780,8,0,254.05900000000003,0,-30,1,0.25,2,9,0.0,0.0,11,48.0,30.0,9,0.551,0.0,257.111,0.0,0,2020-09-02 10:43:17.000,107,2020-09-02 10:47:31.059,0.25,90,-150,-120,120,1
6781,10,0,295.847,0,-30,1,0.25,2,3,0.0,0.0,5,48.0,30.0,3,0.501,0.0,298.833,0.11,1,2020-09-02 10:43:17.000,107,2020-09-02 10:48:12.847,0.25,90,30,60,120,1
6782,11,0,305.307,0,-30,1,0.25,2,3,0.0,0.0,5,48.0,30.0,3,0.451,1.0,307.333,0.0,0,2020-09-02 10:43:17.000,107,2020-09-02 10:48:22.307,0.25,-90,30,60,-60,1
6783,15,0,406.13,0,-30,1,0.25,2,9,0.0,0.0,11,48.0,30.0,9,0.526,1.0,407.34,0.18,1,2020-09-02 10:43:17.000,107,2020-09-02 10:50:03.130,0.25,-90,-150,-120,-60,1
6909,1,0,43.858,0,90,1,0.25,2,3,0.0,0.0,5,48.0,30.0,3,0.476,0.0,47.31100000000001,0.13,1,2020-09-03 11:39:42.000,97,2020-09-03 11:40:25.858,0.25,90,30,-60,0,1
6910,2,0,56.553,0,90,1,0.25,2,3,0.0,0.0,5,48.0,30.0,3,0.526,0.0,58.86600000000001,0.13,1,2020-09-03 11:39:42.000,97,2020-09-03 11:40:38.553,0.25,90,30,-60,0,1
6911,3,0,66.916,0,90,1,0.25,2,9,0.0,0.0,11,48.0,30.0,9,0.501,1.0,68.634,0.17,1,2020-09-03 11:39:42.000,97,2020-09-03 11:40:48.916,0.25,-90,-150,120,-180,1
6912,4,0,87.64399999999998,0,90,1,0.25,2,3,0.0,0.0,5,48.0,30.0,3,0.451,0.0,91.059,0.13,1,2020-09-03 11:39:42.000,97,2020-09-03 11:41:09.644,0.25,90,30,-60,0,1
6913,5,0,115.911,0,90,1,0.25,2,9,0.0,0.0,11,48.0,30.0,9,0.551,0.0,117.788,0.0,0,2020-09-03 11:39:42.000,97,2020-09-03 11:41:37.911,0.25,90,-150,120,0,1
6914,9,0,170.516,0,90,1,0.25,2,9,0.0,0.0,11,48.0,30.0,9,0.451,0.0,172.60299999999995,0.0,0,2020-09-03 11:39:42.000,97,2020-09-03 11:42:32.516,0.25,90,-150,120,0,1
6915,11,0,208.485,0,90,1,0.25,2,9,0.0,0.0,11,48.0,30.0,9,0.526,0.0,212.481,0.0,0,2020-09-03 11:39:42.000,97,2020-09-03 11:43:10.485,0.25,90,-150,120,0,1
6916,13,0,251.187,0,90,1,0.25,2,3,0.0,0.0,5,48.0,30.0,3,0.551,0.0,253.442,0.13,1,2020-09-03 11:39:42.000,97,2020-09-03 11:43:53.187,0.25,90,30,-60,0,1
6917,14,0,261.266,0,90,1,0.25,2,3,0.0,0.0,5,48.0,30.0,3,0.501,0.0,263.41,0.13,1,2020-09-03 11:39:42.000,97,2020-09-03 11:44:03.266,0.25,90,30,-60,0,1
6919,16,0,294.644,0,90,1,0.25,2,9,0.0,0.0,11,48.0,30.0,9,0.501,1.0,296.535,0.19,1,2020-09-03 11:39:42.000,97,2020-09-03 11:44:36.644,0.25,-90,-150,120,-180,1
6985,1,0,80.141,0,150,1,0.25,2,3,0.0,0.0,5,48.0,30.0,3,0.551,0.0,82.32799999999997,0.13,1,2020-09-03 16:50:52.000,190,2020-09-03 16:52:12.141,0.25,90,30,-120,-60,1
6986,2,0,104.107,0,150,1,0.25,2,9,0.0,0.0,11,48.0,30.0,9,0.526,1.0,106.103,0.17,1,2020-09-03 16:50:52.000,190,2020-09-03 16:52:36.107,0.25,-90,-150,60,120,1
6987,3,0,122.548,0,150,1,0.25,2,3,0.0,0.0,5,48.0,30.0,3,0.501,0.0,125.049,0.13,1,2020-09-03 16:50:52.000,190,2020-09-03 16:52:54.548,0.25,90,30,-120,-60,1
6988,4,0,141.157,0,150,1,0.25,2,3,0.0,0.0,5,48.0,30.0,3,0.476,0.0,143.91899999999995,0.13,1,2020-09-03 16:50:52.000,190,2020-09-03 16:53:13.157,0.25,90,30,-120,-60,1
6989,5,0,168.44099999999997,0,150,1,0.25,2,3,0.0,0.0,5,48.0,30.0,3,0.451,1.0,170.799,0.0,0,2020-09-03 16:50:52.000,190,2020-09-03 16:53:40.441,0.25,-90,30,-120,120,1
6990,7,0,206.11900000000003,0,150,1,0.25,2,3,0.0,0.0,5,48.0,30.0,3,0.526,0.0,207.65,0.13,1,2020-09-03 16:50:52.000,190,2020-09-03 16:54:18.119,0.25,90,30,-120,-60,1
6991,8,0,215.423,0,150,1,0.25,2,3,0.0,0.0,5,48.0,30.0,3,0.551,0.0,216.867,0.13,1,2020-09-03 16:50:52.000,190,2020-09-03 16:54:27.423,0.25,90,30,-120,-60,1
6992,9,0,224.599,0,150,1,0.25,2,9,0.0,0.0,11,48.0,30.0,9,0.451,1.0,226.248,0.17,1,2020-09-03 16:50:52.000,190,2020-09-03 16:54:36.599,0.25,-90,-150,60,120,1
6993,10,0,245.24,0,150,1,0.25,2,9,0.0,0.0,11,48.0,30.0,9,0.501,1.0,246.851,0.17,1,2020-09-03 16:50:52.000,190,2020-09-03 16:54:57.240,0.25,-90,-150,60,120,1
6994,11,0,277.01,0,150,1,0.25,2,3,0.0,0.0,5,48.0,30.0,3,0.476,0.0,278.752,0.13,1,2020-09-03 16:50:52.000,190,2020-09-03 16:55:29.010,0.25,90,30,-120,-60,1
7046,1,0,57.179,0,-120,1,0.25,2,3,0.0,0.0,5,48.0,30.0,3,0.451,0.0,59.003,0.13,1,2020-09-04 11:24:11.000,196,2020-09-04 11:25:08.179,0.25,90,30,150,-150,1
7047,2,0,79.238,0,-120,1,0.25,2,3,0.0,0.0,5,48.0,30.0,3,0.551,0.0,81.377,0.13,1,2020-09-04 11:24:11.000,196,2020-09-04 11:25:30.238,0.25,90,30,150,-150,1
7048,3,0,92.796,0,-120,1,0.25,2,3,0.0,0.0,5,48.0,30.0,3,0.526,0.0,94.832,0.13,1,2020-09-04 11:24:11.000,196,2020-09-04 11:25:43.796,0.25,90,30,150,-150,1
7049,4,0,118.246,0,-120,1,0.25,2,3,0.0,0.0,5,48.0,30.0,3,0.476,0.0,120.152,0.13,1,2020-09-04 11:24:11.000,196,2020-09-04 11:26:09.246,0.25,90,30,150,-150,1
7050,5,0,136.453,0,-120,1,0.25,2,3,0.0,0.0,5,48.0,30.0,3,0.501,0.0,138.408,0.13,1,2020-09-04 11:24:11.000,196,2020-09-04 11:26:27.453,0.25,90,30,150,-150,1
7051,6,0,147.423,1,-120,1,0.25,2,9,0.0,0.0,11,48.0,30.0,9,0.526,1.0,156.457,0.17,1,2020-09-04 11:24:11.000,196,2020-09-04 11:26:38.423,0.25,-90,-150,-30,30,1
7052,7,0,172.862,0,-120,1,0.25,2,9,0.0,0.0,11,48.0,30.0,9,0.551,1.0,174.822,0.17,1,2020-09-04 11:24:11.000,196,2020-09-04 11:27:03.862,0.25,-90,-150,-30,30,1
7053,8,0,196.93,0,-120,1,0.25,2,9,0.0,0.0,11,48.0,30.0,9,0.451,1.0,198.661,0.17,1,2020-09-04 11:24:11.000,196,2020-09-04 11:27:27.930,0.25,-90,-150,-30,30,1
7054,9,0,219.371,0,-120,1,0.25,2,9,0.0,0.0,11,48.0,30.0,9,0.501,1.0,221.083,0.17,1,2020-09-04 11:24:11.000,196,2020-09-04 11:27:50.371,0.25,-90,-150,-30,30,1
7055,10,0,236.534,0,-120,1,0.25,2,9,0.0,0.0,11,48.0,30.0,9,0.476,1.0,238.628,0.17,1,2020-09-04 11:24:11.000,196,2020-09-04 11:28:07.534,0.25,-90,-150,-30,30,1
7140,1,0,50.651,0,150,1,0.25,2,3,0.0,0.0,5,48.0,30.0,3,0.501,1.0,52.683,0.0,0,2020-09-04 16:56:47.000,194,2020-09-04 16:57:37.651,0.25,-90,30,-120,120,1
7141,3,0,81.321,0,150,1,0.25,2,9,0.0,0.0,11,48.0,30.0,9,0.526,1.0,83.01100000000002,0.17,1,2020-09-04 16:56:47.000,194,2020-09-04 16:58:08.321,0.25,-90,-150,60,120,1
7142,4,0,100.649,0,150,1,0.25,2,3,0.0,0.0,5,48.0,30.0,3,0.451,0.0,103.094,0.13,1,2020-09-04 16:56:47.000,194,2020-09-04 16:58:27.649,0.25,90,30,-120,-60,1
7143,5,0,116.54,0,150,1,0.25,2,9,0.0,0.0,11,48.0,30.0,9,0.476,1.0,118.018,0.17,1,2020-09-04 16:56:47.000,194,2020-09-04 16:58:43.540,0.25,-90,-150,60,120,1
7144,6,0,159.61700000000005,0,150,1,0.25,2,9,0.0,0.0,11,48.0,30.0,9,0.551,1.0,161.541,0.17,1,2020-09-04 16:56:47.000,194,2020-09-04 16:59:26.617,0.25,-90,-150,60,120,1
7145,7,0,183.348,0,150,1,0.25,2,3,0.0,0.0,5,48.0,30.0,3,0.476,0.0,185.421,0.13,1,2020-09-04 16:56:47.000,194,2020-09-04 16:59:50.348,0.25,90,30,-120,-60,1
7146,8,0,203.074,0,150,1,0.25,2,9,0.0,0.0,11,48.0,30.0,9,0.526,1.0,204.748,0.17,1,2020-09-04 16:56:47.000,194,2020-09-04 17:00:10.074,0.25,-90,-150,60,120,1
7147,9,0,240.729,0,150,1,0.25,2,9,0.0,0.0,11,48.0,30.0,9,0.551,1.0,242.461,0.17,1,2020-09-04 16:56:47.000,194,2020-09-04 17:00:47.729,0.25,-90,-150,60,120,1
7148,10,0,264.59,0,150,1,0.25,2,9,0.0,0.0,11,48.0,30.0,9,0.501,1.0,266.172,0.17,1,2020-09-04 16:56:47.000,194,2020-09-04 17:01:11.590,0.25,-90,-150,60,120,1
7149,11,0,290.6690000000001,0,150,1,0.25,2,3,0.0,0.0,5,48.0,30.0,3,0.451,0.0,293.409,0.13,1,2020-09-04 16:56:47.000,194,2020-09-04 17:01:37.669,0.25,90,30,-120,-60,1
7208,1,0,41.955,0,0,1,0.25,2,9,0.0,0.0,11,48.0,30.0,9,0.476,0.0,44.298,0.0,0,2020-09-14 10:59:59.000,188,2020-09-14 11:00:40.955,0.25,90,-150,-150,90,1
7209,3,0,99.381,0,0,1,0.25,2,9,0.0,0.0,11,48.0,30.0,9,0.501,0.0,103.978,0.0,0,2020-09-14 10:59:59.000,188,2020-09-14 11:01:38.381,0.25,90,-150,-150,90,1
7210,5,0,137.787,0,0,1,0.25,2,9,0.0,0.0,11,48.0,30.0,9,0.451,1.0,139.738,0.17,1,2020-09-14 10:59:59.000,188,2020-09-14 11:02:16.787,0.25,-90,-150,-150,-90,1
7211,6,0,160.058,0,0,1,0.25,2,3,0.0,0.0,5,48.0,30.0,3,0.551,0.0,162.029,0.13,1,2020-09-14 10:59:59.000,188,2020-09-14 11:02:39.058,0.25,90,30,30,90,1
7212,7,0,172.94299999999996,0,0,1,0.25,2,3,0.0,0.0,5,48.0,30.0,3,0.526,0.0,174.74599999999995,0.13,1,2020-09-14 10:59:59.000,188,2020-09-14 11:02:51.943,0.25,90,30,30,90,1
7213,8,0,186.71,1,0,1,0.25,2,3,0.0,0.0,5,48.0,30.0,3,0.551,0.0,191.236,0.13,1,2020-09-14 10:59:59.000,188,2020-09-14 11:03:05.710,0.25,90,30,30,90,1
7214,9,0,196.11,0,0,1,0.25,2,9,0.0,0.0,11,48.0,30.0,9,0.476,1.0,199.363,0.17,1,2020-09-14 10:59:59.000,188,2020-09-14 11:03:15.110,0.25,-90,-150,-150,-90,1
7215,10,0,221.295,0,0,1,0.25,2,3,0.0,0.0,5,48.0,30.0,3,0.526,1.0,223.515,0.0,0,2020-09-14 10:59:59.000,188,2020-09-14 11:03:40.295,0.25,-90,30,30,-90,1
7216,12,0,240.495,0,0,1,0.25,2,9,0.0,0.0,11,48.0,30.0,9,0.451,1.0,242.159,0.17,1,2020-09-14 10:59:59.000,188,2020-09-14 11:03:59.495,0.25,-90,-150,-150,-90,1
