,Trial,CorrectionTrial,StartTime,CenterReward,CenterSpoutRotation,nStimReps,Duration,Modality,LED Location,LED_trial_V,LED_bgnd_V,Speaker Location,Speaker_trial_V,Speaker_bgnd_V,TargetSpout,HoldTime,Response,RespTime,ValveTime,Correct,SessionDate,SessionID,StartDateTime,StimulusTotalDuration,response_angle_world,speaker_angle_world,speaker_angle_platform,response_angle_platform,not_probe
195,1,0,27.657,0,-30,1,0.25,2,9,0.0,0.0,7,45.0,30.0,9,0.8009999999999999,0.0,28.426,0.0,0,2019-09-20 08:39:49.000,59,2019-09-20 08:40:16.657,0.25,90,-30,0,120,1
196,3,0,37.145,0,-30,1,0.25,2,9,0.0,0.0,7,45.0,30.0,9,0.701,1.0,37.487,0.15,1,2019-09-20 08:39:49.000,59,2019-09-20 08:40:26.145,0.25,-90,-30,0,-60,1
197,4,0,40.97,0,-30,1,0.25,2,3,0.0,0.0,1,45.0,30.0,3,0.7509999999999999,0.0,41.26300000000001,0.15,1,2019-09-20 08:39:49.000,59,2019-09-20 08:40:29.970,0.25,90,150,-180,120,1
198,5,0,44.402,0,-30,1,0.25,2,3,0.0,0.0,1,45.0,30.0,3,0.851,1.0,44.528,0.0,0,2019-09-20 08:39:49.000,59,2019-09-20 08:40:33.402,0.25,-90,150,-180,-60,1
199,9,0,88.86399999999998,0,-30,1,0.25,2,9,0.0,0.0,7,45.0,30.0,9,0.701,0.0,89.45299999999997,0.0,0,2019-09-20 08:39:49.000,59,2019-09-20 08:41:17.864,0.25,90,-30,0,120,1
200,12,0,98.069,0,-30,1,0.25,2,9,0.0,0.0,7,45.0,30.0,9,0.851,1.0,98.561,0.15,1,2019-09-20 08:39:49.000,59,2019-09-20 08:41:27.069,0.25,-90,-30,0,-60,1
201,13,0,102.181,0,-30,1,0.25,2,3,0.0,0.0,1,45.0,30.0,3,0.701,1.0,103.18,0.0,0,2019-09-20 08:39:49.000,59,2019-09-20 08:41:31.181,0.25,-90,150,-180,-60,1
202,16,0,114.916,0,-30,1,0.25,2,3,0.0,0.0,1,45.0,30.0,3,0.8009999999999999,0.0,115.426,0.15,1,2019-09-20 08:39:49.000,59,2019-09-20 08:41:43.916,0.25,90,150,-180,120,1
203,17,0,118.132,0,-30,1,0.25,2,9,0.0,0.0,7,45.0,30.0,9,0.851,0.0,118.999,0.0,0,2019-09-20 08:39:49.000,59,2019-09-20 08:41:47.132,0.25,90,-30,0,120,1
204,19,0,129.68,0,-30,1,0.25,2,3,0.0,0.0,1,45.0,30.0,3,0.7509999999999999,0.0,130.35399999999998,0.15,1,2019-09-20 08:39:49.000,59,2019-09-20 08:41:58.680,0.25,90,150,-180,120,1
356,1,0,18.815,0,30,1,0.25,2,9,0.0,0.0,5,45.0,30.0,9,0.701,1.0,19.26,0.15,1,2019-09-20 13:59:57.000,114,2019-09-20 14:00:15.815,0.25,-90,30,0,-120,1
357,2,0,23.797,0,30,1,0.25,2,3,0.0,0.0,11,45.0,30.0,3,0.851,0.0,35.876,0.15,1,2019-09-20 13:59:57.000,114,2019-09-20 14:00:20.797,0.25,90,-150,-180,60,1
358,3,0,39.677,0,30,1,0.25,2,9,0.0,0.0,5,45.0,30.0,9,0.7509999999999999,1.0,40.217,0.15,1,2019-09-20 13:59:57.000,114,2019-09-20 14:00:36.677,0.25,-90,30,0,-120,1
359,4,0,45.71,0,30,1,0.25,2,3,0.0,0.0,11,45.0,30.0,3,0.8009999999999999,1.0,46.4,0.0,0,2019-09-20 13:59:57.000,114,2019-09-20 14:00:42.710,0.25,-90,-150,-180,-120,1
360,6,0,52.65600000000001,0,30,1,0.25,2,9,0.0,0.0,5,45.0,30.0,9,0.7509999999999999,1.0,53.032,0.15,1,2019-09-20 13:59:57.000,114,2019-09-20 14:00:49.656,0.25,-90,30,0,-120,1
361,7,0,57.502,0,30,1,0.25,2,9,0.0,0.0,5,45.0,30.0,9,0.701,1.0,57.9,0.15,1,2019-09-20 13:59:57.000,114,2019-09-20 14:00:54.502,0.25,-90,30,0,-120,1
362,8,0,61.102,0,30,1,0.25,2,3,0.0,0.0,11,45.0,30.0,3,0.851,0.0,61.701,0.15,1,2019-09-20 13:59:57.000,114,2019-09-20 14:00:58.102,0.25,90,-150,-180,60,1
363,9,0,67.958,0,30,1,0.25,2,9,0.0,0.0,5,45.0,30.0,9,0.901,1.0,68.22800000000001,0.15,1,2019-09-20 13:59:57.000,114,2019-09-20 14:01:04.958,0.25,-90,30,0,-120,1
364,10,0,73.15,1,30,1,0.25,2,9,0.0,0.0,5,45.0,30.0,9,0.8009999999999999,1.0,73.807,0.15,1,2019-09-20 13:59:57.000,114,2019-09-20 14:01:10.150,0.25,-90,30,0,-120,1
365,11,0,76.52,0,30,1,0.25,2,9,0.0,0.0,5,45.0,30.0,9,0.7509999999999999,0.0,77.92399999999998,0.0,0,2019-09-20 13:59:57.000,114,2019-09-20 14:01:13.520,0.25,90,30,0,60,1
578,1,0,70.895,0,0,1,0.25,2,3,0.0,0.0,12,45.0,30.0,3,0.851,0.0,71.497,0.15,1,2019-09-23 16:12:24.000,1,2019-09-23 16:13:34.895,0.25,90,-180,-180,90,1
579,2,0,75.631,0,0,1,0.25,2,9,0.0,0.0,6,45.0,30.0,9,0.8009999999999999,0.0,76.179,0.0,0,2019-09-23 16:12:24.000,1,2019-09-23 16:13:39.631,0.25,90,0,0,90,1
580,6,0,99.825,0,0,1,0.25,2,9,0.0,0.0,6,45.0,30.0,9,0.7509999999999999,0.0,100.721,0.0,0,2019-09-23 16:12:24.000,1,2019-09-23 16:14:03.825,0.25,90,0,0,90,1
581,9,0,109.896,0,0,1,0.25,2,9,0.0,0.0,6,45.0,30.0,9,0.901,0.0,110.565,0.0,0,2019-09-23 16:12:24.000,1,2019-09-23 16:14:13.896,0.25,90,0,0,90,1
582,11,0,119.579,0,0,1,0.25,2,9,0.0,0.0,6,45.0,30.0,9,0.701,1.0,120.629,0.15,1,2019-09-23 16:12:24.000,1,2019-09-23 16:14:23.579,0.25,-90,0,0,-90,1
583,12,0,128.804,0,0,1,0.25,2,3,0.0,0.0,12,45.0,30.0,3,0.8009999999999999,1.0,129.02200000000002,0.0,0,2019-09-23 16:12:24.000,1,2019-09-23 16:14:32.804,0.25,-90,-180,-180,-90,1
584,14,0,134.47799999999998,0,0,1,0.25,2,9,0.0,0.0,6,45.0,30.0,9,0.901,0.0,135.159,0.0,0,2019-09-23 16:12:24.000,1,2019-09-23 16:14:38.478,0.25,90,0,0,90,1
585,18,0,148.344,0,0,1,0.25,2,3,0.0,0.0,12,45.0,30.0,3,0.701,0.0,149.238,0.15,1,2019-09-23 16:12:24.000,1,2019-09-23 16:14:52.344,0.25,90,-180,-180,90,1
586,19,0,152.095,0,0,1,0.25,2,3,0.0,0.0,12,45.0,30.0,3,0.7509999999999999,1.0,152.715,0.0,0,2019-09-23 16:12:24.000,1,2019-09-23 16:14:56.095,0.25,-90,-180,-180,-90,1
587,22,0,160.83,0,0,1,0.25,2,9,0.0,0.0,6,45.0,30.0,9,0.7509999999999999,0.0,163.99400000000003,0.0,0,2019-09-23 16:12:24.000,1,2019-09-23 16:15:04.830,0.25,90,0,0,90,1
841,1,0,31.141,0,-30,1,0.25,2,9,0.0,0.0,7,45.0,30.0,9,0.8009999999999999,1.0,31.221,0.15,1,2019-09-24 13:59:43.000,242,2019-09-24 14:00:14.141,0.25,-90,-30,0,-60,1
842,2,0,45.375,0,-30,1,0.25,2,3,0.0,0.0,1,45.0,30.0,3,0.901,0.0,45.679,0.15,1,2019-09-24 13:59:43.000,242,2019-09-24 14:00:28.375,0.25,90,150,-180,120,1
843,3,0,47.357,0,-30,1,0.25,2,3,0.0,0.0,1,45.0,30.0,3,0.701,1.0,47.892,0.0,0,2019-09-24 13:59:43.000,242,2019-09-24 14:00:30.357,0.25,-90,150,-180,-60,1
844,5,0,53.433,0,-30,1,0.25,2,9,0.0,0.0,7,45.0,30.0,9,0.851,0.0,54.145,0.0,0,2019-09-24 13:59:43.000,242,2019-09-24 14:00:36.433,0.25,90,-30,0,120,1
845,7,0,59.06399999999999,0,-30,1,0.25,2,3,0.0,0.0,1,45.0,30.0,3,0.851,0.0,59.76300000000001,0.15,1,2019-09-24 13:59:43.000,242,2019-09-24 14:00:42.064,0.25,90,150,-180,120,1
846,8,0,62.673,0,-30,1,0.25,2,3,0.0,0.0,1,45.0,30.0,3,0.7509999999999999,0.0,63.437,0.15,1,2019-09-24 13:59:43.000,242,2019-09-24 14:00:45.673,0.25,90,150,-180,120,1
847,9,0,66.306,0,-30,1,0.25,2,3,0.0,0.0,1,45.0,30.0,3,0.901,0.0,66.777,0.15,1,2019-09-24 13:59:43.000,242,2019-09-24 14:00:49.306,0.25,90,150,-180,120,1
848,10,0,69.811,0,-30,1,0.25,2,9,0.0,0.0,7,45.0,30.0,9,0.701,1.0,70.33800000000001,0.15,1,2019-09-24 13:59:43.000,242,2019-09-24 14:00:52.811,0.25,-90,-30,0,-60,1
849,11,0,72.71,0,-30,1,0.25,2,9,0.0,0.0,7,45.0,30.0,9,0.8009999999999999,0.0,73.289,0.0,0,2019-09-24 13:59:43.000,242,2019-09-24 14:00:55.710,0.25,90,-30,0,120,1
850,14,0,81.818,0,-30,1,0.25,2,9,0.0,0.0,7,45.0,30.0,9,0.851,1.0,82.01,0.15,1,2019-09-24 13:59:43.000,242,2019-09-24 14:01:04.818,0.25,-90,-30,0,-60,1
961,1,0,14.315,0,-60,1,0.25,2,3,0.0,0.0,2,45.0,30.0,3,0.8009999999999999,0.0,14.890999999999998,0.15,1,2019-09-25 08:40:03.000,116,2019-09-25 08:40:17.315,0.25,90,120,-180,150,1
962,2,0,18.345,0,-60,1,0.25,2,3,0.0,0.0,2,45.0,30.0,3,0.901,1.0,19.207,0.0,0,2019-09-25 08:40:03.000,116,2019-09-25 08:40:21.345,0.25,-90,120,-180,-30,1
963,4,0,26.703000000000007,0,-60,1,0.25,2,3,0.0,0.0,2,45.0,30.0,3,0.701,0.0,28.229,0.15,1,2019-09-25 08:40:03.000,116,2019-09-25 08:40:29.703,0.25,90,120,-180,150,1
964,5,0,31.205,0,-60,1,0.25,2,3,0.0,0.0,2,45.0,30.0,3,0.7509999999999999,0.0,32.06,0.15,1,2019-09-25 08:40:03.000,116,2019-09-25 08:40:34.205,0.25,90,120,-180,150,1
965,6,0,34.646,0,-60,1,0.25,2,3,0.0,0.0,2,45.0,30.0,3,0.701,1.0,35.16,0.0,0,2019-09-25 08:40:03.000,116,2019-09-25 08:40:37.646,0.25,-90,120,-180,-30,1
966,8,0,42.933,0,-60,1,0.25,2,3,0.0,0.0,2,45.0,30.0,3,0.901,0.0,43.303,0.15,1,2019-09-25 08:40:03.000,116,2019-09-25 08:40:45.933,0.25,90,120,-180,150,1
967,9,0,46.428,0,-60,1,0.25,2,3,0.0,0.0,2,45.0,30.0,3,0.7509999999999999,0.0,47.014,0.15,1,2019-09-25 08:40:03.000,116,2019-09-25 08:40:49.428,0.25,90,120,-180,150,1
968,10,0,66.015,0,-60,1,0.25,2,3,0.0,0.0,2,45.0,30.0,3,0.851,0.0,66.465,0.15,1,2019-09-25 08:40:03.000,116,2019-09-25 08:41:09.015,0.25,90,120,-180,150,1
969,11,0,70.305,0,-60,1,0.25,2,3,0.0,0.0,2,45.0,30.0,3,0.901,0.0,70.785,0.15,1,2019-09-25 08:40:03.000,116,2019-09-25 08:41:13.305,0.25,90,120,-180,150,1
970,12,0,78.44800000000002,1,-60,1,0.25,2,9,0.0,0.0,8,45.0,30.0,9,0.8009999999999999,1.0,78.85,0.15,1,2019-09-25 08:40:03.000,116,2019-09-25 08:41:21.448,0.25,-90,-60,0,-30,1
1109,1,0,21.286,0,-90,1,0.25,2,3,0.0,0.0,3,45.0,30.0,3,0.7509999999999999,0.0,21.746,0.15,1,2019-09-25 14:06:47.000,58,2019-09-25 14:07:08.286,0.25,90,90,-180,-180,1
1110,2,0,23.81,0,-90,1,0.25,2,3,0.0,0.0,3,45.0,30.0,3,0.8009999999999999,0.0,24.252,0.15,1,2019-09-25 14:06:47.000,58,2019-09-25 14:07:10.810,0.25,90,90,-180,-180,1
1111,3,0,32.628,0,-90,1,0.25,2,9,0.0,0.0,9,45.0,30.0,9,0.901,0.0,33.186,0.0,0,2019-09-25 14:06:47.000,58,2019-09-25 14:07:19.628,0.25,90,-90,0,-180,1
1112,5,0,36.785,0,-90,1,0.25,2,3,0.0,0.0,3,45.0,30.0,3,0.851,0.0,37.233,0.15,1,2019-09-25 14:06:47.000,58,2019-09-25 14:07:23.785,0.25,90,90,-180,-180,1
1113,6,0,40.211,0,-90,1,0.25,2,3,0.0,0.0,3,45.0,30.0,3,0.901,0.0,40.809,0.15,1,2019-09-25 14:06:47.000,58,2019-09-25 14:07:27.211,0.25,90,90,-180,-180,1
1114,7,0,44.065,1,-90,1,0.25,2,9,0.0,0.0,9,45.0,30.0,9,0.8009999999999999,0.0,44.587,0.0,0,2019-09-25 14:06:47.000,58,2019-09-25 14:07:31.065,0.25,90,-90,0,-180,1
1115,9,0,49.791,0,-90,1,0.25,2,9,0.0,0.0,9,45.0,30.0,9,0.851,0.0,50.255,0.0,0,2019-09-25 14:06:47.000,58,2019-09-25 14:07:36.791,0.25,90,-90,0,-180,1
1116,12,0,66.26,0,-90,1,0.25,2,3,0.0,0.0,3,45.0,30.0,3,0.8009999999999999,0.0,66.615,0.15,1,2019-09-25 14:06:47.000,58,2019-09-25 14:07:53.260,0.25,90,90,-180,-180,1
1117,13,0,69.814,0,-90,1,0.25,2,3,0.0,0.0,3,45.0,30.0,3,0.851,1.0,70.207,0.0,0,2019-09-25 14:06:47.000,58,2019-09-25 14:07:56.814,0.25,-90,90,-180,0,1
1118,15,0,75.388,0,-90,1,0.25,2,3,0.0,0.0,3,45.0,30.0,3,0.7509999999999999,0.0,75.903,0.15,1,2019-09-25 14:06:47.000,58,2019-09-25 14:08:02.388,0.25,90,90,-180,-180,1
1380,1,0,15.66,0,-150,1,0.25,2,9,0.0,0.0,11,45.0,30.0,9,0.851,1.0,15.897,0.15,1,2019-09-26 14:06:22.000,156,2019-09-26 14:06:37.660,0.25,-90,-150,0,60,1
1381,2,0,28.985,0,-150,1,0.25,2,9,0.0,0.0,11,45.0,30.0,9,0.7509999999999999,0.0,29.428,0.0,0,2019-09-26 14:06:22.000,156,2019-09-26 14:06:50.985,0.25,90,-150,0,-120,1
1382,6,0,40.352,0,-150,1,0.25,2,9,0.0,0.0,11,45.0,30.0,9,0.901,1.0,41.073,0.15,1,2019-09-26 14:06:22.000,156,2019-09-26 14:07:02.352,0.25,-90,-150,0,60,1
1383,7,0,44.128,0,-150,1,0.25,2,9,0.0,0.0,11,45.0,30.0,9,0.7509999999999999,0.0,44.765,0.0,0,2019-09-26 14:06:22.000,156,2019-09-26 14:07:06.128,0.25,90,-150,0,-120,1
1384,9,0,50.294,0,-150,1,0.25,2,9,0.0,0.0,11,45.0,30.0,9,0.851,1.0,51.098,0.15,1,2019-09-26 14:06:22.000,156,2019-09-26 14:07:12.294,0.25,-90,-150,0,60,1
1385,10,0,56.727,1,-150,1,0.25,2,9,0.0,0.0,11,45.0,30.0,9,0.701,1.0,59.951,0.15,1,2019-09-26 14:06:22.000,156,2019-09-26 14:07:18.727,0.25,-90,-150,0,60,1
1386,11,0,62.557,0,-150,1,0.25,2,3,0.0,0.0,5,45.0,30.0,3,0.8009999999999999,1.0,63.38800000000001,0.0,0,2019-09-26 14:06:22.000,156,2019-09-26 14:07:24.557,0.25,-90,30,-180,60,1
1387,13,0,71.657,0,-150,1,0.25,2,9,0.0,0.0,11,45.0,30.0,9,0.901,0.0,72.009,0.0,0,2019-09-26 14:06:22.000,156,2019-09-26 14:07:33.657,0.25,90,-150,0,-120,1
1388,15,0,77.47800000000002,0,-150,1,0.25,2,9,0.0,0.0,11,45.0,30.0,9,0.7509999999999999,1.0,78.382,0.15,1,2019-09-26 14:06:22.000,156,2019-09-26 14:07:39.478,0.25,-90,-150,0,60,1
1389,16,0,81.556,0,-150,1,0.25,2,9,0.0,0.0,11,45.0,30.0,9,0.851,1.0,82.238,0.15,1,2019-09-26 14:06:22.000,156,2019-09-26 14:07:43.556,0.25,-90,-150,0,60,1
1586,1,0,26.674,0,180,1,0.25,2,3,0.0,0.0,6,45.0,30.0,3,0.8009999999999999,1.0,26.937,0.0,0,2019-09-27 09:32:46.000,213,2019-09-27 09:33:12.674,0.25,-90,0,-180,90,1
1587,3,0,58.48,0,180,1,0.25,2,3,0.0,0.0,6,45.0,30.0,3,0.7509999999999999,0.0,59.022,0.15,1,2019-09-27 09:32:46.000,213,2019-09-27 09:33:44.480,0.25,90,0,-180,-90,1
1588,4,0,62.529,1,180,1,0.25,2,3,0.0,0.0,6,45.0,30.0,3,0.851,0.0,63.014,0.15,1,2019-09-27 09:32:46.000,213,2019-09-27 09:33:48.529,0.25,90,0,-180,-90,1
1589,5,0,66.06,0,180,1,0.25,2,9,0.0,0.0,12,45.0,30.0,9,0.701,0.0,68.642,0.0,0,2019-09-27 09:32:46.000,213,2019-09-27 09:33:52.060,0.25,90,-180,0,-90,1
1590,7,0,77.452,0,180,1,0.25,2,9,0.0,0.0,12,45.0,30.0,9,0.7509999999999999,1.0,77.811,0.15,1,2019-09-27 09:32:46.000,213,2019-09-27 09:34:03.452,0.25,-90,-180,0,90,1
1591,8,0,86.604,0,180,1,0.25,2,3,0.0,0.0,6,45.0,30.0,3,0.851,0.0,87.182,0.15,1,2019-09-27 09:32:46.000,213,2019-09-27 09:34:12.604,0.25,90,0,-180,-90,1
1592,9,0,91.155,0,180,1,0.25,2,9,0.0,0.0,12,45.0,30.0,9,0.701,1.0,91.663,0.15,1,2019-09-27 09:32:46.000,213,2019-09-27 09:34:17.155,0.25,-90,-180,0,90,1
1593,10,0,97.865,0,180,1,0.25,2,3,0.0,0.0,6,45.0,30.0,3,0.901,0.0,98.04,0.15,1,2019-09-27 09:32:46.000,213,2019-09-27 09:34:23.865,0.25,90,0,-180,-90,1
1594,11,0,102.374,0,180,1,0.25,2,9,0.0,0.0,12,45.0,30.0,9,0.8009999999999999,0.0,103.0,0.0,0,2019-09-27 09:32:46.000,213,2019-09-27 09:34:28.374,0.25,90,-180,0,-90,1
1595,13,0,110.1,0,180,1,0.25,2,3,0.0,0.0,6,45.0,30.0,3,0.7509999999999999,0.0,110.625,0.15,1,2019-09-27 09:32:46.000,213,2019-09-27 09:34:36.100,0.25,90,0,-180,-90,1
1687,1,0,30.744,0,150,1,0.25,2,3,0.0,0.0,7,45.0,30.0,3,0.901,1.0,31.089,0.0,0,2019-09-27 14:44:40.000,11,2019-09-27 14:45:10.744,0.25,-90,-30,-180,120,1
1688,3,0,38.901,0,150,1,0.25,2,9,0.0,0.0,1,45.0,30.0,9,0.851,0.0,39.204,0.0,0,2019-09-27 14:44:40.000,11,2019-09-27 14:45:18.901,0.25,90,150,0,-60,1
1689,5,0,44.37600000000001,0,150,1,0.25,2,3,0.0,0.0,7,45.0,30.0,3,0.701,0.0,45.272,0.15,1,2019-09-27 14:44:40.000,11,2019-09-27 14:45:24.376,0.25,90,-30,-180,-60,1
1690,6,0,48.90600000000001,0,150,1,0.25,2,9,0.0,0.0,1,45.0,30.0,9,0.7509999999999999,1.0,49.36600000000001,0.15,1,2019-09-27 14:44:40.000,11,2019-09-27 14:45:28.906,0.25,-90,150,0,120,1
1691,7,0,53.249,0,150,1,0.25,2,9,0.0,0.0,1,45.0,30.0,9,0.901,1.0,53.51600000000001,0.15,1,2019-09-27 14:44:40.000,11,2019-09-27 14:45:33.249,0.25,-90,150,0,120,1
1692,8,0,56.815,0,150,1,0.25,2,3,0.0,0.0,7,45.0,30.0,3,0.851,1.0,57.41,0.0,0,2019-09-27 14:44:40.000,11,2019-09-27 14:45:36.815,0.25,-90,-30,-180,120,1
1693,10,0,63.88399999999999,0,150,1,0.25,2,3,0.0,0.0,7,45.0,30.0,3,0.8009999999999999,1.0,64.494,0.0,0,2019-09-27 14:44:40.000,11,2019-09-27 14:45:43.884,0.25,-90,-30,-180,120,1
1694,13,0,76.801,0,150,1,0.25,2,9,0.0,0.0,1,45.0,30.0,9,0.701,0.0,77.19800000000002,0.0,0,2019-09-27 14:44:40.000,11,2019-09-27 14:45:56.801,0.25,90,150,0,-60,1
1695,15,0,82.105,0,150,1,0.25,2,3,0.0,0.0,7,45.0,30.0,3,0.7509999999999999,0.0,82.646,0.15,1,2019-09-27 14:44:40.000,11,2019-09-27 14:46:02.105,0.25,90,-30,-180,-60,1
1696,16,0,86.544,0,150,1,0.25,2,9,0.0,0.0,1,45.0,30.0,9,0.851,1.0,86.935,0.15,1,2019-09-27 14:44:40.000,11,2019-09-27 14:46:06.544,0.25,-90,150,0,120,1
1834,1,0,57.981,0,0,1,0.25,2,3,0.0,0.0,12,45.0,30.0,3,0.701,0.0,58.551,0.15,1,2019-09-30 09:13:31.000,215,2019-09-30 09:14:28.981,0.25,90,-180,-180,90,1
1835,2,0,62.484,0,0,1,0.25,2,9,0.0,0.0,6,45.0,30.0,9,0.8009999999999999,1.0,63.051,0.15,1,2019-09-30 09:13:31.000,215,2019-09-30 09:14:33.484,0.25,-90,0,0,-90,1
1836,3,0,75.27600000000002,1,0,1,0.25,2,3,0.0,0.0,12,45.0,30.0,3,0.901,1.0,75.53699999999998,0.0,0,2019-09-30 09:13:31.000,215,2019-09-30 09:14:46.276,0.25,-90,-180,-180,-90,1
1837,5,0,83.05799999999998,0,0,1,0.25,2,3,0.0,0.0,12,45.0,30.0,3,0.7509999999999999,1.0,83.405,0.0,0,2019-09-30 09:13:31.000,215,2019-09-30 09:14:54.058,0.25,-90,-180,-180,-90,1
1838,7,0,96.087,0,0,1,0.25,2,3,0.0,0.0,12,45.0,30.0,3,0.901,0.0,96.318,0.15,1,2019-09-30 09:13:31.000,215,2019-09-30 09:15:07.087,0.25,90,-180,-180,90,1
1839,8,0,99.819,0,0,1,0.25,2,3,0.0,0.0,12,45.0,30.0,3,0.7509999999999999,0.0,100.253,0.15,1,2019-09-30 09:13:31.000,215,2019-09-30 09:15:10.819,0.25,90,-180,-180,90,1
1840,9,0,104.061,0,0,1,0.25,2,9,0.0,0.0,6,45.0,30.0,9,0.701,0.0,104.759,0.0,0,2019-09-30 09:13:31.000,215,2019-09-30 09:15:15.061,0.25,90,0,0,90,1
1841,13,0,149.869,0,0,1,0.25,2,3,0.0,0.0,12,45.0,30.0,3,0.851,1.0,150.599,0.0,0,2019-09-30 09:13:31.000,215,2019-09-30 09:16:00.869,0.25,-90,-180,-180,-90,1
1842,16,0,159.921,1,0,1,0.25,2,3,0.0,0.0,12,45.0,30.0,3,0.901,0.0,163.404,0.15,1,2019-09-30 09:13:31.000,215,2019-09-30 09:16:10.921,0.25,90,-180,-180,90,1
1843,17,0,167.21599999999995,1,0,1,0.25,2,3,0.0,0.0,12,45.0,30.0,3,0.7509999999999999,0.0,170.607,0.15,1,2019-09-30 09:13:31.000,215,2019-09-30 09:16:18.216,0.25,90,-180,-180,90,1
2141,1,0,48.433,0,30,1,0.25,2,3,0.0,0.0,11,45.0,30.0,3,0.8009999999999999,1.0,48.733,0.0,0,2019-10-01 08:48:10.000,84,2019-10-01 08:48:58.433,0.25,-90,-150,-180,-120,1
2142,3,0,56.12600000000001,0,30,1,0.25,2,9,0.0,0.0,5,45.0,30.0,9,0.901,1.0,56.508,0.15,1,2019-10-01 08:48:10.000,84,2019-10-01 08:49:06.126,0.25,-90,30,0,-120,1
2143,4,0,59.773,0,30,1,0.25,2,3,0.0,0.0,11,45.0,30.0,3,0.701,0.0,60.194,0.15,1,2019-10-01 08:48:10.000,84,2019-10-01 08:49:09.773,0.25,90,-150,-180,60,1
2144,5,0,81.612,0,30,1,0.25,2,3,0.0,0.0,11,45.0,30.0,3,0.851,0.0,81.755,0.15,1,2019-10-01 08:48:10.000,84,2019-10-01 08:49:31.612,0.25,90,-150,-180,60,1
2145,6,0,85.051,0,30,1,0.25,2,9,0.0,0.0,5,45.0,30.0,9,0.901,1.0,85.354,0.15,1,2019-10-01 08:48:10.000,84,2019-10-01 08:49:35.051,0.25,-90,30,0,-120,1
2146,7,0,90.274,0,30,1,0.25,2,3,0.0,0.0,11,45.0,30.0,3,0.8009999999999999,0.0,90.792,0.15,1,2019-10-01 08:48:10.000,84,2019-10-01 08:49:40.274,0.25,90,-150,-180,60,1
2147,8,0,93.713,0,30,1,0.25,2,3,0.0,0.0,11,45.0,30.0,3,0.7509999999999999,1.0,94.019,0.0,0,2019-10-01 08:48:10.000,84,2019-10-01 08:49:43.713,0.25,-90,-150,-180,-120,1
2148,10,0,99.267,1,30,1,0.25,2,3,0.0,0.0,11,45.0,30.0,3,0.851,0.0,99.916,0.15,1,2019-10-01 08:48:10.000,84,2019-10-01 08:49:49.267,0.25,90,-150,-180,60,1
2149,11,0,102.717,0,30,1,0.25,2,9,0.0,0.0,5,45.0,30.0,9,0.7509999999999999,1.0,105.017,0.15,1,2019-10-01 08:48:10.000,84,2019-10-01 08:49:52.717,0.25,-90,30,0,-120,1
2150,12,0,109.021,0,30,1,0.25,2,3,0.0,0.0,11,45.0,30.0,3,0.851,0.0,109.515,0.15,1,2019-10-01 08:48:10.000,84,2019-10-01 08:49:59.021,0.25,90,-150,-180,60,1
2286,1,0,35.985,0,60,1,0.25,2,9,0.0,0.0,4,45.0,30.0,9,0.7509999999999999,1.0,36.204,0.15,1,2019-10-01 14:18:04.000,157,2019-10-01 14:18:39.985,0.25,-90,60,0,-150,1
2287,2,0,39.695,0,60,1,0.25,2,9,0.0,0.0,4,45.0,30.0,9,0.851,0.0,40.236,0.0,0,2019-10-01 14:18:04.000,157,2019-10-01 14:18:43.695,0.25,90,60,0,30,1
2288,4,0,47.113,0,60,1,0.25,2,3,0.0,0.0,10,45.0,30.0,3,0.8009999999999999,0.0,47.95399999999999,0.15,1,2019-10-01 14:18:04.000,157,2019-10-01 14:18:51.113,0.25,90,-120,-180,30,1
2289,5,0,49.67,0,60,1,0.25,2,9,0.0,0.0,4,45.0,30.0,9,0.701,1.0,50.098,0.15,1,2019-10-01 14:18:04.000,157,2019-10-01 14:18:53.670,0.25,-90,60,0,-150,1
2290,6,0,54.399,0,60,1,0.25,2,9,0.0,0.0,4,45.0,30.0,9,0.851,1.0,54.974,0.15,1,2019-10-01 14:18:04.000,157,2019-10-01 14:18:58.399,0.25,-90,60,0,-150,1
2291,7,0,58.493,0,60,1,0.25,2,9,0.0,0.0,4,45.0,30.0,9,0.901,1.0,58.718,0.15,1,2019-10-01 14:18:04.000,157,2019-10-01 14:19:02.493,0.25,-90,60,0,-150,1
2292,8,0,61.768,0,60,1,0.25,2,3,0.0,0.0,10,45.0,30.0,3,0.8009999999999999,0.0,62.565,0.15,1,2019-10-01 14:18:04.000,157,2019-10-01 14:19:05.768,0.25,90,-120,-180,30,1
2293,9,0,65.884,0,60,1,0.25,2,3,0.0,0.0,10,45.0,30.0,3,0.701,1.0,66.608,0.0,0,2019-10-01 14:18:04.000,157,2019-10-01 14:19:09.884,0.25,-90,-120,-180,-150,1
2294,11,0,73.926,0,60,1,0.25,2,3,0.0,0.0,10,45.0,30.0,3,0.701,0.0,74.87100000000002,0.15,1,2019-10-01 14:18:04.000,157,2019-10-01 14:19:17.926,0.25,90,-120,-180,30,1
2295,12,0,78.031,0,60,1,0.25,2,3,0.0,0.0,10,45.0,30.0,3,0.851,1.0,78.457,0.0,0,2019-10-01 14:18:04.000,157,2019-10-01 14:19:22.031,0.25,-90,-120,-180,-150,1
2482,1,0,11.389,0,90,1,0.25,2,9,0.0,0.0,3,45.0,30.0,9,0.851,0.0,12.265999999999998,0.0,0,2019-10-02 08:49:53.000,234,2019-10-02 08:50:04.389,0.25,90,90,0,0,1
2483,3,0,39.398,0,90,1,0.25,2,3,0.0,0.0,9,45.0,30.0,3,0.901,1.0,40.109,0.0,0,2019-10-02 08:49:53.000,234,2019-10-02 08:50:32.398,0.25,-90,-90,-180,-180,1
2484,5,0,45.905,0,90,1,0.25,2,9,0.0,0.0,3,45.0,30.0,9,0.8009999999999999,1.0,46.371,0.15,1,2019-10-02 08:49:53.000,234,2019-10-02 08:50:38.905,0.25,-90,90,0,-180,1
2485,6,0,53.374,0,90,1,0.25,2,9,0.0,0.0,3,45.0,30.0,9,0.901,1.0,53.622,0.15,1,2019-10-02 08:49:53.000,234,2019-10-02 08:50:46.374,0.25,-90,90,0,-180,1
2486,7,0,56.706,0,90,1,0.25,2,9,0.0,0.0,3,45.0,30.0,9,0.851,0.0,57.478,0.0,0,2019-10-02 08:49:53.000,234,2019-10-02 08:50:49.706,0.25,90,90,0,0,1
2487,9,0,62.125,0,90,1,0.25,2,3,0.0,0.0,9,45.0,30.0,3,0.7509999999999999,0.0,62.732,0.15,1,2019-10-02 08:49:53.000,234,2019-10-02 08:50:55.125,0.25,90,-90,-180,0,1
2488,10,0,65.692,0,90,1,0.25,2,3,0.0,0.0,9,45.0,30.0,3,0.8009999999999999,1.0,65.863,0.0,0,2019-10-02 08:49:53.000,234,2019-10-02 08:50:58.692,0.25,-90,-90,-180,-180,1
2489,12,0,72.012,0,90,1,0.25,2,9,0.0,0.0,3,45.0,30.0,9,0.7509999999999999,1.0,72.366,0.15,1,2019-10-02 08:49:53.000,234,2019-10-02 08:51:05.012,0.25,-90,90,0,-180,1
2490,13,0,77.53,0,90,1,0.25,2,3,0.0,0.0,9,45.0,30.0,3,0.901,0.0,77.868,0.15,1,2019-10-02 08:49:53.000,234,2019-10-02 08:51:10.530,0.25,90,-90,-180,0,1
2491,14,0,80.11,0,90,1,0.25,2,3,0.0,0.0,9,45.0,30.0,3,0.701,1.0,80.82300000000002,0.0,0,2019-10-02 08:49:53.000,234,2019-10-02 08:51:13.110,0.25,-90,-90,-180,-180,1
2742,1,0,91.106,0,60,1,0.25,2,3,0.0,0.0,10,45.0,30.0,3,0.851,0.0,91.352,0.15,1,2019-10-03 09:11:00.000,187,2019-10-03 09:12:31.106,0.25,90,-120,-180,30,1
2743,2,0,95.268,0,60,1,0.25,2,9,0.0,0.0,4,45.0,30.0,9,0.8009999999999999,0.0,95.835,0.0,0,2019-10-03 09:11:00.000,187,2019-10-03 09:12:35.268,0.25,90,60,0,30,1
2744,7,0,113.498,0,60,1,0.25,2,3,0.0,0.0,10,45.0,30.0,3,0.851,0.0,114.031,0.15,1,2019-10-03 09:11:00.000,187,2019-10-03 09:12:53.498,0.25,90,-120,-180,30,1
2745,8,0,117.33,0,60,1,0.25,2,3,0.0,0.0,10,45.0,30.0,3,0.901,0.0,117.843,0.15,1,2019-10-03 09:11:00.000,187,2019-10-03 09:12:57.330,0.25,90,-120,-180,30,1
2746,9,0,121.626,0,60,1,0.25,2,3,0.0,0.0,10,45.0,30.0,3,0.701,0.0,122.644,0.15,1,2019-10-03 09:11:00.000,187,2019-10-03 09:13:01.626,0.25,90,-120,-180,30,1
2747,10,0,126.668,0,60,1,0.25,2,9,0.0,0.0,4,45.0,30.0,9,0.8009999999999999,0.0,127.305,0.0,0,2019-10-03 09:11:00.000,187,2019-10-03 09:13:06.668,0.25,90,60,0,30,1
2748,12,0,136.969,0,60,1,0.25,2,3,0.0,0.0,10,45.0,30.0,3,0.7509999999999999,0.0,137.702,0.15,1,2019-10-03 09:11:00.000,187,2019-10-03 09:13:16.969,0.25,90,-120,-180,30,1
2749,13,0,141.526,0,60,1,0.25,2,3,0.0,0.0,10,45.0,30.0,3,0.8009999999999999,0.0,142.204,0.15,1,2019-10-03 09:11:00.000,187,2019-10-03 09:13:21.526,0.25,90,-120,-180,30,1
2750,14,0,146.293,0,60,1,0.25,2,9,0.0,0.0,4,45.0,30.0,9,0.901,1.0,147.213,0.15,1,2019-10-03 09:11:00.000,187,2019-10-03 09:13:26.293,0.25,-90,60,0,-150,1
2751,15,0,149.9,0,60,1,0.25,2,3,0.0,0.0,10,45.0,30.0,3,0.851,0.0,150.696,0.15,1,2019-10-03 09:11:00.000,187,2019-10-03 09:13:29.900,0.25,90,-120,-180,30,1
2862,1,0,45.372,0,120,1,0.25,2,9,0.0,0.0,2,45.0,30.0,9,0.7509999999999999,0.0,46.192,0.0,0,2019-10-03 14:38:17.000,16,2019-10-03 14:39:02.372,0.25,90,120,0,-30,1
2863,3,0,59.389,0,120,1,0.25,2,9,0.0,0.0,2,45.0,30.0,9,0.8009999999999999,0.0,59.636,0.0,0,2019-10-03 14:38:17.000,16,2019-10-03 14:39:16.389,0.25,90,120,0,-30,1
2864,5,0,66.296,0,120,1,0.25,2,9,0.0,0.0,2,45.0,30.0,9,0.901,1.0,66.676,0.15,1,2019-10-03 14:38:17.000,16,2019-10-03 14:39:23.296,0.25,-90,120,0,150,1
2865,6,0,71.013,0,120,1,0.25,2,9,0.0,0.0,2,45.0,30.0,9,0.701,0.0,71.297,0.0,0,2019-10-03 14:38:17.000,16,2019-10-03 14:39:28.013,0.25,90,120,0,-30,1
2866,8,0,76.782,0,120,1,0.25,2,3,0.0,0.0,8,45.0,30.0,3,0.901,0.0,77.28699999999998,0.15,1,2019-10-03 14:38:17.000,16,2019-10-03 14:39:33.782,0.25,90,-60,-180,-30,1
2867,9,0,80.706,0,120,1,0.25,2,9,0.0,0.0,2,45.0,30.0,9,0.8009999999999999,1.0,81.69800000000002,0.15,1,2019-10-03 14:38:17.000,16,2019-10-03 14:39:37.706,0.25,-90,120,0,150,1
2868,10,0,85.625,0,120,1,0.25,2,3,0.0,0.0,8,45.0,30.0,3,0.851,1.0,86.86,0.0,0,2019-10-03 14:38:17.000,16,2019-10-03 14:39:42.625,0.25,-90,-60,-180,150,1
2869,12,0,92.546,0,120,1,0.25,2,3,0.0,0.0,8,45.0,30.0,3,0.851,1.0,93.018,0.0,0,2019-10-03 14:38:17.000,16,2019-10-03 14:39:49.546,0.25,-90,-60,-180,150,1
2870,14,0,99.634,0,120,1,0.25,2,3,0.0,0.0,8,45.0,30.0,3,0.8009999999999999,0.0,100.185,0.15,1,2019-10-03 14:38:17.000,16,2019-10-03 14:39:56.634,0.25,90,-60,-180,-30,1
2871,15,0,104.737,0,120,1,0.25,2,9,0.0,0.0,2,45.0,30.0,9,0.7509999999999999,1.0,105.318,0.15,1,2019-10-03 14:38:17.000,16,2019-10-03 14:40:01.737,0.25,-90,120,0,150,1
3179,1,0,20.395,0,0,1,0.25,2,3,0.0,0.0,12,45.0,30.0,3,0.701,0.0,20.607,0.15,1,2019-10-04 14:48:05.000,217,2019-10-04 14:48:25.395,0.25,90,-180,-180,90,1
3180,2,0,33.018,0,0,1,0.25,2,3,0.0,0.0,12,45.0,30.0,3,0.7509999999999999,0.0,33.602,0.15,1,2019-10-04 14:48:05.000,217,2019-10-04 14:48:38.018,0.25,90,-180,-180,90,1
3181,3,0,37.705,0,0,1,0.25,2,3,0.0,0.0,12,45.0,30.0,3,0.851,1.0,38.18,0.0,0,2019-10-04 14:48:05.000,217,2019-10-04 14:48:42.705,0.25,-90,-180,-180,-90,1
3182,5,0,43.867,0,0,1,0.25,2,9,0.0,0.0,6,45.0,30.0,9,0.901,0.0,44.18600000000001,0.0,0,2019-10-04 14:48:05.000,217,2019-10-04 14:48:48.867,0.25,90,0,0,90,1
3183,7,0,50.988,0,0,1,0.25,2,9,0.0,0.0,6,45.0,30.0,9,0.851,0.0,51.882,0.0,0,2019-10-04 14:48:05.000,217,2019-10-04 14:48:55.988,0.25,90,0,0,90,1
3184,10,0,62.332,0,0,1,0.25,2,9,0.0,0.0,6,45.0,30.0,9,0.901,1.0,62.678,0.15,1,2019-10-04 14:48:05.000,217,2019-10-04 14:49:07.332,0.25,-90,0,0,-90,1
3185,11,0,67.858,0,0,1,0.25,2,9,0.0,0.0,6,45.0,30.0,9,0.901,1.0,68.407,0.15,1,2019-10-04 14:48:05.000,217,2019-10-04 14:49:12.858,0.25,-90,0,0,-90,1
3186,12,0,72.374,0,0,1,0.25,2,3,0.0,0.0,12,45.0,30.0,3,0.701,0.0,72.782,0.15,1,2019-10-04 14:48:05.000,217,2019-10-04 14:49:17.374,0.25,90,-180,-180,90,1
3187,13,0,75.452,0,0,1,0.25,2,3,0.0,0.0,12,45.0,30.0,3,0.8009999999999999,1.0,75.783,0.0,0,2019-10-04 14:48:05.000,217,2019-10-04 14:49:20.452,0.25,-90,-180,-180,-90,1
3188,15,0,81.927,0,0,1,0.25,2,9,0.0,0.0,6,45.0,30.0,9,0.851,1.0,82.39399999999998,0.15,1,2019-10-04 14:48:05.000,217,2019-10-04 14:49:26.927,0.25,-90,0,0,-90,1
3933,1,0,30.896,0,-30,1,0.25,2,9,0.0,0.0,7,45.0,30.0,9,0.851,0.0,31.307,0.0,0,2019-11-01 15:45:57.000,112,2019-11-01 15:46:27.896,0.25,90,-30,0,120,1
3934,3,0,43.583,0,-30,1,0.25,2,3,0.0,0.0,1,45.0,30.0,3,0.901,1.0,44.198,0.0,0,2019-11-01 15:45:57.000,112,2019-11-01 15:46:40.583,0.25,-90,150,-180,-60,1
3935,5,0,50.794,0,-30,1,0.25,2,3,0.0,0.0,1,45.0,30.0,3,0.701,0.0,51.58,0.15,1,2019-11-01 15:45:57.000,112,2019-11-01 15:46:47.794,0.25,90,150,-180,120,1
3936,6,0,55.379,0,-30,1,0.25,2,9,0.0,0.0,7,45.0,30.0,9,0.851,1.0,55.64100000000001,0.15,1,2019-11-01 15:45:57.000,112,2019-11-01 15:46:52.379,0.25,-90,-30,0,-60,1
3937,7,0,60.932,0,-30,1,0.25,2,9,0.0,0.0,7,45.0,30.0,9,0.901,1.0,61.442,0.15,1,2019-11-01 15:45:57.000,112,2019-11-01 15:46:57.932,0.25,-90,-30,0,-60,1
3938,8,0,64.574,0,-30,1,0.25,2,9,0.0,0.0,7,45.0,30.0,9,0.8009999999999999,1.0,65.179,0.15,1,2019-11-01 15:45:57.000,112,2019-11-01 15:47:01.574,0.25,-90,-30,0,-60,1
3939,9,0,68.392,0,-30,1,0.25,2,3,0.0,0.0,1,45.0,30.0,3,0.7509999999999999,0.0,69.031,0.15,1,2019-11-01 15:45:57.000,112,2019-11-01 15:47:05.392,0.25,90,150,-180,120,1
3940,10,0,72.255,0,-30,1,0.25,2,9,0.0,0.0,7,45.0,30.0,9,0.701,1.0,72.711,0.15,1,2019-11-01 15:45:57.000,112,2019-11-01 15:47:09.255,0.25,-90,-30,0,-60,1
3941,11,0,76.24,0,-30,1,0.25,2,9,0.0,0.0,7,45.0,30.0,9,0.901,1.0,76.74600000000002,0.15,1,2019-11-01 15:45:57.000,112,2019-11-01 15:47:13.240,0.25,-90,-30,0,-60,1
3942,12,0,79.874,0,-30,1,0.25,2,3,0.0,0.0,1,45.0,30.0,3,0.851,0.0,80.29899999999998,0.15,1,2019-11-01 15:45:57.000,112,2019-11-01 15:47:16.874,0.25,90,150,-180,120,1
4133,1,0,18.463,0,0,1,0.25,2,9,0.0,0.0,6,45.0,30.0,9,0.7509999999999999,1.0,18.932,0.15,1,2019-11-04 10:40:17.000,110,2019-11-04 10:40:35.463,0.25,-90,0,0,-90,1
4134,2,0,34.453,0,0,1,0.25,2,3,0.0,0.0,12,45.0,30.0,3,0.851,0.0,34.91,0.15,1,2019-11-04 10:40:17.000,110,2019-11-04 10:40:51.453,0.25,90,-180,-180,90,1
4135,3,0,36.686,0,0,1,0.25,2,9,0.0,0.0,6,45.0,30.0,9,0.701,1.0,36.887,0.15,1,2019-11-04 10:40:17.000,110,2019-11-04 10:40:53.686,0.25,-90,0,0,-90,1
4136,4,0,42.51600000000001,0,0,1,0.25,2,3,0.0,0.0,12,45.0,30.0,3,0.901,0.0,42.848,0.15,1,2019-11-04 10:40:17.000,110,2019-11-04 10:40:59.516,0.25,90,-180,-180,90,1
4137,5,0,44.42,0,0,1,0.25,2,9,0.0,0.0,6,45.0,30.0,9,0.8009999999999999,1.0,44.62300000000001,0.15,1,2019-11-04 10:40:17.000,110,2019-11-04 10:41:01.420,0.25,-90,0,0,-90,1
4138,6,0,47.72,0,0,1,0.25,2,3,0.0,0.0,12,45.0,30.0,3,0.701,0.0,48.432,0.15,1,2019-11-04 10:40:17.000,110,2019-11-04 10:41:04.720,0.25,90,-180,-180,90,1
4139,7,0,50.022,0,0,1,0.25,2,9,0.0,0.0,6,45.0,30.0,9,0.8009999999999999,1.0,50.338,0.15,1,2019-11-04 10:40:17.000,110,2019-11-04 10:41:07.022,0.25,-90,0,0,-90,1
4140,8,0,57.868,0,0,1,0.25,2,9,0.0,0.0,6,45.0,30.0,9,0.851,1.0,58.359,0.15,1,2019-11-04 10:40:17.000,110,2019-11-04 10:41:14.868,0.25,-90,0,0,-90,1
4141,9,0,62.731,0,0,1,0.25,2,3,0.0,0.0,12,45.0,30.0,3,0.7509999999999999,1.0,63.262,0.0,0,2019-11-04 10:40:17.000,110,2019-11-04 10:41:19.731,0.25,-90,-180,-180,-90,1
4142,11,0,75.007,0,0,1,0.25,2,3,0.0,0.0,12,45.0,30.0,3,0.901,0.0,75.32,0.15,1,2019-11-04 10:40:17.000,110,2019-11-04 10:41:32.007,0.25,90,-180,-180,90,1
4728,1,0,34.074,0,-30,1,0.25,2,3,0.0,0.0,1,45.0,30.0,3,0.8009999999999999,1.0,34.562,0.0,0,2019-11-06 10:56:05.000,111,2019-11-06 10:56:39.074,0.25,-90,150,-180,-60,1
4729,8,0,93.833,0,-30,1,0.25,2,3,0.0,0.0,1,45.0,30.0,3,0.7509999999999999,0.0,94.278,0.15,1,2019-11-06 10:56:05.000,111,2019-11-06 10:57:38.833,0.25,90,150,-180,120,1
4730,9,0,97.832,0,-30,1,0.25,2,3,0.0,0.0,1,45.0,30.0,3,0.901,0.0,98.222,0.15,1,2019-11-06 10:56:05.000,111,2019-11-06 10:57:42.832,0.25,90,150,-180,120,1
4731,10,0,101.504,0,-30,1,0.25,2,3,0.0,0.0,1,45.0,30.0,3,0.8009999999999999,1.0,101.965,0.0,0,2019-11-06 10:56:05.000,111,2019-11-06 10:57:46.504,0.25,-90,150,-180,-60,1
4732,12,0,108.118,1,-30,1,0.25,2,9,0.0,0.0,7,45.0,30.0,9,0.8009999999999999,0.0,108.617,0.0,0,2019-11-06 10:56:05.000,111,2019-11-06 10:57:53.118,0.25,90,-30,0,120,1
4733,14,0,130.203,0,-30,1,0.25,2,3,0.0,0.0,1,45.0,30.0,3,0.901,0.0,130.675,0.15,1,2019-11-06 10:56:05.000,111,2019-11-06 10:58:15.203,0.25,90,150,-180,120,1
4734,15,0,133.721,0,-30,1,0.25,2,3,0.0,0.0,1,45.0,30.0,3,0.851,0.0,134.062,0.15,1,2019-11-06 10:56:05.000,111,2019-11-06 10:58:18.721,0.25,90,150,-180,120,1
4735,16,0,137.172,0,-30,1,0.25,2,9,0.0,0.0,7,45.0,30.0,9,0.901,1.0,137.423,0.15,1,2019-11-06 10:56:05.000,111,2019-11-06 10:58:22.172,0.25,-90,-30,0,-60,1
4736,17,0,145.89600000000004,0,-30,1,0.25,2,9,0.0,0.0,7,45.0,30.0,9,0.851,1.0,146.154,0.15,1,2019-11-06 10:56:05.000,111,2019-11-06 10:58:30.896,0.25,-90,-30,0,-60,1
4737,18,0,150.064,0,-30,1,0.25,2,3,0.0,0.0,1,45.0,30.0,3,0.7509999999999999,1.0,150.213,0.0,0,2019-11-06 10:56:05.000,111,2019-11-06 10:58:35.064,0.25,-90,150,-180,-60,1
4839,1,0,41.642,0,0,1,0.25,2,3,0.0,0.0,12,45.0,30.0,3,0.701,0.0,40.858,0.15,1,2019-11-06 16:05:54.000,138,2019-11-06 16:06:35.642,0.25,90,-180,-180,90,1
4840,2,0,73.631,0,0,1,0.25,2,3,0.0,0.0,12,45.0,30.0,3,0.8009999999999999,0.0,74.203,0.15,1,2019-11-06 16:05:54.000,138,2019-11-06 16:07:07.631,0.25,90,-180,-180,90,1
4841,3,0,77.48899999999998,0,0,1,0.25,2,3,0.0,0.0,12,45.0,30.0,3,0.7509999999999999,1.0,78.046,0.0,0,2019-11-06 16:05:54.000,138,2019-11-06 16:07:11.489,0.25,-90,-180,-180,-90,1
4842,7,0,106.93,0,0,1,0.25,2,9,0.0,0.0,6,45.0,30.0,9,0.851,1.0,107.172,0.15,1,2019-11-06 16:05:54.000,138,2019-11-06 16:07:40.930,0.25,-90,0,0,-90,1
4843,8,0,114.676,0,0,1,0.25,2,9,0.0,0.0,6,45.0,30.0,9,0.901,1.0,114.899,0.15,1,2019-11-06 16:05:54.000,138,2019-11-06 16:07:48.676,0.25,-90,0,0,-90,1
4844,9,0,121.015,0,0,1,0.25,2,3,0.0,0.0,12,45.0,30.0,3,0.701,0.0,121.543,0.15,1,2019-11-06 16:05:54.000,138,2019-11-06 16:07:55.015,0.25,90,-180,-180,90,1
4845,10,0,125.164,0,0,1,0.25,2,9,0.0,0.0,6,45.0,30.0,9,0.8009999999999999,1.0,125.511,0.15,1,2019-11-06 16:05:54.000,138,2019-11-06 16:07:59.164,0.25,-90,0,0,-90,1
4846,11,0,128.911,0,0,1,0.25,2,9,0.0,0.0,6,45.0,30.0,9,0.901,1.0,129.357,0.15,1,2019-11-06 16:05:54.000,138,2019-11-06 16:08:02.911,0.25,-90,0,0,-90,1
4847,12,0,135.899,0,0,1,0.25,2,3,0.0,0.0,12,45.0,30.0,3,0.8009999999999999,0.0,136.549,0.15,1,2019-11-06 16:05:54.000,138,2019-11-06 16:08:09.899,0.25,90,-180,-180,90,1
4848,13,0,139.694,0,0,1,0.25,2,9,0.0,0.0,6,45.0,30.0,9,0.7509999999999999,1.0,140.015,0.15,1,2019-11-06 16:05:54.000,138,2019-11-06 16:08:13.694,0.25,-90,0,0,-90,1
5119,1,0,19.995,0,180,1,0.25,2,9,0.0,0.0,12,45.0,30.0,9,0.901,1.0,20.753,0.15,1,2019-11-08 14:31:49.000,25,2019-11-08 14:32:08.995,0.25,-90,-180,0,90,1
5120,2,0,24.195,0,180,1,0.25,2,3,0.0,0.0,6,45.0,30.0,3,0.8009999999999999,1.0,24.538,0.0,0,2019-11-08 14:31:49.000,25,2019-11-08 14:32:13.195,0.25,-90,0,-180,90,1
5121,4,0,31.155,0,180,1,0.25,2,9,0.0,0.0,12,45.0,30.0,9,0.951,1.0,31.416,0.15,1,2019-11-08 14:31:49.000,25,2019-11-08 14:32:20.155,0.25,-90,-180,0,90,1
5122,5,0,35.09,0,180,1,0.25,2,3,0.0,0.0,6,45.0,30.0,3,0.7509999999999999,0.0,35.884,0.15,1,2019-11-08 14:31:49.000,25,2019-11-08 14:32:24.090,0.25,90,0,-180,-90,1
5123,6,0,38.062,0,180,1,0.25,2,3,0.0,0.0,6,45.0,30.0,3,0.8009999999999999,1.0,38.31800000000001,0.0,0,2019-11-08 14:31:49.000,25,2019-11-08 14:32:27.062,0.25,-90,0,-180,90,1
5124,12,0,86.09899999999998,1,180,1,0.25,2,3,0.0,0.0,6,45.0,30.0,3,0.851,0.0,86.594,0.15,1,2019-11-08 14:31:49.000,25,2019-11-08 14:33:15.099,0.25,90,0,-180,-90,1
5125,13,0,88.51299999999998,0,180,1,0.25,2,9,0.0,0.0,12,45.0,30.0,9,0.951,1.0,91.377,0.15,1,2019-11-08 14:31:49.000,25,2019-11-08 14:33:17.513,0.25,-90,-180,0,90,1
5126,14,0,95.375,0,180,1,0.25,2,9,0.0,0.0,12,45.0,30.0,9,0.901,1.0,95.876,0.15,1,2019-11-08 14:31:49.000,25,2019-11-08 14:33:24.375,0.25,-90,-180,0,90,1
5127,15,0,99.222,0,180,1,0.25,2,3,0.0,0.0,6,45.0,30.0,3,0.7509999999999999,1.0,99.883,0.0,0,2019-11-08 14:31:49.000,25,2019-11-08 14:33:28.222,0.25,-90,0,-180,90,1
5128,17,0,113.544,0,180,1,0.25,2,3,0.0,0.0,6,45.0,30.0,3,0.7509999999999999,0.0,113.985,0.15,1,2019-11-08 14:31:49.000,25,2019-11-08 14:33:42.544,0.25,90,0,-180,-90,1
5253,1,0,21.07,0,0,1,0.25,2,9,0.0,0.0,6,45.0,30.0,9,0.7509999999999999,1.0,33.081,0.15,1,2019-11-12 15:29:56.000,222,2019-11-12 15:30:17.070,0.25,-90,0,0,-90,1
5254,2,0,78.482,0,0,1,0.25,2,3,0.0,0.0,12,45.0,30.0,3,0.951,0.0,80.848,0.15,1,2019-11-12 15:29:56.000,222,2019-11-12 15:31:14.482,0.25,90,-180,-180,90,1
5255,3,0,88.353,0,0,1,0.25,2,9,0.0,0.0,6,45.0,30.0,9,0.901,1.0,88.99700000000001,0.15,1,2019-11-12 15:29:56.000,222,2019-11-12 15:31:24.353,0.25,-90,0,0,-90,1
5256,4,0,93.082,0,0,1,0.25,2,9,0.0,0.0,6,45.0,30.0,9,0.851,1.0,93.575,0.15,1,2019-11-12 15:29:56.000,222,2019-11-12 15:31:29.082,0.25,-90,0,0,-90,1
5257,5,0,97.706,0,0,1,0.25,2,9,0.0,0.0,6,45.0,30.0,9,0.8009999999999999,0.0,97.908,0.0,0,2019-11-12 15:29:56.000,222,2019-11-12 15:31:33.706,0.25,90,0,0,90,1
5258,7,0,106.589,0,0,1,0.25,2,9,0.0,0.0,6,45.0,30.0,9,0.901,1.0,107.197,0.15,1,2019-11-12 15:29:56.000,222,2019-11-12 15:31:42.589,0.25,-90,0,0,-90,1
5259,8,0,114.533,0,0,1,0.25,2,9,0.0,0.0,6,45.0,30.0,9,0.8009999999999999,1.0,115.201,0.15,1,2019-11-12 15:29:56.000,222,2019-11-12 15:31:50.533,0.25,-90,0,0,-90,1
5260,9,0,121.093,0,0,1,0.25,2,3,0.0,0.0,12,45.0,30.0,3,0.7509999999999999,0.0,121.435,0.15,1,2019-11-12 15:29:56.000,222,2019-11-12 15:31:57.093,0.25,90,-180,-180,90,1
5261,10,0,124.653,0,0,1,0.25,2,9,0.0,0.0,6,45.0,30.0,9,0.851,1.0,124.803,0.15,1,2019-11-12 15:29:56.000,222,2019-11-12 15:32:00.653,0.25,-90,0,0,-90,1
5262,11,0,131.321,0,0,1,0.25,2,3,0.0,0.0,12,45.0,30.0,3,0.951,1.0,131.583,0.0,0,2019-11-12 15:29:56.000,222,2019-11-12 15:32:07.321,0.25,-90,-180,-180,-90,1
7184,1,0,25.836,0,180,1,0.25,2,9,0.0,0.0,12,45.0,30.0,9,0.8009999999999999,0.0,26.005,0.0,0,2019-12-06 09:05:50.000,6,2019-12-06 09:06:15.836,0.25,90,-180,0,-90,1
7185,3,0,58.01,0,180,1,0.25,2,9,0.0,0.0,12,45.0,30.0,9,0.901,1.0,58.767,0.13,1,2019-12-06 09:05:50.000,6,2019-12-06 09:06:48.010,0.25,-90,-180,0,90,1
7186,4,0,62.16,0,180,1,0.25,2,9,0.0,0.0,12,45.0,30.0,9,0.851,0.0,62.524,0.0,0,2019-12-06 09:05:50.000,6,2019-12-06 09:06:52.160,0.25,90,-180,0,-90,1
7187,6,0,72.727,0,180,1,0.25,2,9,0.0,0.0,12,45.0,30.0,9,0.8009999999999999,1.0,73.21600000000002,0.13,1,2019-12-06 09:05:50.000,6,2019-12-06 09:07:02.727,0.25,-90,-180,0,90,1
7188,7,0,77.024,0,180,1,0.25,2,3,0.0,0.0,6,45.0,30.0,3,0.7509999999999999,1.0,77.554,0.0,0,2019-12-06 09:05:50.000,6,2019-12-06 09:07:07.024,0.25,-90,0,-180,90,1
7189,9,0,100.577,0,180,1,0.25,2,9,0.0,0.0,12,45.0,30.0,9,0.851,0.0,100.946,0.0,0,2019-12-06 09:05:50.000,6,2019-12-06 09:07:30.577,0.25,90,-180,0,-90,1
7190,11,0,109.945,0,180,1,0.25,2,3,0.0,0.0,6,45.0,30.0,3,0.7509999999999999,0.0,110.393,0.17,1,2019-12-06 09:05:50.000,6,2019-12-06 09:07:39.945,0.25,90,0,-180,-90,1
7191,12,0,113.626,0,180,1,0.25,2,9,0.0,0.0,12,45.0,30.0,9,0.8009999999999999,0.0,114.355,0.0,0,2019-12-06 09:05:50.000,6,2019-12-06 09:07:43.626,0.25,90,-180,0,-90,1
7192,14,0,147.217,0,180,1,0.25,2,9,0.0,0.0,12,45.0,30.0,9,0.901,0.0,147.737,0.0,0,2019-12-06 09:05:50.000,6,2019-12-06 09:08:17.217,0.25,90,-180,0,-90,1
7193,17,0,164.332,0,180,1,0.25,2,9,0.0,0.0,12,45.0,30.0,9,0.901,1.0,165.015,0.13,1,2019-12-06 09:05:50.000,6,2019-12-06 09:08:34.332,0.25,-90,-180,0,90,1
7390,1,0,54.606,0,0,1,0.25,2,9,0.0,0.0,6,45.0,30.0,9,0.7509999999999999,1.0,55.044,0.13,1,2019-12-09 08:46:02.000,196,2019-12-09 08:46:56.606,0.25,-90,0,0,-90,1
7391,2,0,60.397,0,0,1,0.25,2,3,0.0,0.0,12,45.0,30.0,3,0.951,0.0,60.92100000000001,0.17,1,2019-12-09 08:46:02.000,196,2019-12-09 08:47:02.397,0.25,90,-180,-180,90,1
7392,3,0,62.697,0,0,1,0.25,2,9,0.0,0.0,6,45.0,30.0,9,0.851,1.0,63.072,0.13,1,2019-12-09 08:46:02.000,196,2019-12-09 08:47:04.697,0.25,-90,0,0,-90,1
7393,4,0,67.035,0,0,1,0.25,2,3,0.0,0.0,12,45.0,30.0,3,0.901,0.0,67.37100000000001,0.17,1,2019-12-09 08:46:02.000,196,2019-12-09 08:47:09.035,0.25,90,-180,-180,90,1
7394,5,0,69.172,0,0,1,0.25,2,3,0.0,0.0,12,45.0,30.0,3,0.8009999999999999,1.0,69.619,0.0,0,2019-12-09 08:46:02.000,196,2019-12-09 08:47:11.172,0.25,-90,-180,-180,-90,1
7395,7,0,86.92,0,0,1,0.25,2,3,0.0,0.0,12,45.0,30.0,3,0.851,1.0,87.134,0.0,0,2019-12-09 08:46:02.000,196,2019-12-09 08:47:28.920,0.25,-90,-180,-180,-90,1
7396,9,0,94.202,0,0,1,0.25,2,9,0.0,0.0,6,45.0,30.0,9,0.901,1.0,94.626,0.13,1,2019-12-09 08:46:02.000,196,2019-12-09 08:47:36.202,0.25,-90,0,0,-90,1
7397,10,0,99.926,0,0,1,0.25,2,3,0.0,0.0,12,45.0,30.0,3,0.951,0.0,100.553,0.17,1,2019-12-09 08:46:02.000,196,2019-12-09 08:47:41.926,0.25,90,-180,-180,90,1
7398,11,0,103.257,0,0,1,0.25,2,3,0.0,0.0,12,45.0,30.0,3,0.7509999999999999,0.0,103.742,0.17,1,2019-12-09 08:46:02.000,196,2019-12-09 08:47:45.257,0.25,90,-180,-180,90,1
7399,12,0,107.109,0,0,1,0.25,2,3,0.0,0.0,12,45.0,30.0,3,0.8009999999999999,0.0,107.957,0.17,1,2019-12-09 08:46:02.000,196,2019-12-09 08:47:49.109,0.25,90,-180,-180,90,1
7684,1,0,35.38800000000001,0,30,1,0.25,2,3,0.0,0.0,11,45.0,30.0,3,0.951,1.0,36.249,0.0,0,2019-12-10 09:01:56.000,28,2019-12-10 09:02:31.388,0.25,-90,-150,-180,-120,1
7685,3,0,44.46100000000001,1,30,1,0.25,2,3,0.0,0.0,11,45.0,30.0,3,0.901,1.0,44.849,0.0,0,2019-12-10 09:01:56.000,28,2019-12-10 09:02:40.461,0.25,-90,-150,-180,-120,1
7686,5,0,60.361,0,30,1,0.25,2,9,0.0,0.0,5,45.0,30.0,9,0.851,1.0,61.341,0.13,1,2019-12-10 09:01:56.000,28,2019-12-10 09:02:56.361,0.25,-90,30,0,-120,1
7687,6,0,63.754,0,30,1,0.25,2,9,0.0,0.0,5,45.0,30.0,9,0.8009999999999999,1.0,64.283,0.13,1,2019-12-10 09:01:56.000,28,2019-12-10 09:02:59.754,0.25,-90,30,0,-120,1
7688,7,0,67.587,0,30,1,0.25,2,9,0.0,0.0,5,45.0,30.0,9,0.7509999999999999,1.0,68.2,0.13,1,2019-12-10 09:01:56.000,28,2019-12-10 09:03:03.587,0.25,-90,30,0,-120,1
7689,8,0,71.97800000000002,0,30,1,0.25,2,9,0.0,0.0,5,45.0,30.0,9,0.951,1.0,72.266,0.13,1,2019-12-10 09:01:56.000,28,2019-12-10 09:03:07.978,0.25,-90,30,0,-120,1
7690,9,0,75.77199999999998,0,30,1,0.25,2,9,0.0,0.0,5,45.0,30.0,9,0.901,1.0,76.181,0.13,1,2019-12-10 09:01:56.000,28,2019-12-10 09:03:11.772,0.25,-90,30,0,-120,1
7691,10,0,79.817,0,30,1,0.25,2,3,0.0,0.0,11,45.0,30.0,3,0.851,0.0,79.995,0.17,1,2019-12-10 09:01:56.000,28,2019-12-10 09:03:15.817,0.25,90,-150,-180,60,1
7692,11,0,81.85600000000002,0,30,1,0.25,2,9,0.0,0.0,5,45.0,30.0,9,0.951,1.0,82.348,0.13,1,2019-12-10 09:01:56.000,28,2019-12-10 09:03:17.856,0.25,-90,30,0,-120,1
7693,12,0,86.04299999999998,0,30,1,0.25,2,9,0.0,0.0,5,45.0,30.0,9,0.851,1.0,86.66,0.13,1,2019-12-10 09:01:56.000,28,2019-12-10 09:03:22.043,0.25,-90,30,0,-120,1
7858,1,0,38.012,0,-150,1,0.25,2,3,0.0,0.0,5,45.0,30.0,3,0.901,1.0,38.496,0.0,0,2019-12-11 09:12:38.000,253,2019-12-11 09:13:16.012,0.25,-90,30,-180,60,1
7859,3,0,60.54600000000001,0,-150,1,0.25,2,9,0.0,0.0,11,45.0,30.0,9,0.8009999999999999,1.0,60.94600000000001,0.13,1,2019-12-11 09:12:38.000,253,2019-12-11 09:13:38.546,0.25,-90,-150,0,60,1
7860,4,0,63.913,0,-150,1,0.25,2,3,0.0,0.0,5,45.0,30.0,3,0.851,0.0,64.172,0.17,1,2019-12-11 09:12:38.000,253,2019-12-11 09:13:41.913,0.25,90,30,-180,-120,1
7861,5,0,68.525,0,-150,1,0.25,2,9,0.0,0.0,11,45.0,30.0,9,0.7509999999999999,1.0,68.87100000000001,0.13,1,2019-12-11 09:12:38.000,253,2019-12-11 09:13:46.525,0.25,-90,-150,0,60,1
7862,6,0,71.959,0,-150,1,0.25,2,3,0.0,0.0,5,45.0,30.0,3,0.7509999999999999,0.0,72.352,0.17,1,2019-12-11 09:12:38.000,253,2019-12-11 09:13:49.959,0.25,90,30,-180,-120,1
7863,7,0,75.67399999999998,0,-150,1,0.25,2,3,0.0,0.0,5,45.0,30.0,3,0.901,0.0,76.145,0.17,1,2019-12-11 09:12:38.000,253,2019-12-11 09:13:53.674,0.25,90,30,-180,-120,1
7864,8,0,82.111,0,-150,1,0.25,2,3,0.0,0.0,5,45.0,30.0,3,0.8009999999999999,1.0,82.37700000000002,0.0,0,2019-12-11 09:12:38.000,253,2019-12-11 09:14:00.111,0.25,-90,30,-180,60,1
7865,10,0,102.779,0,-150,1,0.25,2,9,0.0,0.0,11,45.0,30.0,9,0.851,0.0,103.211,0.0,0,2019-12-11 09:12:38.000,253,2019-12-11 09:14:20.779,0.25,90,-150,0,-120,1
7866,12,0,111.178,0,-150,1,0.25,2,9,0.0,0.0,11,45.0,30.0,9,0.901,1.0,111.463,0.13,1,2019-12-11 09:12:38.000,253,2019-12-11 09:14:29.178,0.25,-90,-150,0,60,1
7867,13,0,114.753,0,-150,1,0.25,2,9,0.0,0.0,11,45.0,30.0,9,0.7509999999999999,0.0,115.394,0.0,0,2019-12-11 09:12:38.000,253,2019-12-11 09:14:32.753,0.25,90,-150,0,-120,1
8211,1,0,26.5,0,0,1,0.25,2,9,0.0,0.0,6,45.0,30.0,9,0.7509999999999999,1.0,27.189,0.13,1,2019-12-12 09:05:13.000,87,2019-12-12 09:05:39.500,0.25,-90,0,0,-90,1
8212,2,0,30.842,0,0,1,0.25,2,3,0.0,0.0,12,45.0,30.0,3,0.8009999999999999,0.0,31.283,0.17,1,2019-12-12 09:05:13.000,87,2019-12-12 09:05:43.842,0.25,90,-180,-180,90,1
8213,3,0,33.095,0,0,1,0.25,2,9,0.0,0.0,6,45.0,30.0,9,0.901,1.0,33.383,0.13,1,2019-12-12 09:05:13.000,87,2019-12-12 09:05:46.095,0.25,-90,0,0,-90,1
8214,4,0,37.016,0,0,1,0.25,2,9,0.0,0.0,6,45.0,30.0,9,0.851,1.0,37.229,0.13,1,2019-12-12 09:05:13.000,87,2019-12-12 09:05:50.016,0.25,-90,0,0,-90,1
8215,5,0,42.675,1,0,1,0.25,2,9,0.0,0.0,6,45.0,30.0,9,0.951,1.0,42.902,0.13,1,2019-12-12 09:05:13.000,87,2019-12-12 09:05:55.675,0.25,-90,0,0,-90,1
8216,6,0,45.477,0,0,1,0.25,2,9,0.0,0.0,6,45.0,30.0,9,0.901,1.0,47.694,0.13,1,2019-12-12 09:05:13.000,87,2019-12-12 09:05:58.477,0.25,-90,0,0,-90,1
8217,7,0,54.788,0,0,1,0.25,2,3,0.0,0.0,12,45.0,30.0,3,0.951,1.0,55.234,0.0,0,2019-12-12 09:05:13.000,87,2019-12-12 09:06:07.788,0.25,-90,-180,-180,-90,1
8218,9,0,69.392,0,0,1,0.25,2,3,0.0,0.0,12,45.0,30.0,3,0.8009999999999999,1.0,69.919,0.0,0,2019-12-12 09:05:13.000,87,2019-12-12 09:06:22.392,0.25,-90,-180,-180,-90,1
8219,11,0,79.737,0,0,1,0.25,2,3,0.0,0.0,12,45.0,30.0,3,0.7509999999999999,1.0,80.27,0.0,0,2019-12-12 09:05:13.000,87,2019-12-12 09:06:32.737,0.25,-90,-180,-180,-90,1
8220,13,0,88.74799999999998,0,0,1,0.25,2,9,0.0,0.0,6,45.0,30.0,9,0.851,1.0,89.318,0.13,1,2019-12-12 09:05:13.000,87,2019-12-12 09:06:41.748,0.25,-90,0,0,-90,1
8352,1,0,29.856,0,-30,1,0.25,2,3,0.0,0.0,1,45.0,30.0,3,0.901,1.0,30.229,0.0,0,2019-12-12 14:56:38.000,180,2019-12-12 14:57:07.856,0.25,-90,150,-180,-60,1
8353,3,0,40.605,0,-30,1,0.25,2,9,0.0,0.0,7,45.0,30.0,9,0.8009999999999999,1.0,41.117,0.13,1,2019-12-12 14:56:38.000,180,2019-12-12 14:57:18.605,0.25,-90,-30,0,-60,1
8354,4,0,44.27,0,-30,1,0.25,2,3,0.0,0.0,1,45.0,30.0,3,0.851,0.0,44.524,0.17,1,2019-12-12 14:56:38.000,180,2019-12-12 14:57:22.270,0.25,90,150,-180,120,1
8355,5,0,48.158,0,-30,1,0.25,2,3,0.0,0.0,1,45.0,30.0,3,0.951,1.0,48.57,0.0,0,2019-12-12 14:56:38.000,180,2019-12-12 14:57:26.158,0.25,-90,150,-180,-60,1
8356,7,0,59.347,0,-30,1,0.25,2,9,0.0,0.0,7,45.0,30.0,9,0.7509999999999999,0.0,59.931,0.0,0,2019-12-12 14:56:38.000,180,2019-12-12 14:57:37.347,0.25,90,-30,0,120,1
8357,10,0,83.755,0,-30,1,0.25,2,9,0.0,0.0,7,45.0,30.0,9,0.951,1.0,84.07,0.13,1,2019-12-12 14:56:38.000,180,2019-12-12 14:58:01.755,0.25,-90,-30,0,-60,1
8358,11,0,88.219,0,-30,1,0.25,2,9,0.0,0.0,7,45.0,30.0,9,0.951,0.0,88.527,0.0,0,2019-12-12 14:56:38.000,180,2019-12-12 14:58:06.219,0.25,90,-30,0,120,1
8359,13,0,97.582,0,-30,1,0.25,2,3,0.0,0.0,1,45.0,30.0,3,0.901,1.0,97.975,0.0,0,2019-12-12 14:56:38.000,180,2019-12-12 14:58:15.582,0.25,-90,150,-180,-60,1
8360,15,0,106.674,0,-30,1,0.25,2,9,0.0,0.0,7,45.0,30.0,9,0.8009999999999999,1.0,107.148,0.13,1,2019-12-12 14:56:38.000,180,2019-12-12 14:58:24.674,0.25,-90,-30,0,-60,1
8361,16,0,110.531,0,-30,1,0.25,2,3,0.0,0.0,1,45.0,30.0,3,0.901,0.0,110.921,0.17,1,2019-12-12 14:56:38.000,180,2019-12-12 14:58:28.531,0.25,90,150,-180,120,1
8640,1,0,26.026,0,150,1,0.25,2,3,0.0,0.0,7,45.0,30.0,3,0.851,1.0,27.362,0.0,0,2019-12-13 14:21:44.000,108,2019-12-13 14:22:10.026,0.25,-90,-30,-180,120,1
8641,3,0,35.615,0,150,1,0.25,2,3,0.0,0.0,7,45.0,30.0,3,0.7509999999999999,0.0,36.176,0.17,1,2019-12-13 14:21:44.000,108,2019-12-13 14:22:19.615,0.25,90,-30,-180,-60,1
8642,4,0,39.989,0,150,1,0.25,2,9,0.0,0.0,1,45.0,30.0,9,0.901,1.0,40.9,0.13,1,2019-12-13 14:21:44.000,108,2019-12-13 14:22:23.989,0.25,-90,150,0,120,1
8643,5,0,44.758,0,150,1,0.25,2,9,0.0,0.0,1,45.0,30.0,9,0.8009999999999999,1.0,45.458,0.13,1,2019-12-13 14:21:44.000,108,2019-12-13 14:22:28.758,0.25,-90,150,0,120,1
8644,6,0,48.584,0,150,1,0.25,2,9,0.0,0.0,1,45.0,30.0,9,0.851,1.0,49.03,0.13,1,2019-12-13 14:21:44.000,108,2019-12-13 14:22:32.584,0.25,-90,150,0,120,1
8645,7,0,52.518,0,150,1,0.25,2,3,0.0,0.0,7,45.0,30.0,3,0.7509999999999999,0.0,53.61,0.17,1,2019-12-13 14:21:44.000,108,2019-12-13 14:22:36.518,0.25,90,-30,-180,-60,1
8646,8,0,57.549,0,150,1,0.25,2,3,0.0,0.0,7,45.0,30.0,3,0.901,0.0,58.136,0.17,1,2019-12-13 14:21:44.000,108,2019-12-13 14:22:41.549,0.25,90,-30,-180,-60,1
8647,9,0,61.828,0,150,1,0.25,2,9,0.0,0.0,1,45.0,30.0,9,0.8009999999999999,1.0,62.209,0.13,1,2019-12-13 14:21:44.000,108,2019-12-13 14:22:45.828,0.25,-90,150,0,120,1
8648,10,0,67.452,1,150,1,0.25,2,3,0.0,0.0,7,45.0,30.0,3,0.951,0.0,67.919,0.17,1,2019-12-13 14:21:44.000,108,2019-12-13 14:22:51.452,0.25,90,-30,-180,-60,1
8649,11,0,71.52600000000002,0,150,1,0.25,2,3,0.0,0.0,7,45.0,30.0,3,0.851,1.0,73.887,0.0,0,2019-12-13 14:21:44.000,108,2019-12-13 14:22:55.526,0.25,-90,-30,-180,120,1
8795,1,0,51.357,0,0,1,0.25,2,9,0.0,0.0,6,45.0,30.0,9,0.851,1.0,51.629,0.13,1,2019-12-16 08:56:35.000,64,2019-12-16 08:57:26.357,0.25,-90,0,0,-90,1
8796,2,0,54.773,0,0,1,0.25,2,9,0.0,0.0,6,45.0,30.0,9,0.951,1.0,55.084,0.13,1,2019-12-16 08:56:35.000,64,2019-12-16 08:57:29.773,0.25,-90,0,0,-90,1
8797,3,0,76.01100000000002,0,0,1,0.25,2,9,0.0,0.0,6,45.0,30.0,9,0.901,1.0,76.234,0.13,1,2019-12-16 08:56:35.000,64,2019-12-16 08:57:51.011,0.25,-90,0,0,-90,1
8798,4,0,80.15899999999998,0,0,1,0.25,2,3,0.0,0.0,12,45.0,30.0,3,0.7509999999999999,0.0,80.30199999999998,0.17,1,2019-12-16 08:56:35.000,64,2019-12-16 08:57:55.159,0.25,90,-180,-180,90,1
8799,5,0,82.09700000000002,0,0,1,0.25,2,9,0.0,0.0,6,45.0,30.0,9,0.8009999999999999,1.0,82.47399999999998,0.13,1,2019-12-16 08:56:35.000,64,2019-12-16 08:57:57.097,0.25,-90,0,0,-90,1
8800,6,0,86.03200000000002,0,0,1,0.25,2,9,0.0,0.0,6,45.0,30.0,9,0.851,1.0,86.458,0.13,1,2019-12-16 08:56:35.000,64,2019-12-16 08:58:01.032,0.25,-90,0,0,-90,1
8801,7,0,89.541,0,0,1,0.25,2,9,0.0,0.0,6,45.0,30.0,9,0.7509999999999999,0.0,90.167,0.0,0,2019-12-16 08:56:35.000,64,2019-12-16 08:58:04.541,0.25,90,0,0,90,1
8802,9,0,101.428,0,0,1,0.25,2,9,0.0,0.0,6,45.0,30.0,9,0.901,1.0,101.866,0.13,1,2019-12-16 08:56:35.000,64,2019-12-16 08:58:16.428,0.25,-90,0,0,-90,1
8803,10,0,106.301,1,0,1,0.25,2,9,0.0,0.0,6,45.0,30.0,9,0.8009999999999999,1.0,106.736,0.13,1,2019-12-16 08:56:35.000,64,2019-12-16 08:58:21.301,0.25,-90,0,0,-90,1
8804,11,0,110.862,0,0,1,0.25,2,3,0.0,0.0,12,45.0,30.0,3,0.8009999999999999,1.0,112.943,0.0,0,2019-12-16 08:56:35.000,64,2019-12-16 08:58:25.862,0.25,-90,-180,-180,-90,1
8938,1,0,45.778,0,-90,1,0.25,2,9,0.0,0.0,9,45.0,30.0,9,0.901,0.0,46.284,0.0,0,2019-12-16 14:46:07.000,117,2019-12-16 14:46:52.778,0.25,90,-90,0,-180,1
8939,3,0,56.948,0,-90,1,0.25,2,3,0.0,0.0,3,45.0,30.0,3,0.8009999999999999,0.0,57.205,0.17,1,2019-12-16 14:46:07.000,117,2019-12-16 14:47:03.948,0.25,90,90,-180,-180,1
8940,4,0,60.778,0,-90,1,0.25,2,3,0.0,0.0,3,45.0,30.0,3,0.7509999999999999,1.0,61.24,0.0,0,2019-12-16 14:46:07.000,117,2019-12-16 14:47:07.778,0.25,-90,90,-180,0,1
8941,6,0,87.04799999999999,0,-90,1,0.25,2,9,0.0,0.0,9,45.0,30.0,9,0.7509999999999999,0.0,87.395,0.0,0,2019-12-16 14:46:07.000,117,2019-12-16 14:47:34.048,0.25,90,-90,0,-180,1
8942,9,0,118.945,0,-90,1,0.25,2,9,0.0,0.0,9,45.0,30.0,9,0.8009999999999999,1.0,119.441,0.13,1,2019-12-16 14:46:07.000,117,2019-12-16 14:48:05.945,0.25,-90,-90,0,0,1
8943,10,0,122.939,1,-90,1,0.25,2,9,0.0,0.0,9,45.0,30.0,9,0.851,1.0,123.452,0.13,1,2019-12-16 14:46:07.000,117,2019-12-16 14:48:09.939,0.25,-90,-90,0,0,1
8944,11,0,126.437,0,-90,1,0.25,2,3,0.0,0.0,3,45.0,30.0,3,0.7509999999999999,0.0,129.5,0.17,1,2019-12-16 14:46:07.000,117,2019-12-16 14:48:13.437,0.25,90,90,-180,-180,1
8945,12,0,132.69899999999998,0,-90,1,0.25,2,9,0.0,0.0,9,45.0,30.0,9,0.901,1.0,133.211,0.13,1,2019-12-16 14:46:07.000,117,2019-12-16 14:48:19.699,0.25,-90,-90,0,0,1
8946,13,0,138.282,0,-90,1,0.25,2,9,0.0,0.0,9,45.0,30.0,9,0.951,1.0,138.578,0.13,1,2019-12-16 14:46:07.000,117,2019-12-16 14:48:25.282,0.25,-90,-90,0,0,1
8947,14,0,141.838,0,-90,1,0.25,2,9,0.0,0.0,9,45.0,30.0,9,0.851,1.0,142.35399999999996,0.13,1,2019-12-16 14:46:07.000,117,2019-12-16 14:48:28.838,0.25,-90,-90,0,0,1
9295,1,0,32.463,0,60,1,0.25,2,3,0.0,0.0,10,45.0,30.0,3,0.851,1.0,32.848,0.0,0,2019-12-17 14:31:21.000,235,2019-12-17 14:31:53.463,0.25,-90,-120,-180,-150,1
9296,4,0,48.456,0,60,1,0.25,2,3,0.0,0.0,10,45.0,30.0,3,0.901,0.0,48.824,0.17,1,2019-12-17 14:31:21.000,235,2019-12-17 14:32:09.456,0.25,90,-120,-180,30,1
9297,5,0,50.545,0,60,1,0.25,2,9,0.0,0.0,4,45.0,30.0,9,0.8009999999999999,1.0,50.993,0.13,1,2019-12-17 14:31:21.000,235,2019-12-17 14:32:11.545,0.25,-90,60,0,-150,1
9298,6,0,53.66,0,60,1,0.25,2,3,0.0,0.0,10,45.0,30.0,3,0.851,0.0,54.169,0.17,1,2019-12-17 14:31:21.000,235,2019-12-17 14:32:14.660,0.25,90,-120,-180,30,1
9299,7,0,55.945,0,60,1,0.25,2,3,0.0,0.0,10,45.0,30.0,3,0.8009999999999999,0.0,56.214,0.17,1,2019-12-17 14:31:21.000,235,2019-12-17 14:32:16.945,0.25,90,-120,-180,30,1
9300,8,0,58.964,0,60,1,0.25,2,3,0.0,0.0,10,45.0,30.0,3,0.7509999999999999,1.0,59.343,0.0,0,2019-12-17 14:31:21.000,235,2019-12-17 14:32:19.964,0.25,-90,-120,-180,-150,1
9301,10,0,70.816,0,60,1,0.25,2,3,0.0,0.0,10,45.0,30.0,3,0.951,0.0,71.305,0.17,1,2019-12-17 14:31:21.000,235,2019-12-17 14:32:31.816,0.25,90,-120,-180,30,1
9302,11,0,74.635,0,60,1,0.25,2,9,0.0,0.0,4,45.0,30.0,9,0.7509999999999999,1.0,75.021,0.13,1,2019-12-17 14:31:21.000,235,2019-12-17 14:32:35.635,0.25,-90,60,0,-150,1
9303,12,0,78.062,0,60,1,0.25,2,9,0.0,0.0,4,45.0,30.0,9,0.8009999999999999,1.0,78.23899999999998,0.13,1,2019-12-17 14:31:21.000,235,2019-12-17 14:32:39.062,0.25,-90,60,0,-150,1
9304,13,0,81.828,0,60,1,0.25,2,3,0.0,0.0,10,45.0,30.0,3,0.901,1.0,82.044,0.0,0,2019-12-17 14:31:21.000,235,2019-12-17 14:32:42.828,0.25,-90,-120,-180,-150,1
9630,1,0,58.702,0,120,1,0.25,2,3,0.0,0.0,8,45.0,30.0,3,0.7509999999999999,1.0,58.833,0.0,0,2019-12-18 14:30:31.000,221,2019-12-18 14:31:29.702,0.25,-90,-60,-180,150,1
9631,3,0,84.015,0,120,1,0.25,2,3,0.0,0.0,8,45.0,30.0,3,0.851,1.0,84.376,0.0,0,2019-12-18 14:30:31.000,221,2019-12-18 14:31:55.015,0.25,-90,-60,-180,150,1
9632,5,0,94.083,0,120,1,0.25,2,9,0.0,0.0,2,45.0,30.0,9,0.8009999999999999,0.0,94.707,0.0,0,2019-12-18 14:30:31.000,221,2019-12-18 14:32:05.083,0.25,90,120,0,-30,1
9633,8,0,110.265,0,120,1,0.25,2,9,0.0,0.0,2,45.0,30.0,9,0.901,0.0,110.65,0.0,0,2019-12-18 14:30:31.000,221,2019-12-18 14:32:21.265,0.25,90,120,0,-30,1
9634,10,0,121.451,1,120,1,0.25,2,3,0.0,0.0,8,45.0,30.0,3,0.8009999999999999,0.0,121.844,0.17,1,2019-12-18 14:30:31.000,221,2019-12-18 14:32:32.451,0.25,90,-60,-180,-30,1
9635,11,0,123.851,0,120,1,0.25,2,3,0.0,0.0,8,45.0,30.0,3,0.901,1.0,126.666,0.0,0,2019-12-18 14:30:31.000,221,2019-12-18 14:32:34.851,0.25,-90,-60,-180,150,1
9636,13,0,144.876,0,120,1,0.25,2,3,0.0,0.0,8,45.0,30.0,3,0.7509999999999999,0.0,145.482,0.17,1,2019-12-18 14:30:31.000,221,2019-12-18 14:32:55.876,0.25,90,-60,-180,-30,1
9637,14,0,148.615,0,120,1,0.25,2,3,0.0,0.0,8,45.0,30.0,3,0.8009999999999999,0.0,149.361,0.17,1,2019-12-18 14:30:31.000,221,2019-12-18 14:32:59.615,0.25,90,-60,-180,-30,1
9638,15,0,152.985,0,120,1,0.25,2,9,0.0,0.0,2,45.0,30.0,9,0.851,1.0,153.434,0.13,1,2019-12-18 14:30:31.000,221,2019-12-18 14:33:03.985,0.25,-90,120,0,150,1
9639,16,0,156.836,0,120,1,0.25,2,3,0.0,0.0,8,45.0,30.0,3,0.8009999999999999,0.0,157.341,0.17,1,2019-12-18 14:30:31.000,221,2019-12-18 14:33:07.836,0.25,90,-60,-180,-30,1
9936,1,0,50.636,0,-120,1,0.25,2,9,0.0,0.0,10,45.0,30.0,9,0.8009999999999999,1.0,51.089,0.13,1,2019-12-19 14:36:11.000,139,2019-12-19 14:37:01.636,0.25,-90,-120,0,30,1
9937,2,0,54.942,0,-120,1,0.25,2,3,0.0,0.0,4,45.0,30.0,3,0.851,1.0,55.29,0.0,0,2019-12-19 14:36:11.000,139,2019-12-19 14:37:05.942,0.25,-90,60,-180,30,1
9938,5,0,82.738,0,-120,1,0.25,2,3,0.0,0.0,4,45.0,30.0,3,0.901,1.0,83.118,0.0,0,2019-12-19 14:36:11.000,139,2019-12-19 14:37:33.738,0.25,-90,60,-180,30,1
9939,7,0,97.096,0,-120,1,0.25,2,3,0.0,0.0,4,45.0,30.0,3,0.951,0.0,97.337,0.17,1,2019-12-19 14:36:11.000,139,2019-12-19 14:37:48.096,0.25,90,60,-180,-150,1
9940,8,0,100.199,0,-120,1,0.25,2,3,0.0,0.0,4,45.0,30.0,3,0.7509999999999999,0.0,100.85,0.17,1,2019-12-19 14:36:11.000,139,2019-12-19 14:37:51.199,0.25,90,60,-180,-150,1
9941,9,0,103.778,0,-120,1,0.25,2,9,0.0,0.0,10,45.0,30.0,9,0.851,0.0,104.527,0.0,0,2019-12-19 14:36:11.000,139,2019-12-19 14:37:54.778,0.25,90,-120,0,-150,1
9942,12,0,119.063,0,-120,1,0.25,2,3,0.0,0.0,4,45.0,30.0,3,0.951,1.0,119.33,0.0,0,2019-12-19 14:36:11.000,139,2019-12-19 14:38:10.063,0.25,-90,60,-180,30,1
9943,14,0,131.499,0,-120,1,0.25,2,3,0.0,0.0,4,45.0,30.0,3,0.901,0.0,131.92600000000002,0.17,1,2019-12-19 14:36:11.000,139,2019-12-19 14:38:22.499,0.25,90,60,-180,-150,1
9944,15,0,134.531,0,-120,1,0.25,2,3,0.0,0.0,4,45.0,30.0,3,0.7509999999999999,0.0,135.078,0.17,1,2019-12-19 14:36:11.000,139,2019-12-19 14:38:25.531,0.25,90,60,-180,-150,1
9945,16,0,138.783,0,-120,1,0.25,2,9,0.0,0.0,10,45.0,30.0,9,0.7509999999999999,0.0,139.365,0.0,0,2019-12-19 14:36:11.000,139,2019-12-19 14:38:29.783,0.25,90,-120,0,-150,1
10153,1,0,40.788,0,90,1,0.25,2,3,0.0,0.0,9,45.0,30.0,3,0.851,1.0,41.401,0.0,0,2019-12-20 14:27:57.000,68,2019-12-20 14:28:37.788,0.25,-90,-90,-180,-180,1
10154,3,0,54.887,0,90,1,0.25,2,3,0.0,0.0,9,45.0,30.0,3,0.951,0.0,55.147,0.17,1,2019-12-20 14:27:57.000,68,2019-12-20 14:28:51.887,0.25,90,-90,-180,0,1
10155,4,0,56.864,0,90,1,0.25,2,9,0.0,0.0,3,45.0,30.0,9,0.8009999999999999,1.0,57.452,0.13,1,2019-12-20 14:27:57.000,68,2019-12-20 14:28:53.864,0.25,-90,90,0,-180,1
10156,5,0,60.996,0,90,1,0.25,2,3,0.0,0.0,9,45.0,30.0,3,0.901,0.0,61.221,0.17,1,2019-12-20 14:27:57.000,68,2019-12-20 14:28:57.996,0.25,90,-90,-180,0,1
10157,6,0,65.164,0,90,1,0.25,2,9,0.0,0.0,3,45.0,30.0,9,0.7509999999999999,0.0,65.664,0.0,0,2019-12-20 14:27:57.000,68,2019-12-20 14:29:02.164,0.25,90,90,0,0,1
10158,8,0,78.405,0,90,1,0.25,2,9,0.0,0.0,3,45.0,30.0,9,0.901,1.0,78.62899999999998,0.13,1,2019-12-20 14:27:57.000,68,2019-12-20 14:29:15.405,0.25,-90,90,0,-180,1
10159,9,0,83.656,0,90,1,0.25,2,9,0.0,0.0,3,45.0,30.0,9,0.951,1.0,84.007,0.13,1,2019-12-20 14:27:57.000,68,2019-12-20 14:29:20.656,0.25,-90,90,0,-180,1
10160,10,0,87.198,0,90,1,0.25,2,3,0.0,0.0,9,45.0,30.0,3,0.8009999999999999,0.0,87.68299999999998,0.17,1,2019-12-20 14:27:57.000,68,2019-12-20 14:29:24.198,0.25,90,-90,-180,0,1
10162,12,0,95.759,0,90,1,0.25,2,3,0.0,0.0,9,45.0,30.0,3,0.7509999999999999,1.0,96.178,0.0,0,2019-12-20 14:27:57.000,68,2019-12-20 14:29:32.759,0.25,-90,-90,-180,-180,1
10164,15,0,110.317,0,90,1,0.25,2,9,0.0,0.0,3,45.0,30.0,9,0.951,1.0,110.67,0.13,1,2019-12-20 14:27:57.000,68,2019-12-20 14:29:47.317,0.25,-90,90,0,-180,1
10288,1,0,56.306,0,0,1,0.25,2,9,0.0,0.0,6,45.0,30.0,9,0.951,0.0,56.849,0.0,0,2020-01-13 08:36:48.000,167,2020-01-13 08:37:44.306,0.25,90,0,0,90,1
10289,3,0,84.00299999999999,0,0,1,0.25,2,9,0.0,0.0,6,45.0,30.0,9,0.851,1.0,84.488,0.13,1,2020-01-13 08:36:48.000,167,2020-01-13 08:38:12.003,0.25,-90,0,0,-90,1
10290,4,0,87.98200000000001,0,0,1,0.25,2,3,0.0,0.0,12,45.0,30.0,3,0.7509999999999999,0.0,88.32600000000002,0.17,1,2020-01-13 08:36:48.000,167,2020-01-13 08:38:15.982,0.25,90,-180,-180,90,1
10291,5,0,94.373,1,0,1,0.25,2,3,0.0,0.0,12,45.0,30.0,3,0.901,0.0,94.773,0.17,1,2020-01-13 08:36:48.000,167,2020-01-13 08:38:22.373,0.25,90,-180,-180,90,1
10292,6,0,96.438,0,0,1,0.25,2,9,0.0,0.0,6,45.0,30.0,9,0.7509999999999999,1.0,98.125,0.13,1,2020-01-13 08:36:48.000,167,2020-01-13 08:38:24.438,0.25,-90,0,0,-90,1
10293,7,0,126.138,0,0,1,0.25,2,9,0.0,0.0,6,45.0,30.0,9,0.901,0.0,126.635,0.0,0,2020-01-13 08:36:48.000,167,2020-01-13 08:38:54.138,0.25,90,0,0,90,1
10294,9,0,141.30700000000004,0,0,1,0.25,2,3,0.0,0.0,12,45.0,30.0,3,0.851,0.0,141.92,0.17,1,2020-01-13 08:36:48.000,167,2020-01-13 08:39:09.307,0.25,90,-180,-180,90,1
10295,10,0,143.7,0,0,1,0.25,2,3,0.0,0.0,12,45.0,30.0,3,0.8009999999999999,0.0,144.162,0.17,1,2020-01-13 08:36:48.000,167,2020-01-13 08:39:11.700,0.25,90,-180,-180,90,1
10296,11,0,146.47899999999996,0,0,1,0.25,2,3,0.0,0.0,12,45.0,30.0,3,0.951,1.0,146.74200000000005,0.0,0,2020-01-13 08:36:48.000,167,2020-01-13 08:39:14.479,0.25,-90,-180,-180,-90,1
10297,13,0,154.99,0,0,1,0.25,2,3,0.0,0.0,12,45.0,30.0,3,0.7509999999999999,0.0,155.452,0.17,1,2020-01-13 08:36:48.000,167,2020-01-13 08:39:22.990,0.25,90,-180,-180,90,1
10679,1,0,49.901,0,-60,1,0.25,2,3,0.0,0.0,2,45.0,30.0,3,0.901,0.0,50.47,0.17,1,2020-01-15 08:43:32.000,55,2020-01-15 08:44:21.901,0.25,90,120,-180,150,1
10680,2,0,54.018,0,-60,1,0.25,2,9,0.0,0.0,8,45.0,30.0,9,0.7509999999999999,1.0,54.147,0.13,1,2020-01-15 08:43:32.000,55,2020-01-15 08:44:26.018,0.25,-90,-60,0,-30,1
10681,3,0,111.868,1,-60,1,0.25,2,3,0.0,0.0,2,45.0,30.0,3,0.8009999999999999,0.0,112.372,0.17,1,2020-01-15 08:43:32.000,55,2020-01-15 08:45:23.868,0.25,90,120,-180,150,1
10682,4,0,115.094,1,-60,1,0.25,2,3,0.0,0.0,2,45.0,30.0,3,0.951,1.0,117.804,0.0,0,2020-01-15 08:43:32.000,55,2020-01-15 08:45:27.094,0.25,-90,120,-180,-30,1
10683,7,0,141.082,0,-60,1,0.25,2,3,0.0,0.0,2,45.0,30.0,3,0.901,0.0,141.384,0.17,1,2020-01-15 08:43:32.000,55,2020-01-15 08:45:53.082,0.25,90,120,-180,150,1
10684,8,0,144.836,0,-60,1,0.25,2,9,0.0,0.0,8,45.0,30.0,9,0.8009999999999999,1.0,145.635,0.13,1,2020-01-15 08:43:32.000,55,2020-01-15 08:45:56.836,0.25,-90,-60,0,-30,1
10685,9,0,148.439,1,-60,1,0.25,2,9,0.0,0.0,8,45.0,30.0,9,0.851,0.0,151.408,0.0,0,2020-01-15 08:43:32.000,55,2020-01-15 08:46:00.439,0.25,90,-60,0,150,1
10687,12,0,166.93200000000004,0,-60,1,0.25,2,3,0.0,0.0,2,45.0,30.0,3,0.8009999999999999,0.0,167.394,0.17,1,2020-01-15 08:43:32.000,55,2020-01-15 08:46:18.932,0.25,90,120,-180,150,1
10688,13,0,170.352,0,-60,1,0.25,2,3,0.0,0.0,2,45.0,30.0,3,0.951,0.0,170.72099999999998,0.17,1,2020-01-15 08:43:32.000,55,2020-01-15 08:46:22.352,0.25,90,120,-180,150,1
10689,14,0,173.674,1,-60,1,0.25,2,9,0.0,0.0,8,45.0,30.0,9,0.901,1.0,174.108,0.13,1,2020-01-15 08:43:32.000,55,2020-01-15 08:46:25.674,0.25,-90,-60,0,-30,1
10741,1,0,41.287,0,150,1,0.25,2,3,0.0,0.0,7,45.0,30.0,3,0.7509999999999999,0.0,42.239,0.17,1,2020-01-15 14:31:11.000,30,2020-01-15 14:31:52.287,0.25,90,-30,-180,-60,1
10742,2,0,45.432,0,150,1,0.25,2,3,0.0,0.0,7,45.0,30.0,3,0.8009999999999999,1.0,45.883,0.0,0,2020-01-15 14:31:11.000,30,2020-01-15 14:31:56.432,0.25,-90,-30,-180,120,1
10743,4,0,68.675,0,150,1,0.25,2,9,0.0,0.0,1,45.0,30.0,9,0.901,0.0,69.053,0.0,0,2020-01-15 14:31:11.000,30,2020-01-15 14:32:19.675,0.25,90,150,0,-60,1
10744,6,0,76.604,0,150,1,0.25,2,3,0.0,0.0,7,45.0,30.0,3,0.8009999999999999,0.0,77.166,0.17,1,2020-01-15 14:31:11.000,30,2020-01-15 14:32:27.604,0.25,90,-30,-180,-60,1
10745,7,0,80.613,0,150,1,0.25,2,9,0.0,0.0,1,45.0,30.0,9,0.7509999999999999,0.0,81.12100000000002,0.0,0,2020-01-15 14:31:11.000,30,2020-01-15 14:32:31.613,0.25,90,150,0,-60,1
10746,10,0,111.344,0,150,1,0.25,2,3,0.0,0.0,7,45.0,30.0,3,0.901,0.0,111.868,0.17,1,2020-01-15 14:31:11.000,30,2020-01-15 14:33:02.344,0.25,90,-30,-180,-60,1
10747,11,0,116.858,0,150,1,0.25,2,3,0.0,0.0,7,45.0,30.0,3,0.901,0.0,117.428,0.17,1,2020-01-15 14:31:11.000,30,2020-01-15 14:33:07.858,0.25,90,-30,-180,-60,1
10748,12,0,120.733,1,150,1,0.25,2,3,0.0,0.0,7,45.0,30.0,3,0.851,0.0,121.448,0.17,1,2020-01-15 14:31:11.000,30,2020-01-15 14:33:11.733,0.25,90,-30,-180,-60,1
10749,13,0,124.026,0,150,1,0.25,2,9,0.0,0.0,1,45.0,30.0,9,0.8009999999999999,1.0,124.723,0.13,1,2020-01-15 14:31:11.000,30,2020-01-15 14:33:15.026,0.25,-90,150,0,120,1
10750,14,0,129.814,0,150,1,0.25,2,3,0.0,0.0,7,45.0,30.0,3,0.7509999999999999,1.0,130.523,0.0,0,2020-01-15 14:31:11.000,30,2020-01-15 14:33:20.814,0.25,-90,-30,-180,120,1
10828,1,0,71.723,0,-120,1,0.25,2,9,0.0,0.0,10,45.0,30.0,9,0.851,1.0,72.42699999999998,0.13,1,2020-01-16 09:02:39.000,212,2020-01-16 09:03:50.723,0.25,-90,-120,0,30,1
10829,2,0,75.82300000000002,0,-120,1,0.25,2,9,0.0,0.0,10,45.0,30.0,9,0.951,0.0,76.029,0.0,0,2020-01-16 09:02:39.000,212,2020-01-16 09:03:54.823,0.25,90,-120,0,-150,1
10830,4,0,86.936,1,-120,1,0.25,2,9,0.0,0.0,10,45.0,30.0,9,0.7509999999999999,1.0,90.24,0.13,1,2020-01-16 09:02:39.000,212,2020-01-16 09:04:05.936,0.25,-90,-120,0,30,1
10831,5,0,93.599,0,-120,1,0.25,2,9,0.0,0.0,10,45.0,30.0,9,0.8009999999999999,0.0,94.386,0.0,0,2020-01-16 09:02:39.000,212,2020-01-16 09:04:12.599,0.25,90,-120,0,-150,1
10832,7,0,113.733,0,-120,1,0.25,2,3,0.0,0.0,4,45.0,30.0,3,0.851,0.0,114.041,0.17,1,2020-01-16 09:02:39.000,212,2020-01-16 09:04:32.733,0.25,90,60,-180,-150,1
10833,8,0,116.869,0,-120,1,0.25,2,3,0.0,0.0,4,45.0,30.0,3,0.8009999999999999,0.0,117.481,0.17,1,2020-01-16 09:02:39.000,212,2020-01-16 09:04:35.869,0.25,90,60,-180,-150,1
10834,9,0,120.38,0,-120,1,0.25,2,9,0.0,0.0,10,45.0,30.0,9,0.7509999999999999,0.0,121.02,0.0,0,2020-01-16 09:02:39.000,212,2020-01-16 09:04:39.380,0.25,90,-120,0,-150,1
10835,12,0,146.159,0,-120,1,0.25,2,9,0.0,0.0,10,45.0,30.0,9,0.901,1.0,147.006,0.13,1,2020-01-16 09:02:39.000,212,2020-01-16 09:05:05.159,0.25,-90,-120,0,30,1
10836,13,0,150.15200000000004,0,-120,1,0.25,2,9,0.0,0.0,10,45.0,30.0,9,0.8009999999999999,0.0,150.373,0.0,0,2020-01-16 09:02:39.000,212,2020-01-16 09:05:09.152,0.25,90,-120,0,-150,1
10837,15,0,160.364,0,-120,1,0.25,2,9,0.0,0.0,10,45.0,30.0,9,0.7509999999999999,0.0,160.884,0.0,0,2020-01-16 09:02:39.000,212,2020-01-16 09:05:19.364,0.25,90,-120,0,-150,1
10846,1,0,24.963,0,-150,1,0.25,2,3,0.0,0.0,5,45.0,30.0,3,0.901,1.0,25.165,0.0,0,2020-01-16 15:26:08.000,136,2020-01-16 15:26:32.963,0.25,-90,30,-180,60,1
10847,3,0,55.595,0,-150,1,0.25,2,9,0.0,0.0,11,45.0,30.0,9,0.8009999999999999,1.0,55.924,0.13,1,2020-01-16 15:26:08.000,136,2020-01-16 15:27:03.595,0.25,-90,-150,0,60,1
10848,4,0,58.757,0,-150,1,0.25,2,9,0.0,0.0,11,45.0,30.0,9,0.851,0.0,59.175,0.0,0,2020-01-16 15:26:08.000,136,2020-01-16 15:27:06.757,0.25,90,-150,0,-120,1
10849,8,0,77.907,0,-150,1,0.25,2,9,0.0,0.0,11,45.0,30.0,9,0.7509999999999999,1.0,78.48100000000002,0.13,1,2020-01-16 15:26:08.000,136,2020-01-16 15:27:25.907,0.25,-90,-150,0,60,1
10850,9,0,82.175,0,-150,1,0.25,2,9,0.0,0.0,11,45.0,30.0,9,0.901,1.0,82.73,0.13,1,2020-01-16 15:26:08.000,136,2020-01-16 15:27:30.175,0.25,-90,-150,0,60,1
10851,10,0,85.632,0,-150,1,0.25,2,9,0.0,0.0,11,45.0,30.0,9,0.8009999999999999,1.0,86.507,0.13,1,2020-01-16 15:26:08.000,136,2020-01-16 15:27:33.632,0.25,-90,-150,0,60,1
10852,11,0,89.86200000000002,0,-150,1,0.25,2,3,0.0,0.0,5,45.0,30.0,3,0.951,0.0,90.118,0.17,1,2020-01-16 15:26:08.000,136,2020-01-16 15:27:37.862,0.25,90,30,-180,-120,1
10853,12,0,92.989,0,-150,1,0.25,2,3,0.0,0.0,5,45.0,30.0,3,0.8009999999999999,0.0,93.719,0.17,1,2020-01-16 15:26:08.000,136,2020-01-16 15:27:40.989,0.25,90,30,-180,-120,1
10854,13,0,97.243,0,-150,1,0.25,2,3,0.0,0.0,5,45.0,30.0,3,0.901,1.0,97.547,0.0,0,2020-01-16 15:26:08.000,136,2020-01-16 15:27:45.243,0.25,-90,30,-180,60,1
10856,16,0,112.487,0,-150,1,0.25,2,9,0.0,0.0,11,45.0,30.0,9,0.951,0.0,112.951,0.0,0,2020-01-16 15:26:08.000,136,2020-01-16 15:28:00.487,0.25,90,-150,0,-120,1
10973,1,0,39.26,0,0,1,0.25,2,3,0.0,0.0,12,45.0,30.0,3,0.7509999999999999,1.0,40.343,0.0,0,2020-02-03 10:41:11.000,134,2020-02-03 10:41:50.260,0.25,-90,-180,-180,-90,1
10974,3,0,78.314,0,0,1,0.25,2,3,0.0,0.0,12,45.0,30.0,3,0.8009999999999999,1.0,79.271,0.0,0,2020-02-03 10:41:11.000,134,2020-02-03 10:42:29.314,0.25,-90,-180,-180,-90,1
10975,5,0,99.751,0,0,1,0.25,2,9,0.0,0.0,6,45.0,30.0,9,0.901,1.0,100.222,0.13,1,2020-02-03 10:41:11.000,134,2020-02-03 10:42:50.751,0.25,-90,0,0,-90,1
10976,6,0,119.566,0,0,1,0.25,2,9,0.0,0.0,6,45.0,30.0,9,0.901,0.0,119.927,0.0,0,2020-02-03 10:41:11.000,134,2020-02-03 10:43:10.566,0.25,90,0,0,90,1
10977,9,0,148.86700000000005,0,0,1,0.25,2,3,0.0,0.0,12,45.0,30.0,3,0.7509999999999999,0.0,149.21200000000005,0.17,1,2020-02-03 10:41:11.000,134,2020-02-03 10:43:39.867,0.25,90,-180,-180,90,1
10978,10,0,153.17700000000005,0,0,1,0.25,2,3,0.0,0.0,12,45.0,30.0,3,0.851,0.0,153.553,0.17,1,2020-02-03 10:41:11.000,134,2020-02-03 10:43:44.177,0.25,90,-180,-180,90,1
10979,11,0,157.764,0,0,1,0.25,2,3,0.0,0.0,12,45.0,30.0,3,0.7509999999999999,0.0,158.622,0.17,1,2020-02-03 10:41:11.000,134,2020-02-03 10:43:48.764,0.25,90,-180,-180,90,1
10980,12,0,162.071,0,0,1,0.25,2,3,0.0,0.0,12,45.0,30.0,3,0.851,0.0,162.668,0.17,1,2020-02-03 10:41:11.000,134,2020-02-03 10:43:53.071,0.25,90,-180,-180,90,1
10981,13,0,173.25799999999995,0,0,1,0.25,2,3,0.0,0.0,12,45.0,30.0,3,0.951,0.0,173.688,0.17,1,2020-02-03 10:41:11.000,134,2020-02-03 10:44:04.258,0.25,90,-180,-180,90,1
10982,14,0,177.37099999999995,0,0,1,0.25,2,9,0.0,0.0,6,45.0,30.0,9,0.8009999999999999,0.0,178.03799999999995,0.0,0,2020-02-03 10:41:11.000,134,2020-02-03 10:44:08.371,0.25,90,0,0,90,1
11495,1,0,51.562,0,-120,1,0.25,2,3,0.0,0.0,4,45.0,30.0,3,0.526,0.0,51.752,0.15,1,2020-02-06 09:10:08.000,95,2020-02-06 09:10:59.562,0.25,90,60,-180,-150,1
11496,2,0,58.12300000000001,0,-120,1,0.25,2,3,0.0,0.0,4,45.0,30.0,3,0.6759999999999999,1.0,58.511,0.0,0,2020-02-06 09:10:08.000,95,2020-02-06 09:11:06.123,0.25,-90,60,-180,30,1
11497,6,0,107.892,1,-120,1,0.25,2,9,0.0,0.0,10,45.0,30.0,9,0.601,1.0,108.607,0.19,1,2020-02-06 09:10:08.000,95,2020-02-06 09:11:55.892,0.25,-90,-120,0,30,1
11498,7,0,111.824,0,-120,1,0.25,2,9,0.0,0.0,10,45.0,30.0,9,0.6759999999999999,0.0,113.799,0.0,0,2020-02-06 09:10:08.000,95,2020-02-06 09:11:59.824,0.25,90,-120,0,-150,1
11499,9,0,124.087,0,-120,1,0.25,2,3,0.0,0.0,4,45.0,30.0,3,0.7509999999999999,0.0,124.228,0.15,1,2020-02-06 09:10:08.000,95,2020-02-06 09:12:12.087,0.25,90,60,-180,-150,1
11500,10,0,139.224,0,-120,1,0.25,2,3,0.0,0.0,4,45.0,30.0,3,0.451,1.0,140.024,0.0,0,2020-02-06 09:10:08.000,95,2020-02-06 09:12:27.224,0.25,-90,60,-180,30,1
11501,12,0,148.065,0,-120,1,0.25,2,9,0.0,0.0,10,45.0,30.0,9,0.6759999999999999,1.0,148.342,0.19,1,2020-02-06 09:10:08.000,95,2020-02-06 09:12:36.065,0.25,-90,-120,0,30,1
11502,13,0,151.795,0,-120,1,0.25,2,9,0.0,0.0,10,45.0,30.0,9,0.451,1.0,152.343,0.19,1,2020-02-06 09:10:08.000,95,2020-02-06 09:12:39.795,0.25,-90,-120,0,30,1
11503,14,0,155.952,0,-120,1,0.25,2,3,0.0,0.0,4,45.0,30.0,3,0.601,0.0,156.249,0.15,1,2020-02-06 09:10:08.000,95,2020-02-06 09:12:43.952,0.25,90,60,-180,-150,1
11504,15,0,162.678,0,-120,1,0.25,2,3,0.0,0.0,4,45.0,30.0,3,0.526,0.0,163.13299999999995,0.15,1,2020-02-06 09:10:08.000,95,2020-02-06 09:12:50.678,0.25,90,60,-180,-150,1
11670,1,0,32.675,0,0,1,0.25,2,3,0.0,0.0,12,45.0,30.0,3,0.6759999999999999,1.0,33.267,0.0,0,2020-02-07 10:24:12.000,178,2020-02-07 10:24:44.675,0.25,-90,-180,-180,-90,1
11671,5,0,98.043,0,0,1,0.25,2,9,0.0,0.0,6,45.0,30.0,9,0.526,0.0,98.194,0.0,0,2020-02-07 10:24:12.000,178,2020-02-07 10:25:50.043,0.25,90,0,0,90,1
11672,7,0,109.969,0,0,1,0.25,2,3,0.0,0.0,12,45.0,30.0,3,0.7509999999999999,1.0,110.278,0.0,0,2020-02-07 10:24:12.000,178,2020-02-07 10:26:01.969,0.25,-90,-180,-180,-90,1
11673,9,0,121.937,1,0,1,0.25,2,3,0.0,0.0,12,45.0,30.0,3,0.526,0.0,122.54,0.19,1,2020-02-07 10:24:12.000,178,2020-02-07 10:26:13.937,0.25,90,-180,-180,90,1
11674,10,0,124.241,0,0,1,0.25,2,9,0.0,0.0,6,45.0,30.0,9,0.451,1.0,126.496,0.15,1,2020-02-07 10:24:12.000,178,2020-02-07 10:26:16.241,0.25,-90,0,0,-90,1
11675,11,0,132.194,0,0,1,0.25,2,3,0.0,0.0,12,45.0,30.0,3,0.451,0.0,132.754,0.19,1,2020-02-07 10:24:12.000,178,2020-02-07 10:26:24.194,0.25,90,-180,-180,90,1
11676,12,0,135.425,0,0,1,0.25,2,3,0.0,0.0,12,45.0,30.0,3,0.526,0.0,136.03799999999998,0.19,1,2020-02-07 10:24:12.000,178,2020-02-07 10:26:27.425,0.25,90,-180,-180,90,1
11678,14,0,142.819,0,0,1,0.25,2,3,0.0,0.0,12,45.0,30.0,3,0.7509999999999999,0.0,143.482,0.19,1,2020-02-07 10:24:12.000,178,2020-02-07 10:26:34.819,0.25,90,-180,-180,90,1
11679,15,0,146.188,0,0,1,0.25,2,3,0.0,0.0,12,45.0,30.0,3,0.6759999999999999,0.0,146.535,0.19,1,2020-02-07 10:24:12.000,178,2020-02-07 10:26:38.188,0.25,90,-180,-180,90,1
11680,16,0,148.976,0,0,1,0.25,2,9,0.0,0.0,6,45.0,30.0,9,0.601,1.0,149.631,0.15,1,2020-02-07 10:24:12.000,178,2020-02-07 10:26:40.976,0.25,-90,0,0,-90,1
11814,1,0,66.669,1,180,1,0.25,2,3,0.0,0.0,6,45.0,30.0,3,0.7509999999999999,1.0,69.012,0.0,0,2020-02-07 15:56:47.000,165,2020-02-07 15:57:53.669,0.25,-90,0,-180,90,1
11815,4,0,79.626,0,180,1,0.25,2,9,0.0,0.0,12,45.0,30.0,9,0.526,1.0,80.176,0.15,1,2020-02-07 15:56:47.000,165,2020-02-07 15:58:06.626,0.25,-90,-180,0,90,1
11816,5,0,83.50299999999999,0,180,1,0.25,2,9,0.0,0.0,12,45.0,30.0,9,0.6759999999999999,1.0,84.03299999999999,0.15,1,2020-02-07 15:56:47.000,165,2020-02-07 15:58:10.503,0.25,-90,-180,0,90,1
11817,6,0,87.48299999999998,0,180,1,0.25,2,9,0.0,0.0,12,45.0,30.0,9,0.7509999999999999,1.0,88.14,0.15,1,2020-02-07 15:56:47.000,165,2020-02-07 15:58:14.483,0.25,-90,-180,0,90,1
11818,7,0,91.242,0,180,1,0.25,2,9,0.0,0.0,12,45.0,30.0,9,0.601,1.0,91.705,0.15,1,2020-02-07 15:56:47.000,165,2020-02-07 15:58:18.242,0.25,-90,-180,0,90,1
11819,8,0,95.475,0,180,1,0.25,2,9,0.0,0.0,12,45.0,30.0,9,0.6759999999999999,1.0,95.998,0.15,1,2020-02-07 15:56:47.000,165,2020-02-07 15:58:22.475,0.25,-90,-180,0,90,1
11820,9,0,99.044,0,180,1,0.25,2,9,0.0,0.0,12,45.0,30.0,9,0.526,1.0,99.626,0.15,1,2020-02-07 15:56:47.000,165,2020-02-07 15:58:26.044,0.25,-90,-180,0,90,1
11821,10,0,102.808,0,180,1,0.25,2,3,0.0,0.0,6,45.0,30.0,3,0.451,1.0,103.735,0.0,0,2020-02-07 15:56:47.000,165,2020-02-07 15:58:29.808,0.25,-90,0,-180,90,1
11822,12,0,110.886,0,180,1,0.25,2,9,0.0,0.0,12,45.0,30.0,9,0.526,1.0,111.235,0.15,1,2020-02-07 15:56:47.000,165,2020-02-07 15:58:37.886,0.25,-90,-180,0,90,1
11823,13,0,114.381,0,180,1,0.25,2,3,0.0,0.0,6,45.0,30.0,3,0.601,1.0,114.866,0.0,0,2020-02-07 15:56:47.000,165,2020-02-07 15:58:41.381,0.25,-90,0,-180,90,1
11961,1,0,114.002,1,0,1,0.25,2,9,0.0,0.0,6,45.0,30.0,9,0.564,1.0,116.695,0.15,1,2020-02-12 12:19:47.000,19,2020-02-12 12:21:41.002,0.25,-90,0,0,-90,1
11962,2,0,125.685,1,0,1,0.25,2,9,0.0,0.0,6,45.0,30.0,9,0.601,1.0,125.997,0.15,1,2020-02-12 12:19:47.000,19,2020-02-12 12:21:52.685,0.25,-90,0,0,-90,1
11963,3,0,136.334,1,0,1,0.25,2,3,0.0,0.0,12,45.0,30.0,3,0.451,1.0,139.803,0.0,0,2020-02-12 12:19:47.000,19,2020-02-12 12:22:03.334,0.25,-90,-180,-180,-90,1
11964,7,0,174.25599999999997,1,0,1,0.25,2,9,0.0,0.0,6,45.0,30.0,9,0.564,1.0,178.372,0.15,1,2020-02-12 12:19:47.000,19,2020-02-12 12:22:41.256,0.25,-90,0,0,-90,1
11965,8,0,180.357,1,0,1,0.25,2,3,0.0,0.0,12,45.0,30.0,3,0.488,0.0,183.909,0.19,1,2020-02-12 12:19:47.000,19,2020-02-12 12:22:47.357,0.25,90,-180,-180,90,1
11966,9,0,189.32,1,0,1,0.25,2,3,0.0,0.0,12,45.0,30.0,3,0.601,0.0,190.427,0.19,1,2020-02-12 12:19:47.000,19,2020-02-12 12:22:56.320,0.25,90,-180,-180,90,1
11967,10,0,192.833,1,0,1,0.25,2,9,0.0,0.0,6,45.0,30.0,9,0.451,1.0,193.56,0.15,1,2020-02-12 12:19:47.000,19,2020-02-12 12:22:59.833,0.25,-90,0,0,-90,1
11968,11,0,205.268,1,0,1,0.25,2,9,0.0,0.0,6,45.0,30.0,9,0.488,0.0,210.261,0.0,0,2020-02-12 12:19:47.000,19,2020-02-12 12:23:12.268,0.25,90,0,0,90,1
11969,13,0,219.52,1,0,1,0.25,2,3,0.0,0.0,12,45.0,30.0,3,0.564,0.0,223.471,0.19,1,2020-02-12 12:19:47.000,19,2020-02-12 12:23:26.520,0.25,90,-180,-180,90,1
11971,15,0,234.032,1,0,1,0.25,2,3,0.0,0.0,12,45.0,30.0,3,0.601,0.0,239.873,0.19,1,2020-02-12 12:19:47.000,19,2020-02-12 12:23:41.032,0.25,90,-180,-180,90,1
12378,1,0,17.840999999999994,0,180,1,0.25,2,9,0.0,0.0,12,45.0,30.0,9,0.701,0.0,19.244,0.0,0,2020-02-18 14:56:49.000,118,2020-02-18 14:57:06.841,0.25,90,-180,0,-90,1
12379,4,0,53.142,0,180,1,0.25,2,9,0.0,0.0,12,45.0,30.0,9,0.551,1.0,53.615,0.145,1,2020-02-18 14:56:49.000,118,2020-02-18 14:57:42.142,0.25,-90,-180,0,90,1
12380,5,0,60.174,0,180,1,0.25,2,3,0.0,0.0,6,45.0,30.0,3,0.626,1.0,60.419,0.0,0,2020-02-18 14:56:49.000,118,2020-02-18 14:57:49.174,0.25,-90,0,-180,90,1
12381,7,0,75.507,0,180,1,0.25,2,3,0.0,0.0,6,45.0,30.0,3,0.6629999999999999,0.0,76.079,0.155,1,2020-02-18 14:56:49.000,118,2020-02-18 14:58:04.507,0.25,90,0,-180,-90,1
12382,8,0,80.321,0,180,1,0.25,2,9,0.0,0.0,12,45.0,30.0,9,0.589,1.0,80.498,0.145,1,2020-02-18 14:56:49.000,118,2020-02-18 14:58:09.321,0.25,-90,-180,0,90,1
12383,9,0,87.678,0,180,1,0.25,2,3,0.0,0.0,6,45.0,30.0,3,0.626,1.0,87.943,0.0,0,2020-02-18 14:56:49.000,118,2020-02-18 14:58:16.678,0.25,-90,0,-180,90,1
12384,11,0,97.751,0,180,1,0.25,2,3,0.0,0.0,6,45.0,30.0,3,0.701,0.0,98.088,0.155,1,2020-02-18 14:56:49.000,118,2020-02-18 14:58:26.751,0.25,90,0,-180,-90,1
12385,12,0,102.5,0,180,1,0.25,2,3,0.0,0.0,6,45.0,30.0,3,0.551,0.0,102.967,0.155,1,2020-02-18 14:56:49.000,118,2020-02-18 14:58:31.500,0.25,90,0,-180,-90,1
12386,13,0,109.853,0,180,1,0.25,2,9,0.0,0.0,12,45.0,30.0,9,0.6629999999999999,0.0,110.557,0.0,0,2020-02-18 14:56:49.000,118,2020-02-18 14:58:38.853,0.25,90,-180,0,-90,1
12387,17,0,135.917,0,180,1,0.25,2,3,0.0,0.0,6,45.0,30.0,3,0.551,0.0,136.304,0.155,1,2020-02-18 14:56:49.000,118,2020-02-18 14:59:04.917,0.25,90,0,-180,-90,1
12649,1,0,41.37600000000001,0,-90,1,0.25,2,3,0.0,0.0,3,45.0,30.0,3,0.626,0.0,41.726000000000006,0.155,1,2020-02-20 07:46:34.000,104,2020-02-20 07:47:15.376,0.25,90,90,-180,-180,1
12650,2,0,69.061,0,-90,1,0.25,2,3,0.0,0.0,3,45.0,30.0,3,0.589,0.0,69.369,0.155,1,2020-02-20 07:46:34.000,104,2020-02-20 07:47:43.061,0.25,90,90,-180,-180,1
12651,3,0,76.229,0,-90,1,0.25,2,3,0.0,0.0,3,45.0,30.0,3,0.6629999999999999,0.0,76.626,0.155,1,2020-02-20 07:46:34.000,104,2020-02-20 07:47:50.229,0.25,90,90,-180,-180,1
12652,4,0,90.081,0,-90,1,0.25,2,3,0.0,0.0,3,45.0,30.0,3,0.701,1.0,90.43,0.0,0,2020-02-20 07:46:34.000,104,2020-02-20 07:48:04.081,0.25,-90,90,-180,0,1
12653,6,0,107.392,0,-90,1,0.25,2,3,0.0,0.0,3,45.0,30.0,3,0.701,0.0,107.762,0.155,1,2020-02-20 07:46:34.000,104,2020-02-20 07:48:21.392,0.25,90,90,-180,-180,1
12654,7,0,114.931,0,-90,1,0.25,2,9,0.0,0.0,9,45.0,30.0,9,0.589,1.0,115.505,0.145,1,2020-02-20 07:46:34.000,104,2020-02-20 07:48:28.931,0.25,-90,-90,0,0,1
12655,8,0,118.571,0,-90,1,0.25,2,9,0.0,0.0,9,45.0,30.0,9,0.6629999999999999,1.0,118.975,0.145,1,2020-02-20 07:46:34.000,104,2020-02-20 07:48:32.571,0.25,-90,-90,0,0,1
12656,9,0,122.574,0,-90,1,0.25,2,9,0.0,0.0,9,45.0,30.0,9,0.551,1.0,123.127,0.145,1,2020-02-20 07:46:34.000,104,2020-02-20 07:48:36.574,0.25,-90,-90,0,0,1
12657,10,0,126.366,0,-90,1,0.25,2,9,0.0,0.0,9,45.0,30.0,9,0.626,1.0,126.973,0.145,1,2020-02-20 07:46:34.000,104,2020-02-20 07:48:40.366,0.25,-90,-90,0,0,1
12658,11,0,130.357,0,-90,1,0.25,2,9,0.0,0.0,9,45.0,30.0,9,0.589,1.0,130.685,0.145,1,2020-02-20 07:46:34.000,104,2020-02-20 07:48:44.357,0.25,-90,-90,0,0,1
12746,1,0,16.115,0,90,1,0.25,2,9,0.0,0.0,3,45.0,30.0,9,0.701,0.0,17.908,0.0,0,2020-02-20 14:39:15.000,89,2020-02-20 14:39:31.115,0.25,90,90,0,0,1
12747,3,0,42.507,0,90,1,0.25,2,3,0.0,0.0,9,45.0,30.0,3,0.6629999999999999,1.0,42.859,0.0,0,2020-02-20 14:39:15.000,89,2020-02-20 14:39:57.507,0.25,-90,-90,-180,-180,1
12748,5,0,69.123,0,90,1,0.25,2,9,0.0,0.0,3,45.0,30.0,9,0.589,0.0,70.01,0.0,0,2020-02-20 14:39:15.000,89,2020-02-20 14:40:24.123,0.25,90,90,0,0,1
12749,7,0,98.832,0,90,1,0.25,2,3,0.0,0.0,9,45.0,30.0,3,0.589,0.0,99.657,0.155,1,2020-02-20 14:39:15.000,89,2020-02-20 14:40:53.832,0.25,90,-90,-180,0,1
12750,8,0,104.986,0,90,1,0.25,2,9,0.0,0.0,3,45.0,30.0,9,0.6629999999999999,1.0,105.159,0.145,1,2020-02-20 14:39:15.000,89,2020-02-20 14:40:59.986,0.25,-90,90,0,-180,1
12751,9,0,113.838,0,90,1,0.25,2,3,0.0,0.0,9,45.0,30.0,3,0.701,1.0,114.617,0.0,0,2020-02-20 14:39:15.000,89,2020-02-20 14:41:08.838,0.25,-90,-90,-180,-180,1
12752,11,0,124.166,0,90,1,0.25,2,3,0.0,0.0,9,45.0,30.0,3,0.589,0.0,124.974,0.155,1,2020-02-20 14:39:15.000,89,2020-02-20 14:41:19.166,0.25,90,-90,-180,0,1
12753,12,0,128.555,0,90,1,0.25,2,3,0.0,0.0,9,45.0,30.0,3,0.551,0.0,129.287,0.155,1,2020-02-20 14:39:15.000,89,2020-02-20 14:41:23.555,0.25,90,-90,-180,0,1
12754,13,0,135.416,0,90,1,0.25,2,3,0.0,0.0,9,45.0,30.0,3,0.626,0.0,135.971,0.155,1,2020-02-20 14:39:15.000,89,2020-02-20 14:41:30.416,0.25,90,-90,-180,0,1
12755,14,0,140.293,1,90,1,0.25,2,3,0.0,0.0,9,45.0,30.0,3,0.701,0.0,142.572,0.155,1,2020-02-20 14:39:15.000,89,2020-02-20 14:41:35.293,0.25,90,-90,-180,0,1
12873,1,0,12.487,0,-150,1,0.25,2,9,0.0,0.0,11,45.0,30.0,9,0.601,0.0,13.058,0.0,0,2020-02-21 09:03:56.000,236,2020-02-21 09:04:08.487,0.25,90,-150,0,-120,1
12874,3,0,23.176,0,-150,1,0.25,2,3,0.0,0.0,5,45.0,30.0,3,0.638,1.0,23.414,0.0,0,2020-02-21 09:03:56.000,236,2020-02-21 09:04:19.176,0.25,-90,30,-180,60,1
12875,5,0,44.635,0,-150,1,0.25,2,9,0.0,0.0,11,45.0,30.0,9,0.6759999999999999,0.0,45.747,0.0,0,2020-02-21 09:03:56.000,236,2020-02-21 09:04:40.635,0.25,90,-150,0,-120,1
12876,7,0,58.435,0,-150,1,0.25,2,9,0.0,0.0,11,45.0,30.0,9,0.7140000000000001,1.0,59.37600000000001,0.145,1,2020-02-21 09:03:56.000,236,2020-02-21 09:04:54.435,0.25,-90,-150,0,60,1
12877,8,0,62.567,0,-150,1,0.25,2,3,0.0,0.0,5,45.0,30.0,3,0.638,1.0,63.076,0.0,0,2020-02-21 09:03:56.000,236,2020-02-21 09:04:58.567,0.25,-90,30,-180,60,1
12878,10,0,84.956,0,-150,1,0.25,2,3,0.0,0.0,5,45.0,30.0,3,0.7509999999999999,0.0,85.344,0.155,1,2020-02-21 09:03:56.000,236,2020-02-21 09:05:20.956,0.25,90,30,-180,-120,1
12879,11,0,89.206,0,-150,1,0.25,2,3,0.0,0.0,5,45.0,30.0,3,0.601,0.0,90.115,0.155,1,2020-02-21 09:03:56.000,236,2020-02-21 09:05:25.206,0.25,90,30,-180,-120,1
12880,12,0,94.684,0,-150,1,0.25,2,9,0.0,0.0,11,45.0,30.0,9,0.7140000000000001,1.0,95.004,0.145,1,2020-02-21 09:03:56.000,236,2020-02-21 09:05:30.684,0.25,-90,-150,0,60,1
12881,13,0,100.344,0,-150,1,0.25,2,3,0.0,0.0,5,45.0,30.0,3,0.6759999999999999,1.0,100.894,0.0,0,2020-02-21 09:03:56.000,236,2020-02-21 09:05:36.344,0.25,-90,30,-180,60,1
12883,16,0,118.85,0,-150,1,0.25,2,3,0.0,0.0,5,45.0,30.0,3,0.7140000000000001,0.0,119.527,0.155,1,2020-02-21 09:03:56.000,236,2020-02-21 09:05:54.850,0.25,90,30,-180,-120,1
12970,1,0,23.052,0,60,1,0.25,2,9,0.0,0.0,4,45.0,30.0,9,0.6759999999999999,1.0,24.418000000000006,0.145,1,2020-02-21 14:31:04.000,35,2020-02-21 14:31:27.052,0.25,-90,60,0,-150,1
12971,2,0,30.385,0,60,1,0.25,2,3,0.0,0.0,10,45.0,30.0,3,0.601,1.0,30.891,0.0,0,2020-02-21 14:31:04.000,35,2020-02-21 14:31:34.385,0.25,-90,-120,-180,-150,1
12972,5,0,67.025,1,60,1,0.25,2,3,0.0,0.0,10,45.0,30.0,3,0.7509999999999999,0.0,69.807,0.155,1,2020-02-21 14:31:04.000,35,2020-02-21 14:32:11.025,0.25,90,-120,-180,30,1
12973,6,0,73.914,0,60,1,0.25,2,9,0.0,0.0,4,45.0,30.0,9,0.6759999999999999,0.0,74.983,0.0,0,2020-02-21 14:31:04.000,35,2020-02-21 14:32:17.914,0.25,90,60,0,30,1
12974,8,0,82.43799999999997,0,60,1,0.25,2,9,0.0,0.0,4,45.0,30.0,9,0.601,1.0,82.665,0.145,1,2020-02-21 14:31:04.000,35,2020-02-21 14:32:26.438,0.25,-90,60,0,-150,1
12975,9,0,103.749,0,60,1,0.25,2,3,0.0,0.0,10,45.0,30.0,3,0.638,0.0,104.253,0.155,1,2020-02-21 14:31:04.000,35,2020-02-21 14:32:47.749,0.25,90,-120,-180,30,1
12976,10,0,121.212,0,60,1,0.25,2,9,0.0,0.0,4,45.0,30.0,9,0.7509999999999999,1.0,121.433,0.145,1,2020-02-21 14:31:04.000,35,2020-02-21 14:33:05.212,0.25,-90,60,0,-150,1
12977,11,0,137.129,0,60,1,0.25,2,3,0.0,0.0,10,45.0,30.0,3,0.7509999999999999,1.0,137.494,0.0,0,2020-02-21 14:31:04.000,35,2020-02-21 14:33:21.129,0.25,-90,-120,-180,-150,1
12978,13,0,155.649,0,60,1,0.25,2,9,0.0,0.0,4,45.0,30.0,9,0.638,1.0,155.844,0.145,1,2020-02-21 14:31:04.000,35,2020-02-21 14:33:39.649,0.25,-90,60,0,-150,1
12979,14,0,159.512,0,60,1,0.25,2,3,0.0,0.0,10,45.0,30.0,3,0.601,1.0,159.859,0.0,0,2020-02-21 14:31:04.000,35,2020-02-21 14:33:43.512,0.25,-90,-120,-180,-150,1
13075,1,0,12.406,0,0,1,0.25,2,9,0.0,0.0,6,45.0,30.0,9,0.6759999999999999,1.0,12.617,0.145,1,2020-03-02 08:47:54.000,214,2020-03-02 08:48:06.406,0.25,-90,0,0,-90,1
13076,2,0,42.367,0,0,1,0.25,2,9,0.0,0.0,6,45.0,30.0,9,0.7509999999999999,0.0,42.74800000000001,0.0,0,2020-03-02 08:47:54.000,214,2020-03-02 08:48:36.367,0.25,90,0,0,90,1
13077,6,0,66.92699999999999,0,0,1,0.25,2,3,0.0,0.0,12,45.0,30.0,3,0.7509999999999999,0.0,68.132,0.155,1,2020-03-02 08:47:54.000,214,2020-03-02 08:49:00.927,0.25,90,-180,-180,90,1
13078,7,0,72.001,0,0,1,0.25,2,3,0.0,0.0,12,45.0,30.0,3,0.6759999999999999,0.0,72.292,0.155,1,2020-03-02 08:47:54.000,214,2020-03-02 08:49:06.001,0.25,90,-180,-180,90,1
13079,8,0,76.42699999999998,0,0,1,0.25,2,9,0.0,0.0,6,45.0,30.0,9,0.638,1.0,76.911,0.145,1,2020-03-02 08:47:54.000,214,2020-03-02 08:49:10.427,0.25,-90,0,0,-90,1
13080,9,0,79.738,0,0,1,0.25,2,9,0.0,0.0,6,45.0,30.0,9,0.601,1.0,79.985,0.145,1,2020-03-02 08:47:54.000,214,2020-03-02 08:49:13.738,0.25,-90,0,0,-90,1
13081,10,0,90.78,0,0,1,0.25,2,3,0.0,0.0,12,45.0,30.0,3,0.7140000000000001,0.0,91.324,0.155,1,2020-03-02 08:47:54.000,214,2020-03-02 08:49:24.780,0.25,90,-180,-180,90,1
13082,11,0,99.48,0,0,1,0.25,2,3,0.0,0.0,12,45.0,30.0,3,0.7509999999999999,1.0,99.644,0.0,0,2020-03-02 08:47:54.000,214,2020-03-02 08:49:33.480,0.25,-90,-180,-180,-90,1
13083,13,0,111.848,0,0,1,0.25,2,9,0.0,0.0,6,45.0,30.0,9,0.601,0.0,112.445,0.0,0,2020-03-02 08:47:54.000,214,2020-03-02 08:49:45.848,0.25,90,0,0,90,1
13084,15,0,120.829,0,0,1,0.25,2,3,0.0,0.0,12,45.0,30.0,3,0.638,0.0,121.272,0.155,1,2020-03-02 08:47:54.000,214,2020-03-02 08:49:54.829,0.25,90,-180,-180,90,1
13528,1,0,37.238,0,30,1,0.25,2,9,0.0,0.0,5,45.0,30.0,9,0.614,1.0,37.398,0.145,1,2020-03-04 07:38:18.000,149,2020-03-04 07:38:55.238,0.25,-90,30,0,-120,1
13529,2,0,41.429,0,30,1,0.25,2,3,0.0,0.0,11,45.0,30.0,3,0.501,0.0,42.165,0.155,1,2020-03-04 07:38:18.000,149,2020-03-04 07:38:59.429,0.25,90,-150,-180,60,1
13530,3,0,46.399,0,30,1,0.25,2,9,0.0,0.0,5,45.0,30.0,9,0.5760000000000001,0.0,47.144,0.0,0,2020-03-04 07:38:18.000,149,2020-03-04 07:39:04.399,0.25,90,30,0,60,1
13531,5,0,56.465,0,30,1,0.25,2,3,0.0,0.0,11,45.0,30.0,3,0.5379999999999999,0.0,57.26,0.155,1,2020-03-04 07:38:18.000,149,2020-03-04 07:39:14.465,0.25,90,-150,-180,60,1
13532,6,0,61.506,0,30,1,0.25,2,3,0.0,0.0,11,45.0,30.0,3,0.501,0.0,61.929,0.155,1,2020-03-04 07:38:18.000,149,2020-03-04 07:39:19.506,0.25,90,-150,-180,60,1
13533,7,0,66.281,0,30,1,0.25,2,3,0.0,0.0,11,45.0,30.0,3,0.6509999999999999,1.0,66.73100000000001,0.0,0,2020-03-04 07:38:18.000,149,2020-03-04 07:39:24.281,0.25,-90,-150,-180,-120,1
13534,9,0,84.18799999999997,0,30,1,0.25,2,3,0.0,0.0,11,45.0,30.0,3,0.614,0.0,84.665,0.155,1,2020-03-04 07:38:18.000,149,2020-03-04 07:39:42.188,0.25,90,-150,-180,60,1
13535,10,0,88.495,0,30,1,0.25,2,3,0.0,0.0,11,45.0,30.0,3,0.5760000000000001,0.0,89.109,0.155,1,2020-03-04 07:38:18.000,149,2020-03-04 07:39:46.495,0.25,90,-150,-180,60,1
13536,11,0,92.404,0,30,1,0.25,2,9,0.0,0.0,5,45.0,30.0,9,0.5760000000000001,1.0,92.557,0.145,1,2020-03-04 07:38:18.000,149,2020-03-04 07:39:50.404,0.25,-90,30,0,-120,1
13537,12,0,95.9,0,30,1,0.25,2,9,0.0,0.0,5,45.0,30.0,9,0.6509999999999999,1.0,96.131,0.145,1,2020-03-04 07:38:18.000,149,2020-03-04 07:39:53.900,0.25,-90,30,0,-120,1
13661,1,0,28.782,0,-60,1,0.25,2,9,0.0,0.0,8,45.0,30.0,9,0.5760000000000001,1.0,30.195,0.145,1,2020-03-04 14:23:01.000,32,2020-03-04 14:23:29.782,0.25,-90,-60,0,-30,1
13662,2,0,46.679,0,-60,1,0.25,2,9,0.0,0.0,8,45.0,30.0,9,0.6509999999999999,0.0,47.301,0.0,0,2020-03-04 14:23:01.000,32,2020-03-04 14:23:47.679,0.25,90,-60,0,150,1
13663,4,0,61.113,0,-60,1,0.25,2,3,0.0,0.0,2,45.0,30.0,3,0.5379999999999999,0.0,62.489,0.155,1,2020-03-04 14:23:01.000,32,2020-03-04 14:24:02.113,0.25,90,120,-180,150,1
13664,5,0,87.794,0,-60,1,0.25,2,3,0.0,0.0,2,45.0,30.0,3,0.614,1.0,88.056,0.0,0,2020-03-04 14:23:01.000,32,2020-03-04 14:24:28.794,0.25,-90,120,-180,-30,1
13665,7,0,97.813,0,-60,1,0.25,2,9,0.0,0.0,8,45.0,30.0,9,0.5760000000000001,1.0,98.226,0.145,1,2020-03-04 14:23:01.000,32,2020-03-04 14:24:38.813,0.25,-90,-60,0,-30,1
13666,8,0,101.443,0,-60,1,0.25,2,9,0.0,0.0,8,45.0,30.0,9,0.5379999999999999,1.0,101.894,0.145,1,2020-03-04 14:23:01.000,32,2020-03-04 14:24:42.443,0.25,-90,-60,0,-30,1
13667,9,0,105.413,0,-60,1,0.25,2,3,0.0,0.0,2,45.0,30.0,3,0.501,1.0,105.761,0.0,0,2020-03-04 14:23:01.000,32,2020-03-04 14:24:46.413,0.25,-90,120,-180,-30,1
13668,11,0,119.961,0,-60,1,0.25,2,3,0.0,0.0,2,45.0,30.0,3,0.6509999999999999,0.0,120.345,0.155,1,2020-03-04 14:23:01.000,32,2020-03-04 14:25:00.961,0.25,90,120,-180,150,1
13669,12,0,124.227,0,-60,1,0.25,2,9,0.0,0.0,8,45.0,30.0,9,0.614,1.0,124.642,0.145,1,2020-03-04 14:23:01.000,32,2020-03-04 14:25:05.227,0.25,-90,-60,0,-30,1
13670,13,0,127.519,0,-60,1,0.25,2,3,0.0,0.0,2,45.0,30.0,3,0.501,1.0,127.795,0.0,0,2020-03-04 14:23:01.000,32,2020-03-04 14:25:08.519,0.25,-90,120,-180,-30,1
13785,1,0,18.029,0,-120,1,0.25,2,9,0.0,0.0,10,45.0,30.0,9,0.501,1.0,19.24,0.145,1,2020-03-05 09:12:40.000,47,2020-03-05 09:12:58.029,0.25,-90,-120,0,30,1
13786,2,0,22.512,0,-120,1,0.25,2,9,0.0,0.0,10,45.0,30.0,9,0.614,0.0,22.748,0.0,0,2020-03-05 09:12:40.000,47,2020-03-05 09:13:02.512,0.25,90,-120,0,-150,1
13787,4,0,42.984,0,-120,1,0.25,2,3,0.0,0.0,4,45.0,30.0,3,0.5379999999999999,0.0,44.097,0.155,1,2020-03-05 09:12:40.000,47,2020-03-05 09:13:22.984,0.25,90,60,-180,-150,1
13788,5,0,50.197,0,-120,1,0.25,2,9,0.0,0.0,10,45.0,30.0,9,0.6509999999999999,1.0,50.6,0.145,1,2020-03-05 09:12:40.000,47,2020-03-05 09:13:30.197,0.25,-90,-120,0,30,1
13789,6,0,58.592,0,-120,1,0.25,2,9,0.0,0.0,10,45.0,30.0,9,0.6509999999999999,1.0,59.253,0.145,1,2020-03-05 09:12:40.000,47,2020-03-05 09:13:38.592,0.25,-90,-120,0,30,1
13790,7,0,66.899,0,-120,1,0.25,2,3,0.0,0.0,4,45.0,30.0,3,0.5760000000000001,0.0,67.283,0.155,1,2020-03-05 09:12:40.000,47,2020-03-05 09:13:46.899,0.25,90,60,-180,-150,1
13791,8,0,71.482,0,-120,1,0.25,2,9,0.0,0.0,10,45.0,30.0,9,0.501,0.0,71.99600000000002,0.0,0,2020-03-05 09:12:40.000,47,2020-03-05 09:13:51.482,0.25,90,-120,0,-150,1
13792,11,0,92.475,0,-120,1,0.25,2,9,0.0,0.0,10,45.0,30.0,9,0.5379999999999999,1.0,93.198,0.145,1,2020-03-05 09:12:40.000,47,2020-03-05 09:14:12.475,0.25,-90,-120,0,30,1
13793,12,0,96.941,0,-120,1,0.25,2,3,0.0,0.0,4,45.0,30.0,3,0.614,1.0,97.384,0.0,0,2020-03-05 09:12:40.000,47,2020-03-05 09:14:16.941,0.25,-90,60,-180,30,1
13794,16,0,117.58,0,-120,1,0.25,2,9,0.0,0.0,10,45.0,30.0,9,0.501,1.0,118.077,0.145,1,2020-03-05 09:12:40.000,47,2020-03-05 09:14:37.580,0.25,-90,-120,0,30,1
13909,1,0,36.225,0,90,1,0.25,2,9,0.0,0.0,3,45.0,30.0,9,0.5379999999999999,0.0,37.479,0.0,0,2020-03-05 15:32:28.000,148,2020-03-05 15:33:04.225,0.25,90,90,0,0,1
13910,4,0,56.595,0,90,1,0.25,2,3,0.0,0.0,9,45.0,30.0,3,0.6509999999999999,0.0,57.157,0.155,1,2020-03-05 15:32:28.000,148,2020-03-05 15:33:24.595,0.25,90,-90,-180,0,1
13911,5,0,64.158,0,90,1,0.25,2,9,0.0,0.0,3,45.0,30.0,9,0.5760000000000001,1.0,64.49600000000001,0.145,1,2020-03-05 15:32:28.000,148,2020-03-05 15:33:32.158,0.25,-90,90,0,-180,1
13912,6,0,67.631,0,90,1,0.25,2,3,0.0,0.0,9,45.0,30.0,3,0.614,0.0,67.98100000000001,0.155,1,2020-03-05 15:32:28.000,148,2020-03-05 15:33:35.631,0.25,90,-90,-180,0,1
13913,7,0,77.111,0,90,1,0.25,2,3,0.0,0.0,9,45.0,30.0,3,0.5760000000000001,1.0,77.648,0.0,0,2020-03-05 15:32:28.000,148,2020-03-05 15:33:45.111,0.25,-90,-90,-180,-180,1
13914,10,0,102.792,0,90,1,0.25,2,9,0.0,0.0,3,45.0,30.0,9,0.501,0.0,103.426,0.0,0,2020-03-05 15:32:28.000,148,2020-03-05 15:34:10.792,0.25,90,90,0,0,1
13915,12,0,119.018,0,90,1,0.25,2,3,0.0,0.0,9,45.0,30.0,3,0.501,1.0,119.6,0.0,0,2020-03-05 15:32:28.000,148,2020-03-05 15:34:27.018,0.25,-90,-90,-180,-180,1
13916,14,0,140.536,0,90,1,0.25,2,9,0.0,0.0,3,45.0,30.0,9,0.614,0.0,141.15200000000004,0.0,0,2020-03-05 15:32:28.000,148,2020-03-05 15:34:48.536,0.25,90,90,0,0,1
13917,16,0,152.094,0,90,1,0.25,2,3,0.0,0.0,9,45.0,30.0,3,0.5379999999999999,0.0,152.763,0.155,1,2020-03-05 15:32:28.000,148,2020-03-05 15:35:00.094,0.25,90,-90,-180,0,1
13918,17,0,159.73,1,90,1,0.25,2,3,0.0,0.0,9,45.0,30.0,3,0.6509999999999999,0.0,161.879,0.155,1,2020-03-05 15:32:28.000,148,2020-03-05 15:35:07.730,0.25,90,-90,-180,0,1
14010,1,0,13.082,0,150,1,0.25,2,9,0.0,0.0,1,45.0,30.0,9,0.6509999999999999,0.0,13.594,0.0,0,2020-03-06 09:01:50.000,141,2020-03-06 09:02:03.082,0.25,90,150,0,-60,1
14011,3,0,36.058,0,150,1,0.25,2,3,0.0,0.0,7,45.0,30.0,3,0.501,1.0,36.663,0.0,0,2020-03-06 09:01:50.000,141,2020-03-06 09:02:26.058,0.25,-90,-30,-180,120,1
14012,5,0,46.863,0,150,1,0.25,2,9,0.0,0.0,1,45.0,30.0,9,0.5379999999999999,1.0,47.133,0.145,1,2020-03-06 09:01:50.000,141,2020-03-06 09:02:36.863,0.25,-90,150,0,120,1
14013,6,0,49.853,0,150,1,0.25,2,3,0.0,0.0,7,45.0,30.0,3,0.501,1.0,50.505,0.0,0,2020-03-06 09:01:50.000,141,2020-03-06 09:02:39.853,0.25,-90,-30,-180,120,1
14014,8,0,64.332,0,150,1,0.25,2,3,0.0,0.0,7,45.0,30.0,3,0.5379999999999999,0.0,64.63600000000001,0.155,1,2020-03-06 09:01:50.000,141,2020-03-06 09:02:54.332,0.25,90,-30,-180,-60,1
14015,9,0,68.086,0,150,1,0.25,2,3,0.0,0.0,7,45.0,30.0,3,0.6509999999999999,0.0,68.786,0.155,1,2020-03-06 09:01:50.000,141,2020-03-06 09:02:58.086,0.25,90,-30,-180,-60,1
14016,10,0,71.939,0,150,1,0.25,2,3,0.0,0.0,7,45.0,30.0,3,0.5760000000000001,1.0,72.678,0.0,0,2020-03-06 09:01:50.000,141,2020-03-06 09:03:01.939,0.25,-90,-30,-180,120,1
14017,13,0,96.939,0,150,1,0.25,2,9,0.0,0.0,1,45.0,30.0,9,0.501,0.0,97.532,0.0,0,2020-03-06 09:01:50.000,141,2020-03-06 09:03:26.939,0.25,90,150,0,-60,1
14019,16,0,122.623,0,150,1,0.25,2,3,0.0,0.0,7,45.0,30.0,3,0.614,0.0,123.045,0.155,1,2020-03-06 09:01:50.000,141,2020-03-06 09:03:52.623,0.25,90,-30,-180,-60,1
14021,18,0,134.3,0,150,1,0.25,2,9,0.0,0.0,1,45.0,30.0,9,0.6509999999999999,1.0,134.686,0.145,1,2020-03-06 09:01:50.000,141,2020-03-06 09:04:04.300,0.25,-90,150,0,120,1
14089,1,0,32.192,0,-60,1,0.25,2,3,0.0,0.0,2,45.0,30.0,3,0.5760000000000001,1.0,33.736999999999995,0.0,0,2020-03-06 14:54:16.000,210,2020-03-06 14:54:48.192,0.25,-90,120,-180,-30,1
14090,3,0,56.45,0,-60,1,0.25,2,9,0.0,0.0,8,45.0,30.0,9,0.6509999999999999,0.0,56.71,0.0,0,2020-03-06 14:54:16.000,210,2020-03-06 14:55:12.450,0.25,90,-60,0,150,1
14091,6,0,82.999,0,-60,1,0.25,2,3,0.0,0.0,2,45.0,30.0,3,0.6509999999999999,0.0,83.396,0.155,1,2020-03-06 14:54:16.000,210,2020-03-06 14:55:38.999,0.25,90,120,-180,150,1
14092,7,0,86.806,0,-60,1,0.25,2,3,0.0,0.0,2,45.0,30.0,3,0.5760000000000001,0.0,87.16799999999998,0.155,1,2020-03-06 14:54:16.000,210,2020-03-06 14:55:42.806,0.25,90,120,-180,150,1
14093,8,0,90.184,0,-60,1,0.25,2,9,0.0,0.0,8,45.0,30.0,9,0.501,1.0,90.578,0.145,1,2020-03-06 14:54:16.000,210,2020-03-06 14:55:46.184,0.25,-90,-60,0,-30,1
14094,9,0,93.66,0,-60,1,0.25,2,3,0.0,0.0,2,45.0,30.0,3,0.5379999999999999,0.0,94.16,0.155,1,2020-03-06 14:54:16.000,210,2020-03-06 14:55:49.660,0.25,90,120,-180,150,1
14095,10,0,104.913,0,-60,1,0.25,2,3,0.0,0.0,2,45.0,30.0,3,0.614,0.0,105.725,0.155,1,2020-03-06 14:54:16.000,210,2020-03-06 14:56:00.913,0.25,90,120,-180,150,1
14096,11,0,109.308,0,-60,1,0.25,2,9,0.0,0.0,8,45.0,30.0,9,0.6509999999999999,1.0,109.496,0.145,1,2020-03-06 14:54:16.000,210,2020-03-06 14:56:05.308,0.25,-90,-60,0,-30,1
14097,12,0,113.017,1,-60,1,0.25,2,9,0.0,0.0,8,45.0,30.0,9,0.501,0.0,116.324,0.0,0,2020-03-06 14:54:16.000,210,2020-03-06 14:56:09.017,0.25,90,-60,0,150,1
14098,14,0,135.144,0,-60,1,0.25,2,3,0.0,0.0,2,45.0,30.0,3,0.5760000000000001,0.0,135.43200000000002,0.155,1,2020-03-06 14:54:16.000,210,2020-03-06 14:56:31.144,0.25,90,120,-180,150,1
14218,1,0,25.29,0,0,1,0.25,2,9,0.0,0.0,6,45.0,30.0,9,0.5760000000000001,1.0,26.375,0.145,1,2020-03-16 09:00:48.000,155,2020-03-16 09:01:13.290,0.25,-90,0,0,-90,1
14219,2,0,30.245,0,0,1,0.25,2,9,0.0,0.0,6,45.0,30.0,9,0.6509999999999999,0.0,30.726,0.0,0,2020-03-16 09:00:48.000,155,2020-03-16 09:01:18.245,0.25,90,0,0,90,1
14220,4,0,50.197,0,0,1,0.25,2,3,0.0,0.0,12,45.0,30.0,3,0.5379999999999999,0.0,50.77,0.155,1,2020-03-16 09:00:48.000,155,2020-03-16 09:01:38.197,0.25,90,-180,-180,90,1
14221,5,0,56.914,0,0,1,0.25,2,3,0.0,0.0,12,45.0,30.0,3,0.614,0.0,57.279,0.155,1,2020-03-16 09:00:48.000,155,2020-03-16 09:01:44.914,0.25,90,-180,-180,90,1
14222,6,0,66.093,0,0,1,0.25,2,9,0.0,0.0,6,45.0,30.0,9,0.6509999999999999,1.0,66.39699999999999,0.145,1,2020-03-16 09:00:48.000,155,2020-03-16 09:01:54.093,0.25,-90,0,0,-90,1
14223,7,0,69.661,0,0,1,0.25,2,9,0.0,0.0,6,45.0,30.0,9,0.5760000000000001,1.0,69.941,0.145,1,2020-03-16 09:00:48.000,155,2020-03-16 09:01:57.661,0.25,-90,0,0,-90,1
14224,8,0,72.946,0,0,1,0.25,2,3,0.0,0.0,12,45.0,30.0,3,0.5379999999999999,0.0,73.391,0.155,1,2020-03-16 09:00:48.000,155,2020-03-16 09:02:00.946,0.25,90,-180,-180,90,1
14225,9,0,77.321,0,0,1,0.25,2,3,0.0,0.0,12,45.0,30.0,3,0.501,0.0,77.896,0.155,1,2020-03-16 09:00:48.000,155,2020-03-16 09:02:05.321,0.25,90,-180,-180,90,1
14226,10,0,86.065,0,0,1,0.25,2,9,0.0,0.0,6,45.0,30.0,9,0.614,1.0,86.413,0.145,1,2020-03-16 09:00:48.000,155,2020-03-16 09:02:14.065,0.25,-90,0,0,-90,1
14227,11,0,88.976,0,0,1,0.25,2,3,0.0,0.0,12,45.0,30.0,3,0.6509999999999999,0.0,89.56200000000003,0.155,1,2020-03-16 09:00:48.000,155,2020-03-16 09:02:16.976,0.25,90,-180,-180,90,1
14371,1,0,32.029,0,60,1,0.25,2,9,0.0,0.0,4,45.0,30.0,9,0.614,1.0,32.259,0.145,1,2020-03-16 14:56:39.000,240,2020-03-16 14:57:11.029,0.25,-90,60,0,-150,1
14372,2,0,46.614,0,60,1,0.25,2,9,0.0,0.0,4,45.0,30.0,9,0.5379999999999999,1.0,47.159,0.145,1,2020-03-16 14:56:39.000,240,2020-03-16 14:57:25.614,0.25,-90,60,0,-150,1
14373,3,0,50.041,0,60,1,0.25,2,3,0.0,0.0,10,45.0,30.0,3,0.5760000000000001,0.0,50.931,0.155,1,2020-03-16 14:56:39.000,240,2020-03-16 14:57:29.041,0.25,90,-120,-180,30,1
14374,4,0,52.713,0,60,1,0.25,2,9,0.0,0.0,4,45.0,30.0,9,0.6509999999999999,0.0,53.39,0.0,0,2020-03-16 14:56:39.000,240,2020-03-16 14:57:31.713,0.25,90,60,0,30,1
14375,6,0,68.635,0,60,1,0.25,2,9,0.0,0.0,4,45.0,30.0,9,0.501,1.0,69.233,0.145,1,2020-03-16 14:56:39.000,240,2020-03-16 14:57:47.635,0.25,-90,60,0,-150,1
14376,7,0,72.357,0,60,1,0.25,2,9,0.0,0.0,4,45.0,30.0,9,0.5379999999999999,1.0,72.583,0.145,1,2020-03-16 14:56:39.000,240,2020-03-16 14:57:51.357,0.25,-90,60,0,-150,1
14377,8,0,75.765,0,60,1,0.25,2,3,0.0,0.0,10,45.0,30.0,3,0.5760000000000001,0.0,76.238,0.155,1,2020-03-16 14:56:39.000,240,2020-03-16 14:57:54.765,0.25,90,-120,-180,30,1
14378,9,0,81.941,0,60,1,0.25,2,3,0.0,0.0,10,45.0,30.0,3,0.614,0.0,82.23100000000002,0.155,1,2020-03-16 14:56:39.000,240,2020-03-16 14:58:00.941,0.25,90,-120,-180,30,1
14379,10,0,86.146,0,60,1,0.25,2,9,0.0,0.0,4,45.0,30.0,9,0.6509999999999999,1.0,87.03,0.145,1,2020-03-16 14:56:39.000,240,2020-03-16 14:58:05.146,0.25,-90,60,0,-150,1
14380,11,0,89.62799999999999,0,60,1,0.25,2,3,0.0,0.0,10,45.0,30.0,3,0.501,1.0,89.932,0.0,0,2020-03-16 14:56:39.000,240,2020-03-16 14:58:08.628,0.25,-90,-120,-180,-150,1
14472,1,0,26.072,0,-60,1,0.25,2,9,0.0,0.0,8,45.0,30.0,9,0.5760000000000001,1.0,26.299,0.145,1,2020-03-17 09:05:15.000,120,2020-03-17 09:05:41.072,0.25,-90,-60,0,-30,1
14473,2,0,40.837,0,-60,1,0.25,2,3,0.0,0.0,2,45.0,30.0,3,0.501,0.0,41.173,0.155,1,2020-03-17 09:05:15.000,120,2020-03-17 09:05:55.837,0.25,90,120,-180,150,1
14474,3,0,47.473,0,-60,1,0.25,2,3,0.0,0.0,2,45.0,30.0,3,0.5379999999999999,0.0,47.908,0.155,1,2020-03-17 09:05:15.000,120,2020-03-17 09:06:02.473,0.25,90,120,-180,150,1
14475,4,0,56.908,0,-60,1,0.25,2,3,0.0,0.0,2,45.0,30.0,3,0.614,0.0,57.122,0.155,1,2020-03-17 09:05:15.000,120,2020-03-17 09:06:11.908,0.25,90,120,-180,150,1
14476,5,0,66.896,0,-60,1,0.25,2,9,0.0,0.0,8,45.0,30.0,9,0.6509999999999999,0.0,67.383,0.0,0,2020-03-17 09:05:15.000,120,2020-03-17 09:06:21.896,0.25,90,-60,0,150,1
14477,8,0,88.189,0,-60,1,0.25,2,3,0.0,0.0,2,45.0,30.0,3,0.5379999999999999,0.0,88.527,0.155,1,2020-03-17 09:05:15.000,120,2020-03-17 09:06:43.189,0.25,90,120,-180,150,1
14478,9,0,92.415,0,-60,1,0.25,2,3,0.0,0.0,2,45.0,30.0,3,0.5760000000000001,0.0,93.089,0.155,1,2020-03-17 09:05:15.000,120,2020-03-17 09:06:47.415,0.25,90,120,-180,150,1
14479,10,0,96.875,0,-60,1,0.25,2,9,0.0,0.0,8,45.0,30.0,9,0.614,0.0,97.339,0.0,0,2020-03-17 09:05:15.000,120,2020-03-17 09:06:51.875,0.25,90,-60,0,150,1
14480,12,0,106.101,0,-60,1,0.25,2,3,0.0,0.0,2,45.0,30.0,3,0.6509999999999999,0.0,106.593,0.155,1,2020-03-17 09:05:15.000,120,2020-03-17 09:07:01.101,0.25,90,120,-180,150,1
14481,13,0,110.141,1,-60,1,0.25,2,3,0.0,0.0,2,45.0,30.0,3,0.501,0.0,112.632,0.155,1,2020-03-17 09:05:15.000,120,2020-03-17 09:07:05.141,0.25,90,120,-180,150,1
14757,1,0,169.283,0,120,1,0.25,2,9,0.0,0.0,2,45.0,30.0,9,0.5760000000000001,0.0,170.793,0.0,0,2020-03-18 14:41:41.000,216,2020-03-18 14:44:30.283,0.25,90,120,0,-30,1
14758,3,0,187.535,0,120,1,0.25,2,9,0.0,0.0,2,45.0,30.0,9,0.6509999999999999,0.0,187.864,0.0,0,2020-03-18 14:41:41.000,216,2020-03-18 14:44:48.535,0.25,90,120,0,-30,1
14759,5,0,196.239,1,120,1,0.25,2,3,0.0,0.0,8,45.0,30.0,3,0.501,1.0,199.688,0.0,0,2020-03-18 14:41:41.000,216,2020-03-18 14:44:57.239,0.25,-90,-60,-180,150,1
14760,7,0,213.141,0,120,1,0.25,2,9,0.0,0.0,2,45.0,30.0,9,0.5379999999999999,1.0,213.479,0.145,1,2020-03-18 14:41:41.000,216,2020-03-18 14:45:14.141,0.25,-90,120,0,150,1
14761,8,0,217.18400000000003,0,120,1,0.25,2,3,0.0,0.0,8,45.0,30.0,3,0.6509999999999999,1.0,217.516,0.0,0,2020-03-18 14:41:41.000,216,2020-03-18 14:45:18.184,0.25,-90,-60,-180,150,1
14762,11,0,236.875,0,120,1,0.25,2,9,0.0,0.0,2,45.0,30.0,9,0.6509999999999999,1.0,237.234,0.145,1,2020-03-18 14:41:41.000,216,2020-03-18 14:45:37.875,0.25,-90,120,0,150,1
14763,12,0,240.702,0,120,1,0.25,2,9,0.0,0.0,2,45.0,30.0,9,0.5760000000000001,1.0,241.075,0.145,1,2020-03-18 14:41:41.000,216,2020-03-18 14:45:41.702,0.25,-90,120,0,150,1
14764,13,0,244.347,0,120,1,0.25,2,9,0.0,0.0,2,45.0,30.0,9,0.5379999999999999,0.0,244.861,0.0,0,2020-03-18 14:41:41.000,216,2020-03-18 14:45:45.347,0.25,90,120,0,-30,1
14765,15,0,254.027,0,120,1,0.25,2,9,0.0,0.0,2,45.0,30.0,9,0.614,1.0,254.539,0.145,1,2020-03-18 14:41:41.000,216,2020-03-18 14:45:55.027,0.25,-90,120,0,150,1
14766,16,0,257.774,0,120,1,0.25,2,9,0.0,0.0,2,45.0,30.0,9,0.5760000000000001,1.0,258.157,0.145,1,2020-03-18 14:41:41.000,216,2020-03-18 14:45:58.774,0.25,-90,120,0,150,1
14900,1,0,20.418,1,30,1,0.25,2,3,0.0,0.0,11,45.0,30.0,3,0.614,0.0,23.269,0.155,1,2020-03-19 08:46:16.000,72,2020-03-19 08:46:36.418,0.25,90,-150,-180,60,1
14901,2,0,28.527,0,30,1,0.25,2,9,0.0,0.0,5,45.0,30.0,9,0.501,1.0,28.952,0.145,1,2020-03-19 08:46:16.000,72,2020-03-19 08:46:44.527,0.25,-90,30,0,-120,1
14902,3,0,31.745,0,30,1,0.25,2,3,0.0,0.0,11,45.0,30.0,3,0.5379999999999999,0.0,32.474000000000004,0.155,1,2020-03-19 08:46:16.000,72,2020-03-19 08:46:47.745,0.25,90,-150,-180,60,1
14903,4,0,34.955,0,30,1,0.25,2,3,0.0,0.0,11,45.0,30.0,3,0.5760000000000001,0.0,35.759,0.155,1,2020-03-19 08:46:16.000,72,2020-03-19 08:46:50.955,0.25,90,-150,-180,60,1
14904,5,0,41.74,0,30,1,0.25,2,3,0.0,0.0,11,45.0,30.0,3,0.6509999999999999,0.0,42.306,0.155,1,2020-03-19 08:46:16.000,72,2020-03-19 08:46:57.740,0.25,90,-150,-180,60,1
14905,6,0,46.451,0,30,1,0.25,2,3,0.0,0.0,11,45.0,30.0,3,0.614,1.0,46.682,0.0,0,2020-03-19 08:46:16.000,72,2020-03-19 08:47:02.451,0.25,-90,-150,-180,-120,1
14906,9,0,78.403,0,30,1,0.25,2,3,0.0,0.0,11,45.0,30.0,3,0.5760000000000001,1.0,78.757,0.0,0,2020-03-19 08:46:16.000,72,2020-03-19 08:47:34.403,0.25,-90,-150,-180,-120,1
