,Trial,CorrectionTrial,StartTime,CenterReward,CenterSpoutRotation,nStimReps,Duration,Modality,LED Location,LED_trial_V,LED_bgnd_V,Speaker Location,Speaker_trial_V,Speaker_bgnd_V,TargetSpout,HoldTime,Response,RespTime,ValveTime,Correct,SessionDate,SessionID,StartDateTime,StimulusTotalDuration,response_angle_world,speaker_angle_world,speaker_angle_platform,response_angle_platform,not_probe
367,143,0,2389.51,0,180,1,0.25,2,9,0.0,0.0,11,48.0,30.0,9,0.476,1.0,2391.966,0.19,1,2020-03-20 10:30:01.000,44,2020-03-20 11:09:50.510,0.25,-90,-150,30,90,1
368,144,0,2410.407,0,180,1,0.25,2,9,0.0,0.0,11,48.0,30.0,9,0.476,1.0,2412.7670000000007,0.19,1,2020-03-20 10:30:01.000,44,2020-03-20 11:10:11.407,0.25,-90,-150,30,90,1
369,145,0,2429.071,0,180,1,0.25,2,3,0.0,0.0,5,48.0,30.0,3,0.451,0.0,0.0,0.12,1,2020-03-20 10:30:01.000,44,2020-03-20 11:10:30.071,0.25,90,30,-150,-90,1
370,146,0,2438.828,0,180,1,0.25,2,9,0.0,0.0,11,48.0,30.0,9,0.551,1.0,2440.98,0.19,1,2020-03-20 10:30:01.000,44,2020-03-20 11:10:39.828,0.25,-90,-150,30,90,1
371,147,0,2468.827,0,180,1,0.25,2,9,0.0,0.0,11,48.0,30.0,9,0.526,1.0,2470.724,0.19,1,2020-03-20 10:30:01.000,44,2020-03-20 11:11:09.827,0.25,-90,-150,30,90,1
372,148,0,2485.565,0,180,1,0.25,2,3,0.0,0.0,5,48.0,30.0,3,0.501,0.0,0.0,0.12,1,2020-03-20 10:30:01.000,44,2020-03-20 11:11:26.565,0.25,90,30,-150,-90,1
373,149,0,2513.552,0,180,1,0.25,2,3,0.0,0.0,5,48.0,30.0,3,0.501,1.0,2516.916,0.0,0,2020-03-20 10:30:01.000,44,2020-03-20 11:11:54.552,0.25,-90,30,-150,90,1
374,151,0,2534.62,0,180,1,0.25,2,3,0.0,0.0,5,48.0,30.0,3,0.526,0.0,0.0,0.12,1,2020-03-20 10:30:01.000,44,2020-03-20 11:12:15.620,0.25,90,30,-150,-90,1
375,152,0,2544.113,0,180,1,0.25,2,3,0.0,0.0,5,48.0,30.0,3,0.476,0.0,0.0,0.12,1,2020-03-20 10:30:01.000,44,2020-03-20 11:12:25.113,0.25,90,30,-150,-90,1
376,153,0,2558.427,0,180,1,0.25,2,3,0.0,0.0,5,48.0,30.0,3,0.551,1.0,2570.197,0.0,0,2020-03-20 10:30:01.000,44,2020-03-20 11:12:39.427,0.25,-90,30,-150,90,1
453,102,0,1753.848,1,0,1,0.25,2,3,0.0,0.0,5,48.0,30.0,3,0.551,0.0,0.0,0.12,1,2020-03-20 15:30:39.000,94,2020-03-20 15:59:52.848,0.25,90,30,30,90,1
454,103,0,1769.124,0,0,1,0.25,2,3,0.0,0.0,5,48.0,30.0,3,0.451,1.0,1774.344,0.0,0,2020-03-20 15:30:39.000,94,2020-03-20 16:00:08.124,0.25,-90,30,30,-90,1
455,105,0,1808.533,0,0,1,0.25,2,3,0.0,0.0,5,48.0,30.0,3,0.476,1.0,1812.285,0.0,0,2020-03-20 15:30:39.000,94,2020-03-20 16:00:47.533,0.25,-90,30,30,-90,1
456,107,0,1859.63,0,0,1,0.25,2,9,0.0,0.0,11,48.0,30.0,9,0.501,0.0,0.0,0.0,0,2020-03-20 15:30:39.000,94,2020-03-20 16:01:38.630,0.25,90,-150,-150,90,1
457,109,0,1925.196,0,0,1,0.25,2,9,0.0,0.0,11,48.0,30.0,9,0.551,1.0,1928.84,0.19,1,2020-03-20 15:30:39.000,94,2020-03-20 16:02:44.196,0.25,-90,-150,-150,-90,1
458,110,0,1944.434,0,0,1,0.25,2,3,0.0,0.0,5,48.0,30.0,3,0.526,0.0,0.0,0.12,1,2020-03-20 15:30:39.000,94,2020-03-20 16:03:03.434,0.25,90,30,30,90,1
459,111,0,1953.957,1,0,1,0.25,2,9,0.0,0.0,11,48.0,30.0,9,0.451,0.0,0.0,0.0,0,2020-03-20 15:30:39.000,94,2020-03-20 16:03:12.957,0.25,90,-150,-150,90,1
460,114,0,2001.408,0,0,1,0.25,2,9,0.0,0.0,11,48.0,30.0,9,0.501,1.0,2004.147,0.19,1,2020-03-20 15:30:39.000,94,2020-03-20 16:04:00.408,0.25,-90,-150,-150,-90,1
461,115,0,2027.124,0,0,1,0.25,2,3,0.0,0.0,5,48.0,30.0,3,0.476,0.0,0.0,0.12,1,2020-03-20 15:30:39.000,94,2020-03-20 16:04:26.124,0.25,90,30,30,90,1
462,116,0,2047.837,0,0,1,0.25,2,3,0.0,0.0,5,48.0,30.0,3,0.501,1.0,2054.008,0.0,0,2020-03-20 15:30:39.000,94,2020-03-20 16:04:46.837,0.25,-90,30,30,-90,1
1137,40,0,694.4689999999998,0,-60,1,0.25,2,9,0.0,0.0,11,48.0,30.0,9,0.551,1.0,697.674,0.15,1,2020-06-02 17:29:40.000,67,2020-06-02 17:41:14.469,0.25,-90,-150,-90,-30,1
1138,41,0,711.324,0,-60,1,0.25,2,3,0.0,0.0,5,48.0,30.0,3,0.451,0.0,0.0,0.15,1,2020-06-02 17:29:40.000,67,2020-06-02 17:41:31.324,0.25,90,30,90,150,1
1139,42,0,730.1569999999998,0,-60,1,0.25,2,9,0.0,0.0,11,48.0,30.0,9,0.501,1.0,732.427,0.15,1,2020-06-02 17:29:40.000,67,2020-06-02 17:41:50.157,0.25,-90,-150,-90,-30,1
1140,43,0,749.773,0,-60,1,0.25,2,3,0.0,0.0,5,48.0,30.0,3,0.526,0.0,0.0,0.15,1,2020-06-02 17:29:40.000,67,2020-06-02 17:42:09.773,0.25,90,30,90,150,1
1141,44,0,782.262,0,-60,1,0.25,2,9,0.0,0.0,11,48.0,30.0,9,0.551,1.0,785.4110000000002,0.15,1,2020-06-02 17:29:40.000,67,2020-06-02 17:42:42.262,0.25,-90,-150,-90,-30,1
1142,45,0,800.75,0,-60,1,0.25,2,3,0.0,0.0,5,48.0,30.0,3,0.451,0.0,0.0,0.15,1,2020-06-02 17:29:40.000,67,2020-06-02 17:43:00.750,0.25,90,30,90,150,1
1143,46,0,819.677,0,-60,1,0.25,2,3,0.0,0.0,5,48.0,30.0,3,0.526,0.0,0.0,0.15,1,2020-06-02 17:29:40.000,67,2020-06-02 17:43:19.677,0.25,90,30,90,150,1
1144,47,0,843.888,0,-60,1,0.25,2,3,0.0,0.0,5,48.0,30.0,3,0.501,0.0,0.0,0.15,1,2020-06-02 17:29:40.000,67,2020-06-02 17:43:43.888,0.25,90,30,90,150,1
1145,48,0,852.068,0,-60,1,0.25,2,3,0.0,0.0,5,48.0,30.0,3,0.476,0.0,0.0,0.15,1,2020-06-02 17:29:40.000,67,2020-06-02 17:43:52.068,0.25,90,30,90,150,1
1146,49,0,904.095,0,-60,1,0.25,2,3,0.0,0.0,5,48.0,30.0,3,0.526,0.0,0.0,0.15,1,2020-06-02 17:29:40.000,67,2020-06-02 17:44:44.095,0.25,90,30,90,150,1
1214,80,0,1352.9879999999996,0,0,1,0.25,2,9,0.0,0.0,11,48.0,30.0,9,0.551,1.0,1355.564,0.19,1,2020-06-03 12:14:52.000,65,2020-06-03 12:37:24.988,0.25,-90,-150,-150,-90,1
1215,81,0,1372.312,0,0,1,0.25,2,9,0.0,0.0,11,48.0,30.0,9,0.501,1.0,1374.303,0.19,1,2020-06-03 12:14:52.000,65,2020-06-03 12:37:44.312,0.25,-90,-150,-150,-90,1
1216,82,0,1393.5970000000002,0,0,1,0.25,2,9,0.0,0.0,11,48.0,30.0,9,0.526,0.0,0.0,0.0,0,2020-06-03 12:14:52.000,65,2020-06-03 12:38:05.597,0.25,90,-150,-150,90,1
1217,84,0,1437.094,0,0,1,0.25,2,3,0.0,0.0,5,48.0,30.0,3,0.501,0.0,0.0,0.12,1,2020-06-03 12:14:52.000,65,2020-06-03 12:38:49.094,0.25,90,30,30,90,1
1218,85,0,1444.014,0,0,1,0.25,2,9,0.0,0.0,11,48.0,30.0,9,0.451,0.0,0.0,0.0,0,2020-06-03 12:14:52.000,65,2020-06-03 12:38:56.014,0.25,90,-150,-150,90,1
1219,87,0,1471.921,0,0,1,0.25,2,3,0.0,0.0,5,48.0,30.0,3,0.476,0.0,0.0,0.12,1,2020-06-03 12:14:52.000,65,2020-06-03 12:39:23.921,0.25,90,30,30,90,1
1220,88,0,1480.0179999999998,0,0,1,0.25,2,9,0.0,0.0,11,48.0,30.0,9,0.551,1.0,1481.355,0.19,1,2020-06-03 12:14:52.000,65,2020-06-03 12:39:32.018,0.25,-90,-150,-150,-90,1
1221,89,0,1501.608,0,0,1,0.25,2,3,0.0,0.0,5,48.0,30.0,3,0.526,0.0,0.0,0.12,1,2020-06-03 12:14:52.000,65,2020-06-03 12:39:53.608,0.25,90,30,30,90,1
1222,90,0,1512.513,0,0,1,0.25,2,9,0.0,0.0,11,48.0,30.0,9,0.551,1.0,1514.328,0.19,1,2020-06-03 12:14:52.000,65,2020-06-03 12:40:04.513,0.25,-90,-150,-150,-90,1
1223,91,0,1532.985,0,0,1,0.25,2,9,0.0,0.0,11,48.0,30.0,9,0.526,1.0,1534.776,0.19,1,2020-06-03 12:14:52.000,65,2020-06-03 12:40:24.985,0.25,-90,-150,-150,-90,1
1262,62,0,986.906,1,90,1,0.25,2,3,0.0,0.0,5,48.0,30.0,3,0.476,0.0,0.0,0.145,1,2020-06-03 17:25:41.000,25,2020-06-03 17:42:07.906,0.25,90,30,-60,0,1
1263,63,0,1011.512,0,90,1,0.25,2,3,0.0,0.0,5,48.0,30.0,3,0.551,0.0,0.0,0.145,1,2020-06-03 17:25:41.000,25,2020-06-03 17:42:32.512,0.25,90,30,-60,0,1
1264,64,0,1020.89,0,90,1,0.25,2,9,0.0,0.0,11,48.0,30.0,9,0.476,0.0,0.0,0.0,0,2020-06-03 17:25:41.000,25,2020-06-03 17:42:41.890,0.25,90,-150,120,0,1
1265,66,0,1058.252,0,90,1,0.25,2,3,0.0,0.0,5,48.0,30.0,3,0.526,0.0,0.0,0.145,1,2020-06-03 17:25:41.000,25,2020-06-03 17:43:19.252,0.25,90,30,-60,0,1
1266,67,0,1068.318,1,90,1,0.25,2,3,0.0,0.0,5,48.0,30.0,3,0.551,0.0,0.0,0.145,1,2020-06-03 17:25:41.000,25,2020-06-03 17:43:29.318,0.25,90,30,-60,0,1
1267,68,0,1091.96,0,90,1,0.25,2,9,0.0,0.0,11,48.0,30.0,9,0.501,1.0,1095.035,0.155,1,2020-06-03 17:25:41.000,25,2020-06-03 17:43:52.960,0.25,-90,-150,120,-180,1
1268,69,0,1108.463,0,90,1,0.25,2,9,0.0,0.0,11,48.0,30.0,9,0.451,0.0,0.0,0.0,0,2020-06-03 17:25:41.000,25,2020-06-03 17:44:09.463,0.25,90,-150,120,0,1
1269,72,0,1149.8010000000004,0,90,1,0.25,2,9,0.0,0.0,11,48.0,30.0,9,0.476,1.0,1151.97,0.155,1,2020-06-03 17:25:41.000,25,2020-06-03 17:44:50.801,0.25,-90,-150,120,-180,1
1270,73,0,1176.9,0,90,1,0.25,2,9,0.0,0.0,11,48.0,30.0,9,0.551,1.0,1179.174,0.155,1,2020-06-03 17:25:41.000,25,2020-06-03 17:45:17.900,0.25,-90,-150,120,-180,1
1271,74,0,1196.656,0,90,1,0.25,2,9,0.0,0.0,11,48.0,30.0,9,0.451,0.0,0.0,0.0,0,2020-06-03 17:25:41.000,25,2020-06-03 17:45:37.656,0.25,90,-150,120,0,1
1316,57,0,937.206,0,0,1,0.25,2,9,0.0,0.0,11,48.0,30.0,9,0.526,1.0,938.942,0.18,1,2020-06-04 12:15:53.000,91,2020-06-04 12:31:30.206,0.25,-90,-150,-150,-90,1
1317,58,0,956.321,0,0,1,0.25,2,3,0.0,0.0,5,48.0,30.0,3,0.526,0.0,0.0,0.13,1,2020-06-04 12:15:53.000,91,2020-06-04 12:31:49.321,0.25,90,30,30,90,1
1318,59,0,966.252,0,0,1,0.25,2,9,0.0,0.0,11,48.0,30.0,9,0.476,0.0,0.0,0.0,0,2020-06-04 12:15:53.000,91,2020-06-04 12:31:59.252,0.25,90,-150,-150,90,1
1319,61,0,992.563,0,0,1,0.25,2,3,0.0,0.0,5,48.0,30.0,3,0.501,1.0,996.162,0.0,0,2020-06-04 12:15:53.000,91,2020-06-04 12:32:25.563,0.25,-90,30,30,-90,1
1320,63,0,1008.263,0,0,1,0.25,2,9,0.0,0.0,11,48.0,30.0,9,0.451,0.0,0.0,0.0,0,2020-06-04 12:15:53.000,91,2020-06-04 12:32:41.263,0.25,90,-150,-150,90,1
1321,65,0,1034.945,0,0,1,0.25,2,3,0.0,0.0,5,48.0,30.0,3,0.551,0.0,0.0,0.13,1,2020-06-04 12:15:53.000,91,2020-06-04 12:33:07.945,0.25,90,30,30,90,1
1322,66,0,1042.888,0,0,1,0.25,2,3,0.0,0.0,5,48.0,30.0,3,0.476,0.0,0.0,0.13,1,2020-06-04 12:15:53.000,91,2020-06-04 12:33:15.888,0.25,90,30,30,90,1
1323,67,0,1050.204,0,0,1,0.25,2,3,0.0,0.0,5,48.0,30.0,3,0.451,0.0,0.0,0.13,1,2020-06-04 12:15:53.000,91,2020-06-04 12:33:23.204,0.25,90,30,30,90,1
1324,68,0,1058.049,0,0,1,0.25,2,3,0.0,0.0,5,48.0,30.0,3,0.551,0.0,0.0,0.13,1,2020-06-04 12:15:53.000,91,2020-06-04 12:33:31.049,0.25,90,30,30,90,1
1325,69,0,1112.103,0,0,1,0.25,2,9,0.0,0.0,11,48.0,30.0,9,0.501,0.0,0.0,0.0,0,2020-06-04 12:15:53.000,91,2020-06-04 12:34:25.103,0.25,90,-150,-150,90,1
1415,69,0,960.826,0,30,1,0.25,2,3,0.0,0.0,5,48.0,30.0,3,0.526,1.0,970.419,0.0,0,2020-06-05 12:30:29.000,32,2020-06-05 12:46:29.826,0.25,-90,30,0,-120,1
1416,71,0,984.044,0,30,1,0.25,2,9,0.0,0.0,11,48.0,30.0,9,0.501,1.0,986.423,0.19,1,2020-06-05 12:30:29.000,32,2020-06-05 12:46:53.044,0.25,-90,-150,-180,-120,1
1417,72,0,1001.603,0,30,1,0.25,2,3,0.0,0.0,5,48.0,30.0,3,0.451,0.0,0.0,0.12,1,2020-06-05 12:30:29.000,32,2020-06-05 12:47:10.603,0.25,90,30,0,60,1
1418,73,0,1008.537,0,30,1,0.25,2,9,0.0,0.0,11,48.0,30.0,9,0.551,0.0,0.0,0.0,0,2020-06-05 12:30:29.000,32,2020-06-05 12:47:17.537,0.25,90,-150,-180,60,1
1419,75,0,1034.442,0,30,1,0.25,2,9,0.0,0.0,11,48.0,30.0,9,0.476,1.0,1037.692,0.19,1,2020-06-05 12:30:29.000,32,2020-06-05 12:47:43.442,0.25,-90,-150,-180,-120,1
1420,76,0,1057.136,0,30,1,0.25,2,9,0.0,0.0,11,48.0,30.0,9,0.501,1.0,1060.839,0.19,1,2020-06-05 12:30:29.000,32,2020-06-05 12:48:06.136,0.25,-90,-150,-180,-120,1
1421,77,0,1077.981,0,30,1,0.25,2,9,0.0,0.0,11,48.0,30.0,9,0.476,0.0,0.0,0.0,0,2020-06-05 12:30:29.000,32,2020-06-05 12:48:26.981,0.25,90,-150,-180,60,1
1422,79,0,1107.363,0,30,1,0.25,2,3,0.0,0.0,5,48.0,30.0,3,0.526,0.0,0.0,0.12,1,2020-06-05 12:30:29.000,32,2020-06-05 12:48:56.363,0.25,90,30,0,60,1
1423,80,0,1124.229,0,30,1,0.25,2,3,0.0,0.0,5,48.0,30.0,3,0.451,1.0,1126.649,0.0,0,2020-06-05 12:30:29.000,32,2020-06-05 12:49:13.229,0.25,-90,30,0,-120,1
1424,82,0,1144.739,0,30,1,0.25,2,9,0.0,0.0,11,48.0,30.0,9,0.551,0.0,0.0,0.0,0,2020-06-05 12:30:29.000,32,2020-06-05 12:49:33.739,0.25,90,-150,-180,60,1
1451,33,0,509.824,0,0,1,0.25,2,3,0.0,0.0,5,48.0,30.0,3,0.526,0.0,0.0,0.12,1,2020-06-05 18:01:48.000,43,2020-06-05 18:10:17.824,0.25,90,30,30,90,1
1452,34,0,517.485,0,0,1,0.25,2,9,0.0,0.0,11,48.0,30.0,9,0.551,0.0,0.0,0.0,0,2020-06-05 18:01:48.000,43,2020-06-05 18:10:25.485,0.25,90,-150,-150,90,1
1453,36,0,546.2080000000002,0,0,1,0.25,2,9,0.0,0.0,11,48.0,30.0,9,0.476,1.0,549.1759999999998,0.19,1,2020-06-05 18:01:48.000,43,2020-06-05 18:10:54.208,0.25,-90,-150,-150,-90,1
1454,37,0,565.456,0,0,1,0.25,2,3,0.0,0.0,5,48.0,30.0,3,0.501,0.0,0.0,0.12,1,2020-06-05 18:01:48.000,43,2020-06-05 18:11:13.456,0.25,90,30,30,90,1
1455,38,0,572.3919999999998,0,0,1,0.25,2,3,0.0,0.0,5,48.0,30.0,3,0.476,0.0,0.0,0.12,1,2020-06-05 18:01:48.000,43,2020-06-05 18:11:20.392,0.25,90,30,30,90,1
1456,39,0,580.773,0,0,1,0.25,2,9,0.0,0.0,11,48.0,30.0,9,0.501,1.0,582.753,0.19,1,2020-06-05 18:01:48.000,43,2020-06-05 18:11:28.773,0.25,-90,-150,-150,-90,1
1457,40,0,609.1419999999998,0,0,1,0.25,2,9,0.0,0.0,11,48.0,30.0,9,0.526,0.0,0.0,0.0,0,2020-06-05 18:01:48.000,43,2020-06-05 18:11:57.142,0.25,90,-150,-150,90,1
1458,42,0,630.394,0,0,1,0.25,2,9,0.0,0.0,11,48.0,30.0,9,0.451,1.0,632.523,0.19,1,2020-06-05 18:01:48.000,43,2020-06-05 18:12:18.394,0.25,-90,-150,-150,-90,1
1459,43,0,659.495,0,0,1,0.25,2,3,0.0,0.0,5,48.0,30.0,3,0.551,0.0,0.0,0.12,1,2020-06-05 18:01:48.000,43,2020-06-05 18:12:47.495,0.25,90,30,30,90,1
1460,44,0,683.703,0,0,1,0.25,2,3,0.0,0.0,5,48.0,30.0,3,0.551,0.0,0.0,0.12,1,2020-06-05 18:01:48.000,43,2020-06-05 18:13:11.703,0.25,90,30,30,90,1
1642,43,0,819.885,0,-30,1,0.25,2,3,0.0,0.0,5,48.0,30.0,3,0.476,0.0,821.445,0.12,1,2020-06-11 12:28:35.000,46,2020-06-11 12:42:14.885,0.25,90,30,60,120,1
1643,44,0,828.7560000000002,0,-30,1,0.25,2,9,0.0,0.0,11,48.0,30.0,9,0.526,0.0,830.529,0.0,0,2020-06-11 12:28:35.000,46,2020-06-11 12:42:23.756,0.25,90,-150,-120,120,1
1644,46,0,855.409,1,-30,1,0.25,2,9,0.0,0.0,11,48.0,30.0,9,0.551,1.0,862.627,0.19,1,2020-06-11 12:28:35.000,46,2020-06-11 12:42:50.409,0.25,-90,-150,-120,-60,1
1645,47,0,883.13,0,-30,1,0.25,2,3,0.0,0.0,5,48.0,30.0,3,0.501,0.0,885.138,0.12,1,2020-06-11 12:28:35.000,46,2020-06-11 12:43:18.130,0.25,90,30,60,120,1
1646,48,0,891.7280000000002,0,-30,1,0.25,2,3,0.0,0.0,5,48.0,30.0,3,0.551,0.0,893.6139999999998,0.12,1,2020-06-11 12:28:35.000,46,2020-06-11 12:43:26.728,0.25,90,30,60,120,1
1647,49,0,900.2869999999998,0,-30,1,0.25,2,9,0.0,0.0,11,48.0,30.0,9,0.451,0.0,902.85,0.0,0,2020-06-11 12:28:35.000,46,2020-06-11 12:43:35.287,0.25,90,-150,-120,120,1
1648,51,0,934.716,0,-30,1,0.25,2,9,0.0,0.0,11,48.0,30.0,9,0.526,1.0,937.221,0.19,1,2020-06-11 12:28:35.000,46,2020-06-11 12:44:09.716,0.25,-90,-150,-120,-60,1
1649,52,0,954.526,0,-30,1,0.25,2,3,0.0,0.0,5,48.0,30.0,3,0.501,1.0,956.814,0.0,0,2020-06-11 12:28:35.000,46,2020-06-11 12:44:29.526,0.25,-90,30,60,-60,1
1650,54,0,983.823,0,-30,1,0.25,2,9,0.0,0.0,11,48.0,30.0,9,0.476,0.0,986.659,0.0,0,2020-06-11 12:28:35.000,46,2020-06-11 12:44:58.823,0.25,90,-150,-120,120,1
1651,56,0,1013.7,0,-30,1,0.25,2,3,0.0,0.0,5,48.0,30.0,3,0.476,1.0,1016.273,0.0,0,2020-06-11 12:28:35.000,46,2020-06-11 12:45:28.700,0.25,-90,30,60,-60,1
1671,31,0,506.946,0,0,1,0.25,2,9,0.0,0.0,11,48.0,30.0,9,0.501,1.0,509.091,0.19,1,2020-06-11 18:04:52.000,62,2020-06-11 18:13:18.946,0.25,-90,-150,-150,-90,1
1672,32,0,540.055,0,0,1,0.25,2,3,0.0,0.0,5,48.0,30.0,3,0.476,1.0,543.105,0.0,0,2020-06-11 18:04:52.000,62,2020-06-11 18:13:52.055,0.25,-90,30,30,-90,1
1673,34,0,561.974,0,0,1,0.25,2,3,0.0,0.0,5,48.0,30.0,3,0.526,0.0,563.49,0.12,1,2020-06-11 18:04:52.000,62,2020-06-11 18:14:13.974,0.25,90,30,30,90,1
1674,35,0,569.477,0,0,1,0.25,2,3,0.0,0.0,5,48.0,30.0,3,0.501,0.0,571.482,0.12,1,2020-06-11 18:04:52.000,62,2020-06-11 18:14:21.477,0.25,90,30,30,90,1
1675,36,0,577.913,0,0,1,0.25,2,3,0.0,0.0,5,48.0,30.0,3,0.451,1.0,580.21,0.0,0,2020-06-11 18:04:52.000,62,2020-06-11 18:14:29.913,0.25,-90,30,30,-90,1
1676,39,0,597.92,0,0,1,0.25,2,9,0.0,0.0,11,48.0,30.0,9,0.551,0.0,600.5509999999998,0.0,0,2020-06-11 18:04:52.000,62,2020-06-11 18:14:49.920,0.25,90,-150,-150,90,1
1677,43,0,651.57,0,0,1,0.25,2,3,0.0,0.0,5,48.0,30.0,3,0.526,1.0,654.0880000000002,0.0,0,2020-06-11 18:04:52.000,62,2020-06-11 18:15:43.570,0.25,-90,30,30,-90,1
1678,45,0,697.4789999999998,1,0,1,0.25,2,3,0.0,0.0,5,48.0,30.0,3,0.551,0.0,704.14,0.12,1,2020-06-11 18:04:52.000,62,2020-06-11 18:16:29.479,0.25,90,30,30,90,1
1679,46,0,743.2669999999998,0,0,1,0.25,2,3,0.0,0.0,5,48.0,30.0,3,0.501,0.0,744.847,0.12,1,2020-06-11 18:04:52.000,62,2020-06-11 18:17:15.267,0.25,90,30,30,90,1
1680,47,0,773.3860000000002,1,0,1,0.25,2,9,0.0,0.0,11,48.0,30.0,9,0.451,0.0,781.578,0.0,0,2020-06-11 18:04:52.000,62,2020-06-11 18:17:45.386,0.25,90,-150,-150,90,1
2237,18,0,358.451,0,-90,1,0.25,2,3,0.0,0.0,5,48.0,30.0,3,0.501,0.0,360.483,0.12,1,2020-07-01 17:56:19.000,81,2020-07-01 18:02:17.451,0.25,90,30,120,-180,1
2238,19,0,372.408,1,-90,1,0.25,2,9,0.0,0.0,11,48.0,30.0,9,0.526,1.0,380.314,0.19,1,2020-07-01 17:56:19.000,81,2020-07-01 18:02:31.408,0.25,-90,-150,-60,0,1
2239,20,0,405.522,0,-90,1,0.25,2,3,0.0,0.0,5,48.0,30.0,3,0.551,0.0,407.55300000000005,0.12,1,2020-07-01 17:56:19.000,81,2020-07-01 18:03:04.522,0.25,90,30,120,-180,1
2240,21,0,413.85,0,-90,1,0.25,2,3,0.0,0.0,5,48.0,30.0,3,0.551,0.0,416.028,0.12,1,2020-07-01 17:56:19.000,81,2020-07-01 18:03:12.850,0.25,90,30,120,-180,1
2241,22,0,423.233,0,-90,1,0.25,2,3,0.0,0.0,5,48.0,30.0,3,0.501,0.0,425.241,0.12,1,2020-07-01 17:56:19.000,81,2020-07-01 18:03:22.233,0.25,90,30,120,-180,1
2242,23,0,451.245,0,-90,1,0.25,2,3,0.0,0.0,5,48.0,30.0,3,0.451,1.0,453.171,0.0,0,2020-07-01 17:56:19.000,81,2020-07-01 18:03:50.245,0.25,-90,30,120,0,1
2243,25,0,466.004,0,-90,1,0.25,2,3,0.0,0.0,5,48.0,30.0,3,0.476,1.0,467.404,0.0,0,2020-07-01 17:56:19.000,81,2020-07-01 18:04:05.004,0.25,-90,30,120,0,1
2244,27,0,492.737,0,-90,1,0.25,2,9,0.0,0.0,11,48.0,30.0,9,0.526,1.0,494.482,0.19,1,2020-07-01 17:56:19.000,81,2020-07-01 18:04:31.737,0.25,-90,-150,-60,0,1
2245,28,0,509.139,0,-90,1,0.25,2,3,0.0,0.0,5,48.0,30.0,3,0.526,0.0,511.065,0.12,1,2020-07-01 17:56:19.000,81,2020-07-01 18:04:48.139,0.25,90,30,120,-180,1
2246,29,0,525.035,0,-90,1,0.25,2,9,0.0,0.0,11,48.0,30.0,9,0.551,0.0,527.627,0.0,0,2020-07-01 17:56:19.000,81,2020-07-01 18:05:04.035,0.25,90,-150,-60,-180,1
2297,60,0,1136.6760000000004,0,0,1,0.25,2,9,0.0,0.0,11,48.0,30.0,9,0.501,1.0,1138.909,0.18,1,2020-07-02 12:15:01.000,2,2020-07-02 12:33:57.676,0.25,-90,-150,-150,-90,1
2298,61,0,1166.504,0,0,1,0.25,2,3,0.0,0.0,5,48.0,30.0,3,0.526,0.0,1170.269,0.125,1,2020-07-02 12:15:01.000,2,2020-07-02 12:34:27.504,0.25,90,30,30,90,1
2299,62,0,1177.138,0,0,1,0.25,2,3,0.0,0.0,5,48.0,30.0,3,0.476,1.0,1179.5510000000004,0.0,0,2020-07-02 12:15:01.000,2,2020-07-02 12:34:38.138,0.25,-90,30,30,-90,1
2300,65,0,1211.194,0,0,1,0.25,2,3,0.0,0.0,5,48.0,30.0,3,0.551,0.0,1212.614,0.125,1,2020-07-02 12:15:01.000,2,2020-07-02 12:35:12.194,0.25,90,30,30,90,1
2301,66,0,1218.077,1,0,1,0.25,2,9,0.0,0.0,11,48.0,30.0,9,0.451,0.0,1226.138,0.0,0,2020-07-02 12:15:01.000,2,2020-07-02 12:35:19.077,0.25,90,-150,-150,90,1
2302,68,0,1266.362,0,0,1,0.25,2,9,0.0,0.0,11,48.0,30.0,9,0.476,1.0,1268.738,0.18,1,2020-07-02 12:15:01.000,2,2020-07-02 12:36:07.362,0.25,-90,-150,-150,-90,1
2303,69,0,1284.622,0,0,1,0.25,2,3,0.0,0.0,5,48.0,30.0,3,0.526,0.0,1286.63,0.125,1,2020-07-02 12:15:01.000,2,2020-07-02 12:36:25.622,0.25,90,30,30,90,1
2304,70,0,1291.462,0,0,1,0.25,2,3,0.0,0.0,5,48.0,30.0,3,0.501,0.0,1293.347,0.125,1,2020-07-02 12:15:01.000,2,2020-07-02 12:36:32.462,0.25,90,30,30,90,1
2305,71,0,1299.2910000000004,0,0,1,0.25,2,3,0.0,0.0,5,48.0,30.0,3,0.451,0.0,1301.116,0.125,1,2020-07-02 12:15:01.000,2,2020-07-02 12:36:40.291,0.25,90,30,30,90,1
2306,72,0,1313.966,0,0,1,0.25,2,3,0.0,0.0,5,48.0,30.0,3,0.551,1.0,1317.876,0.0,0,2020-07-02 12:15:01.000,2,2020-07-02 12:36:54.966,0.25,-90,30,30,-90,1
2441,83,0,1379.6170000000004,0,-30,1,0.25,2,9,0.0,0.0,11,48.0,30.0,9,0.451,0.0,1381.764,0.0,0,2020-07-03 12:13:29.000,72,2020-07-03 12:36:28.617,0.25,90,-150,-120,120,1
2442,85,0,1405.3339999999996,0,-30,1,0.25,2,3,0.0,0.0,5,48.0,30.0,3,0.476,0.0,1408.193,0.13,1,2020-07-03 12:13:29.000,72,2020-07-03 12:36:54.334,0.25,90,30,60,120,1
2443,86,0,1414.7,0,-30,1,0.25,2,3,0.0,0.0,5,48.0,30.0,3,0.501,0.0,1418.04,0.13,1,2020-07-03 12:13:29.000,72,2020-07-03 12:37:03.700,0.25,90,30,60,120,1
2444,87,0,1437.14,0,-30,1,0.25,2,3,0.0,0.0,5,48.0,30.0,3,0.551,0.0,1438.379,0.13,1,2020-07-03 12:13:29.000,72,2020-07-03 12:37:26.140,0.25,90,30,60,120,1
2445,88,0,1455.3970000000004,0,-30,1,0.25,2,3,0.0,0.0,5,48.0,30.0,3,0.526,0.0,1459.4979999999996,0.13,1,2020-07-03 12:13:29.000,72,2020-07-03 12:37:44.397,0.25,90,30,60,120,1
2446,89,0,1465.9070000000004,0,-30,1,0.25,2,9,0.0,0.0,11,48.0,30.0,9,0.526,1.0,1467.787,0.185,1,2020-07-03 12:13:29.000,72,2020-07-03 12:37:54.907,0.25,-90,-150,-120,-60,1
2447,90,0,1479.283,0,-30,1,0.25,2,9,0.0,0.0,11,48.0,30.0,9,0.451,1.0,1482.016,0.185,1,2020-07-03 12:13:29.000,72,2020-07-03 12:38:08.283,0.25,-90,-150,-120,-60,1
2448,91,0,1509.861,0,-30,1,0.25,2,3,0.0,0.0,5,48.0,30.0,3,0.501,0.0,1512.3729999999996,0.125,1,2020-07-03 12:13:29.000,72,2020-07-03 12:38:38.861,0.25,90,30,60,120,1
2449,92,0,1518.429,0,-30,1,0.25,2,9,0.0,0.0,11,48.0,30.0,9,0.476,0.0,1520.453,0.0,0,2020-07-03 12:13:29.000,72,2020-07-03 12:38:47.429,0.25,90,-150,-120,120,1
2450,94,0,1540.43,0,-30,1,0.25,2,9,0.0,0.0,11,48.0,30.0,9,0.551,1.0,1543.073,0.185,1,2020-07-03 12:13:29.000,72,2020-07-03 12:39:09.430,0.25,-90,-150,-120,-60,1
2525,73,0,1177.72,0,0,1,0.25,2,9,0.0,0.0,11,48.0,30.0,9,0.551,1.0,1180.441,0.19,1,2020-07-06 12:43:00.000,63,2020-07-06 13:02:37.720,0.25,-90,-150,-150,-90,1
2526,74,0,1202.181,0,0,1,0.25,2,3,0.0,0.0,5,48.0,30.0,3,0.451,0.0,1204.244,0.1,1,2020-07-06 12:43:00.000,63,2020-07-06 13:03:02.181,0.25,90,30,30,90,1
2527,75,0,1224.352,0,0,1,0.25,2,9,0.0,0.0,11,48.0,30.0,9,0.476,1.0,1227.374,0.19,1,2020-07-06 12:43:00.000,63,2020-07-06 13:03:24.352,0.25,-90,-150,-150,-90,1
2528,76,0,1259.708,0,0,1,0.25,2,9,0.0,0.0,11,48.0,30.0,9,0.501,1.0,1261.729,0.19,1,2020-07-06 12:43:00.000,63,2020-07-06 13:03:59.708,0.25,-90,-150,-150,-90,1
2529,77,0,1287.234,0,0,1,0.25,2,3,0.0,0.0,5,48.0,30.0,3,0.551,0.0,1288.901,0.1,1,2020-07-06 12:43:00.000,63,2020-07-06 13:04:27.234,0.25,90,30,30,90,1
2530,78,0,1294.877,0,0,1,0.25,2,9,0.0,0.0,11,48.0,30.0,9,0.526,0.0,1297.977,0.0,0,2020-07-06 12:43:00.000,63,2020-07-06 13:04:34.877,0.25,90,-150,-150,90,1
2531,80,0,1327.144,0,0,1,0.25,2,9,0.0,0.0,11,48.0,30.0,9,0.476,1.0,1329.839,0.19,1,2020-07-06 12:43:00.000,63,2020-07-06 13:05:07.144,0.25,-90,-150,-150,-90,1
2532,81,0,1353.206,0,0,1,0.25,2,9,0.0,0.0,11,48.0,30.0,9,0.451,1.0,1354.546,0.19,1,2020-07-06 12:43:00.000,63,2020-07-06 13:05:33.206,0.25,-90,-150,-150,-90,1
2533,82,0,1374.234,0,0,1,0.25,2,9,0.0,0.0,11,48.0,30.0,9,0.551,1.0,1376.369,0.19,1,2020-07-06 12:43:00.000,63,2020-07-06 13:05:54.234,0.25,-90,-150,-150,-90,1
2534,83,0,1400.8829999999996,0,0,1,0.25,2,3,0.0,0.0,5,48.0,30.0,3,0.526,0.0,1402.391,0.1,1,2020-07-06 12:43:00.000,63,2020-07-06 13:06:20.883,0.25,90,30,30,90,1
2696,58,0,1297.425,0,120,1,0.25,2,9,0.0,0.0,11,48.0,30.0,9,0.476,0.0,1300.225,0.0,0,2020-07-07 17:25:52.000,7,2020-07-07 17:47:29.425,0.25,90,-150,90,-30,1
2697,60,0,1335.6470000000004,0,120,1,0.25,2,9,0.0,0.0,11,48.0,30.0,9,0.501,1.0,1337.188,0.19,1,2020-07-07 17:25:52.000,7,2020-07-07 17:48:07.647,0.25,-90,-150,90,150,1
2698,61,0,1359.908,0,120,1,0.25,2,9,0.0,0.0,11,48.0,30.0,9,0.501,1.0,1362.7520000000004,0.19,1,2020-07-07 17:25:52.000,7,2020-07-07 17:48:31.908,0.25,-90,-150,90,150,1
2699,62,0,1383.095,0,120,1,0.25,2,3,0.0,0.0,5,48.0,30.0,3,0.476,0.0,1385.974,0.11,1,2020-07-07 17:25:52.000,7,2020-07-07 17:48:55.095,0.25,90,30,-90,-30,1
2700,63,0,1391.5510000000004,0,120,1,0.25,2,3,0.0,0.0,5,48.0,30.0,3,0.451,0.0,1395.261,0.11,1,2020-07-07 17:25:52.000,7,2020-07-07 17:49:03.551,0.25,90,30,-90,-30,1
2701,64,0,1410.814,0,120,1,0.25,2,9,0.0,0.0,11,48.0,30.0,9,0.551,1.0,1411.7910000000004,0.19,1,2020-07-07 17:25:52.000,7,2020-07-07 17:49:22.814,0.25,-90,-150,90,150,1
2702,65,0,1438.815,0,120,1,0.25,2,9,0.0,0.0,11,48.0,30.0,9,0.526,1.0,1440.761,0.19,1,2020-07-07 17:25:52.000,7,2020-07-07 17:49:50.815,0.25,-90,-150,90,150,1
2703,66,0,1458.946,0,120,1,0.25,2,3,0.0,0.0,5,48.0,30.0,3,0.526,0.0,1460.9779999999996,0.11,1,2020-07-07 17:25:52.000,7,2020-07-07 17:50:10.946,0.25,90,30,-90,-30,1
2704,67,0,1467.283,0,120,1,0.25,2,3,0.0,0.0,5,48.0,30.0,3,0.501,0.0,1471.495,0.11,1,2020-07-07 17:25:52.000,7,2020-07-07 17:50:19.283,0.25,90,30,-90,-30,1
2705,68,0,1477.969,0,120,1,0.25,2,9,0.0,0.0,11,48.0,30.0,9,0.451,1.0,1479.9129999999998,0.19,1,2020-07-07 17:25:52.000,7,2020-07-07 17:50:29.969,0.25,-90,-150,90,150,1
2759,60,0,944.154,0,0,1,0.25,2,9,0.0,0.0,11,48.0,30.0,9,0.501,1.0,945.708,0.19,1,2020-07-08 12:01:45.000,18,2020-07-08 12:17:29.154,0.25,-90,-150,-150,-90,1
2760,61,0,964.933,0,0,1,0.25,2,3,0.0,0.0,5,48.0,30.0,3,0.451,0.0,966.9,0.12,1,2020-07-08 12:01:45.000,18,2020-07-08 12:17:49.933,0.25,90,30,30,90,1
2761,62,0,973.001,0,0,1,0.25,2,9,0.0,0.0,11,48.0,30.0,9,0.526,1.0,974.875,0.19,1,2020-07-08 12:01:45.000,18,2020-07-08 12:17:58.001,0.25,-90,-150,-150,-90,1
2762,63,0,999.698,0,0,1,0.25,2,9,0.0,0.0,11,48.0,30.0,9,0.551,1.0,1001.188,0.19,1,2020-07-08 12:01:45.000,18,2020-07-08 12:18:24.698,0.25,-90,-150,-150,-90,1
2763,64,0,1019.848,0,0,1,0.25,2,9,0.0,0.0,11,48.0,30.0,9,0.451,1.0,1023.264,0.19,1,2020-07-08 12:01:45.000,18,2020-07-08 12:18:44.848,0.25,-90,-150,-150,-90,1
2764,65,0,1041.679,0,0,1,0.25,2,3,0.0,0.0,5,48.0,30.0,3,0.476,0.0,1043.504,0.12,1,2020-07-08 12:01:45.000,18,2020-07-08 12:19:06.679,0.25,90,30,30,90,1
2765,66,0,1056.001,0,0,1,0.25,2,9,0.0,0.0,11,48.0,30.0,9,0.501,1.0,1058.774,0.19,1,2020-07-08 12:01:45.000,18,2020-07-08 12:19:21.001,0.25,-90,-150,-150,-90,1
2766,67,0,1076.647,0,0,1,0.25,2,3,0.0,0.0,5,48.0,30.0,3,0.501,0.0,1078.645,0.12,1,2020-07-08 12:01:45.000,18,2020-07-08 12:19:41.647,0.25,90,30,30,90,1
2767,68,0,1085.013,0,0,1,0.25,2,3,0.0,0.0,5,48.0,30.0,3,0.551,0.0,1086.533,0.12,1,2020-07-08 12:01:45.000,18,2020-07-08 12:19:50.013,0.25,90,30,30,90,1
2768,69,0,1093.062,0,0,1,0.25,2,9,0.0,0.0,11,48.0,30.0,9,0.476,0.0,1094.539,0.0,0,2020-07-08 12:01:45.000,18,2020-07-08 12:19:58.062,0.25,90,-150,-150,90,1
2803,54,0,1067.07,0,-150,1,0.25,2,3,0.0,0.0,5,48.0,30.0,3,0.476,0.0,1069.206,0.13,1,2020-07-08 17:46:04.000,78,2020-07-08 18:03:51.070,0.25,90,30,-180,-120,1
2804,55,0,1122.371,0,-150,1,0.25,2,9,0.0,0.0,11,48.0,30.0,9,0.476,1.0,1126.336,0.18,1,2020-07-08 17:46:04.000,78,2020-07-08 18:04:46.371,0.25,-90,-150,0,60,1
2805,56,0,1145.155,0,-150,1,0.25,2,3,0.0,0.0,5,48.0,30.0,3,0.451,0.0,1147.429,0.13,1,2020-07-08 17:46:04.000,78,2020-07-08 18:05:09.155,0.25,90,30,-180,-120,1
2806,57,0,1155.462,0,-150,1,0.25,2,9,0.0,0.0,11,48.0,30.0,9,0.501,1.0,1156.843,0.18,1,2020-07-08 17:46:04.000,78,2020-07-08 18:05:19.462,0.25,-90,-150,0,60,1
2807,58,0,1175.996,0,-150,1,0.25,2,9,0.0,0.0,11,48.0,30.0,9,0.526,1.0,1177.366,0.18,1,2020-07-08 17:46:04.000,78,2020-07-08 18:05:39.996,0.25,-90,-150,0,60,1
2808,59,0,1198.685,0,-150,1,0.25,2,9,0.0,0.0,11,48.0,30.0,9,0.551,0.0,1200.594,0.0,0,2020-07-08 17:46:04.000,78,2020-07-08 18:06:02.685,0.25,90,-150,0,-120,1
2809,62,0,1258.8010000000004,1,-150,1,0.25,2,9,0.0,0.0,11,48.0,30.0,9,0.526,1.0,1265.542,0.18,1,2020-07-08 17:46:04.000,78,2020-07-08 18:07:02.801,0.25,-90,-150,0,60,1
2810,63,0,1285.5410000000004,0,-150,1,0.25,2,3,0.0,0.0,5,48.0,30.0,3,0.501,0.0,1288.938,0.13,1,2020-07-08 17:46:04.000,78,2020-07-08 18:07:29.541,0.25,90,30,-180,-120,1
2811,64,0,1294.218,0,-150,1,0.25,2,3,0.0,0.0,5,48.0,30.0,3,0.451,0.0,1296.811,0.13,1,2020-07-08 17:46:04.000,78,2020-07-08 18:07:38.218,0.25,90,30,-180,-120,1
2812,65,0,1319.316,0,-150,1,0.25,2,3,0.0,0.0,5,48.0,30.0,3,0.476,1.0,1321.557,0.0,0,2020-07-08 17:46:04.000,78,2020-07-08 18:08:03.316,0.25,-90,30,-180,60,1
2859,56,0,995.94,0,0,1,0.25,2,3,0.0,0.0,5,48.0,30.0,3,0.526,0.0,997.42,0.12,1,2020-07-09 12:10:41.000,16,2020-07-09 12:27:16.940,0.25,90,30,30,90,1
2860,57,0,1008.551,0,0,1,0.25,2,3,0.0,0.0,5,48.0,30.0,3,0.451,0.0,1010.132,0.12,1,2020-07-09 12:10:41.000,16,2020-07-09 12:27:29.551,0.25,90,30,30,90,1
2861,58,0,1023.621,0,0,1,0.25,2,9,0.0,0.0,11,48.0,30.0,9,0.551,1.0,1026.326,0.19,1,2020-07-09 12:10:41.000,16,2020-07-09 12:27:44.621,0.25,-90,-150,-150,-90,1
2862,59,0,1046.104,0,0,1,0.25,2,9,0.0,0.0,11,48.0,30.0,9,0.501,1.0,1047.772,0.19,1,2020-07-09 12:10:41.000,16,2020-07-09 12:28:07.104,0.25,-90,-150,-150,-90,1
2863,60,0,1067.3010000000004,0,0,1,0.25,2,9,0.0,0.0,11,48.0,30.0,9,0.476,1.0,1069.207,0.19,1,2020-07-09 12:10:41.000,16,2020-07-09 12:28:28.301,0.25,-90,-150,-150,-90,1
2864,61,0,1109.004,0,0,1,0.25,2,9,0.0,0.0,11,48.0,30.0,9,0.526,1.0,1110.4589999999996,0.19,1,2020-07-09 12:10:41.000,16,2020-07-09 12:29:10.004,0.25,-90,-150,-150,-90,1
2865,62,0,1132.887,0,0,1,0.25,2,9,0.0,0.0,11,48.0,30.0,9,0.451,1.0,1136.354,0.19,1,2020-07-09 12:10:41.000,16,2020-07-09 12:29:33.887,0.25,-90,-150,-150,-90,1
2866,63,0,1157.6,0,0,1,0.25,2,9,0.0,0.0,11,48.0,30.0,9,0.551,1.0,1159.622,0.19,1,2020-07-09 12:10:41.000,16,2020-07-09 12:29:58.600,0.25,-90,-150,-150,-90,1
2867,64,0,1175.998,0,0,1,0.25,2,3,0.0,0.0,5,48.0,30.0,3,0.501,0.0,1178.329,0.12,1,2020-07-09 12:10:41.000,16,2020-07-09 12:30:16.998,0.25,90,30,30,90,1
2868,65,0,1184.645,0,0,1,0.25,2,9,0.0,0.0,11,48.0,30.0,9,0.501,0.0,1186.402,0.0,0,2020-07-09 12:10:41.000,16,2020-07-09 12:30:25.645,0.25,90,-150,-150,90,1
2986,85,0,1600.503,0,-120,1,0.25,2,3,0.0,0.0,5,48.0,30.0,3,0.451,0.0,1602.664,0.12,1,2020-07-10 12:23:29.000,92,2020-07-10 12:50:09.503,0.25,90,30,150,-150,1
2987,86,0,1610.01,0,-120,1,0.25,2,9,0.0,0.0,11,48.0,30.0,9,0.501,1.0,1614.976,0.19,1,2020-07-10 12:23:29.000,92,2020-07-10 12:50:19.010,0.25,-90,-150,-30,30,1
2988,87,0,1653.434,0,-120,1,0.25,2,9,0.0,0.0,11,48.0,30.0,9,0.551,1.0,1655.556,0.19,1,2020-07-10 12:23:29.000,92,2020-07-10 12:51:02.434,0.25,-90,-150,-30,30,1
2989,88,0,1677.58,0,-120,1,0.25,2,3,0.0,0.0,5,48.0,30.0,3,0.551,0.0,1679.448,0.12,1,2020-07-10 12:23:29.000,92,2020-07-10 12:51:26.580,0.25,90,30,150,-150,1
2990,89,0,1687.6,0,-120,1,0.25,2,9,0.0,0.0,11,48.0,30.0,9,0.476,1.0,1689.3529999999996,0.19,1,2020-07-10 12:23:29.000,92,2020-07-10 12:51:36.600,0.25,-90,-150,-30,30,1
2991,90,0,1714.536,0,-120,1,0.25,2,9,0.0,0.0,11,48.0,30.0,9,0.501,1.0,1716.882,0.19,1,2020-07-10 12:23:29.000,92,2020-07-10 12:52:03.536,0.25,-90,-150,-30,30,1
2992,91,0,1737.441,0,-120,1,0.25,2,9,0.0,0.0,11,48.0,30.0,9,0.526,1.0,1742.567,0.19,1,2020-07-10 12:23:29.000,92,2020-07-10 12:52:26.441,0.25,-90,-150,-30,30,1
2993,92,0,1761.338,0,-120,1,0.25,2,9,0.0,0.0,11,48.0,30.0,9,0.451,1.0,1764.7820000000004,0.19,1,2020-07-10 12:23:29.000,92,2020-07-10 12:52:50.338,0.25,-90,-150,-30,30,1
2994,93,0,1785.96,0,-120,1,0.25,2,3,0.0,0.0,5,48.0,30.0,3,0.526,0.0,1788.376,0.12,1,2020-07-10 12:23:29.000,92,2020-07-10 12:53:14.960,0.25,90,30,150,-150,1
2995,94,0,1795.081,0,-120,1,0.25,2,3,0.0,0.0,5,48.0,30.0,3,0.451,0.0,1800.775,0.12,1,2020-07-10 12:23:29.000,92,2020-07-10 12:53:24.081,0.25,90,30,150,-150,1
3062,83,0,1731.885,0,0,1,0.25,2,9,0.0,0.0,11,48.0,30.0,9,0.476,1.0,1733.365,0.18,1,2020-07-10 17:57:43.000,70,2020-07-10 18:26:34.885,0.25,-90,-150,-150,-90,1
3063,84,0,1758.6570000000004,0,0,1,0.25,2,9,0.0,0.0,11,48.0,30.0,9,0.526,1.0,1760.3010000000004,0.18,1,2020-07-10 17:57:43.000,70,2020-07-10 18:27:01.657,0.25,-90,-150,-150,-90,1
3064,85,0,1779.1629999999998,0,0,1,0.25,2,9,0.0,0.0,11,48.0,30.0,9,0.501,1.0,1780.761,0.18,1,2020-07-10 17:57:43.000,70,2020-07-10 18:27:22.163,0.25,-90,-150,-150,-90,1
3065,86,0,1812.314,0,0,1,0.25,2,3,0.0,0.0,5,48.0,30.0,3,0.551,0.0,1813.93,0.13,1,2020-07-10 17:57:43.000,70,2020-07-10 18:27:55.314,0.25,90,30,30,90,1
3066,87,0,1821.64,0,0,1,0.25,2,9,0.0,0.0,11,48.0,30.0,9,0.526,1.0,1823.568,0.18,1,2020-07-10 17:57:43.000,70,2020-07-10 18:28:04.640,0.25,-90,-150,-150,-90,1
3067,88,0,1841.295,0,0,1,0.25,2,9,0.0,0.0,11,48.0,30.0,9,0.501,1.0,1843.749,0.18,1,2020-07-10 17:57:43.000,70,2020-07-10 18:28:24.295,0.25,-90,-150,-150,-90,1
3068,89,0,1870.295,0,0,1,0.25,2,9,0.0,0.0,11,48.0,30.0,9,0.451,0.0,1872.135,0.0,0,2020-07-10 17:57:43.000,70,2020-07-10 18:28:53.295,0.25,90,-150,-150,90,1
3069,91,0,1902.488,0,0,1,0.25,2,3,0.0,0.0,5,48.0,30.0,3,0.476,0.0,1904.204,0.13,1,2020-07-10 17:57:43.000,70,2020-07-10 18:29:25.488,0.25,90,30,30,90,1
3070,92,0,1924.08,0,0,1,0.25,2,9,0.0,0.0,11,48.0,30.0,9,0.551,1.0,1925.603,0.18,1,2020-07-10 17:57:43.000,70,2020-07-10 18:29:47.080,0.25,-90,-150,-150,-90,1
3071,93,0,1945.771,0,0,1,0.25,2,3,0.0,0.0,5,48.0,30.0,3,0.501,0.0,1947.091,0.13,1,2020-07-10 17:57:43.000,70,2020-07-10 18:30:08.771,0.25,90,30,30,90,1
3352,49,0,1034.969,0,150,1,0.25,2,9,0.0,0.0,11,48.0,30.0,9,0.476,1.0,1039.067,0.19,1,2020-07-15 12:13:28.000,29,2020-07-15 12:30:42.969,0.25,-90,-150,60,120,1
3353,50,0,1062.655,0,150,1,0.25,2,3,0.0,0.0,5,48.0,30.0,3,0.551,1.0,1065.192,0.0,0,2020-07-15 12:13:28.000,29,2020-07-15 12:31:10.655,0.25,-90,30,-120,120,1
3354,53,0,1118.717,0,150,1,0.25,2,3,0.0,0.0,5,48.0,30.0,3,0.501,0.0,1121.345,0.12,1,2020-07-15 12:13:28.000,29,2020-07-15 12:32:06.717,0.25,90,30,-120,-60,1
3355,54,0,1153.3,0,150,1,0.25,2,9,0.0,0.0,11,48.0,30.0,9,0.526,0.0,1154.849,0.0,0,2020-07-15 12:13:28.000,29,2020-07-15 12:32:41.300,0.25,90,-150,60,-60,1
3356,56,0,1197.046,0,150,1,0.25,2,3,0.0,0.0,5,48.0,30.0,3,0.451,0.0,1199.357,0.12,1,2020-07-15 12:13:28.000,29,2020-07-15 12:33:25.046,0.25,90,30,-120,-60,1
3357,57,0,1207.5839999999996,0,150,1,0.25,2,3,0.0,0.0,5,48.0,30.0,3,0.501,0.0,1209.079,0.12,1,2020-07-15 12:13:28.000,29,2020-07-15 12:33:35.584,0.25,90,30,-120,-60,1
3358,58,0,1218.607,0,150,1,0.25,2,3,0.0,0.0,5,48.0,30.0,3,0.476,0.0,1220.088,0.12,1,2020-07-15 12:13:28.000,29,2020-07-15 12:33:46.607,0.25,90,30,-120,-60,1
3359,59,0,1234.923,0,150,1,0.25,2,9,0.0,0.0,11,48.0,30.0,9,0.526,1.0,1236.489,0.19,1,2020-07-15 12:13:28.000,29,2020-07-15 12:34:02.923,0.25,-90,-150,60,120,1
3360,60,0,1301.208,0,150,1,0.25,2,9,0.0,0.0,11,48.0,30.0,9,0.551,1.0,1302.525,0.19,1,2020-07-15 12:13:28.000,29,2020-07-15 12:35:09.208,0.25,-90,-150,60,120,1
3361,61,0,1315.9679999999996,0,150,1,0.25,2,9,0.0,0.0,11,48.0,30.0,9,0.526,0.0,1317.335,0.0,0,2020-07-15 12:13:28.000,29,2020-07-15 12:35:23.968,0.25,90,-150,60,-60,1
3409,57,0,1013.169,0,0,1,0.25,2,9,0.0,0.0,11,48.0,30.0,9,0.501,1.0,1014.872,0.19,1,2020-07-15 17:43:30.000,6,2020-07-15 18:00:23.169,0.25,-90,-150,-150,-90,1
3410,58,0,1035.882,0,0,1,0.25,2,9,0.0,0.0,11,48.0,30.0,9,0.451,1.0,1038.207,0.19,1,2020-07-15 17:43:30.000,6,2020-07-15 18:00:45.882,0.25,-90,-150,-150,-90,1
3411,59,0,1063.894,0,0,1,0.25,2,3,0.0,0.0,5,48.0,30.0,3,0.526,1.0,1065.467,0.0,0,2020-07-15 17:43:30.000,6,2020-07-15 18:01:13.894,0.25,-90,30,30,-90,1
3412,61,0,1079.561,0,0,1,0.25,2,3,0.0,0.0,5,48.0,30.0,3,0.451,0.0,1080.941,0.12,1,2020-07-15 17:43:30.000,6,2020-07-15 18:01:29.561,0.25,90,30,30,90,1
3413,62,0,1119.76,0,0,1,0.25,2,3,0.0,0.0,5,48.0,30.0,3,0.476,0.0,1121.557,0.12,1,2020-07-15 17:43:30.000,6,2020-07-15 18:02:09.760,0.25,90,30,30,90,1
3414,63,0,1128.545,0,0,1,0.25,2,9,0.0,0.0,11,48.0,30.0,9,0.526,1.0,1130.412,0.19,1,2020-07-15 17:43:30.000,6,2020-07-15 18:02:18.545,0.25,-90,-150,-150,-90,1
3415,64,0,1156.165,0,0,1,0.25,2,3,0.0,0.0,5,48.0,30.0,3,0.501,0.0,1157.636,0.12,1,2020-07-15 17:43:30.000,6,2020-07-15 18:02:46.165,0.25,90,30,30,90,1
3416,65,0,1164.513,0,0,1,0.25,2,9,0.0,0.0,11,48.0,30.0,9,0.551,1.0,1166.473,0.19,1,2020-07-15 17:43:30.000,6,2020-07-15 18:02:54.513,0.25,-90,-150,-150,-90,1
3417,66,0,1202.974,0,0,1,0.25,2,9,0.0,0.0,11,48.0,30.0,9,0.551,0.0,1210.465,0.0,0,2020-07-15 17:43:30.000,6,2020-07-15 18:03:32.974,0.25,90,-150,-150,90,1
3418,68,0,1233.246,0,0,1,0.25,2,9,0.0,0.0,11,48.0,30.0,9,0.451,1.0,1236.555,0.19,1,2020-07-15 17:43:30.000,6,2020-07-15 18:04:03.246,0.25,-90,-150,-150,-90,1
3557,69,0,1311.915,0,-30,1,0.25,2,3,0.0,0.0,5,48.0,30.0,3,0.551,0.0,1313.463,0.13,1,2020-07-16 17:59:18.000,28,2020-07-16 18:21:09.915,0.25,90,30,60,120,1
3558,70,0,1319.835,0,-30,1,0.25,2,9,0.0,0.0,11,48.0,30.0,9,0.476,1.0,1321.875,0.18,1,2020-07-16 17:59:18.000,28,2020-07-16 18:21:17.835,0.25,-90,-150,-120,-60,1
3559,71,0,1345.964,0,-30,1,0.25,2,3,0.0,0.0,5,48.0,30.0,3,0.526,0.0,1347.494,0.13,1,2020-07-16 17:59:18.000,28,2020-07-16 18:21:43.964,0.25,90,30,60,120,1
3560,72,0,1355.9489999999996,0,-30,1,0.25,2,3,0.0,0.0,5,48.0,30.0,3,0.501,0.0,1357.689,0.13,1,2020-07-16 17:59:18.000,28,2020-07-16 18:21:53.949,0.25,90,30,60,120,1
3561,73,0,1368.65,0,-30,1,0.25,2,3,0.0,0.0,5,48.0,30.0,3,0.451,0.0,1371.379,0.13,1,2020-07-16 17:59:18.000,28,2020-07-16 18:22:06.650,0.25,90,30,60,120,1
3562,74,0,1379.3829999999996,0,-30,1,0.25,2,9,0.0,0.0,11,48.0,30.0,9,0.501,1.0,1380.876,0.18,1,2020-07-16 17:59:18.000,28,2020-07-16 18:22:17.383,0.25,-90,-150,-120,-60,1
3563,75,0,1412.523,0,-30,1,0.25,2,9,0.0,0.0,11,48.0,30.0,9,0.476,1.0,1414.256,0.18,1,2020-07-16 17:59:18.000,28,2020-07-16 18:22:50.523,0.25,-90,-150,-120,-60,1
3564,76,0,1428.22,0,-30,1,0.25,2,9,0.0,0.0,11,48.0,30.0,9,0.451,1.0,1430.406,0.18,1,2020-07-16 17:59:18.000,28,2020-07-16 18:23:06.220,0.25,-90,-150,-120,-60,1
3565,77,0,1450.694,0,-30,1,0.25,2,9,0.0,0.0,11,48.0,30.0,9,0.526,1.0,1452.1660000000004,0.18,1,2020-07-16 17:59:18.000,28,2020-07-16 18:23:28.694,0.25,-90,-150,-120,-60,1
3566,78,0,1490.8570000000002,0,-30,1,0.25,2,3,0.0,0.0,5,48.0,30.0,3,0.551,0.0,1492.341,0.13,1,2020-07-16 17:59:18.000,28,2020-07-16 18:24:08.857,0.25,90,30,60,120,1
3696,76,0,1505.567,0,-60,1,0.25,2,9,0.0,0.0,11,48.0,30.0,9,0.451,1.0,1507.118,0.19,1,2020-07-17 18:50:41.000,168,2020-07-17 19:15:46.567,0.25,-90,-150,-90,-30,1
3697,77,0,1523.787,0,-60,1,0.25,2,9,0.0,0.0,11,48.0,30.0,9,0.551,1.0,1525.8729999999996,0.19,1,2020-07-17 18:50:41.000,168,2020-07-17 19:16:04.787,0.25,-90,-150,-90,-30,1
3699,79,0,1564.139,0,-60,1,0.25,2,3,0.0,0.0,5,48.0,30.0,3,0.476,0.0,1565.831,0.12,1,2020-07-17 18:50:41.000,168,2020-07-17 19:16:45.139,0.25,90,30,90,150,1
3700,80,0,1580.342,0,-60,1,0.25,2,9,0.0,0.0,11,48.0,30.0,9,0.501,0.0,1583.2220000000002,0.0,0,2020-07-17 18:50:41.000,168,2020-07-17 19:17:01.342,0.25,90,-150,-90,150,1
3701,82,0,1609.599,0,-60,1,0.25,2,9,0.0,0.0,11,48.0,30.0,9,0.451,1.0,1611.91,0.19,1,2020-07-17 18:50:41.000,168,2020-07-17 19:17:30.599,0.25,-90,-150,-90,-30,1
3702,83,0,1630.32,0,-60,1,0.25,2,9,0.0,0.0,11,48.0,30.0,9,0.551,1.0,1633.146,0.19,1,2020-07-17 18:50:41.000,168,2020-07-17 19:17:51.320,0.25,-90,-150,-90,-30,1
3703,84,0,1652.7910000000004,0,-60,1,0.25,2,9,0.0,0.0,11,48.0,30.0,9,0.526,1.0,1654.527,0.19,1,2020-07-17 18:50:41.000,168,2020-07-17 19:18:13.791,0.25,-90,-150,-90,-30,1
3704,85,0,1671.733,0,-60,1,0.25,2,9,0.0,0.0,11,48.0,30.0,9,0.451,1.0,1673.658,0.19,1,2020-07-17 18:50:41.000,168,2020-07-17 19:18:32.733,0.25,-90,-150,-90,-30,1
3705,86,0,1691.6370000000004,0,-60,1,0.25,2,9,0.0,0.0,11,48.0,30.0,9,0.476,1.0,1693.644,0.19,1,2020-07-17 18:50:41.000,168,2020-07-17 19:18:52.637,0.25,-90,-150,-90,-30,1
3706,87,0,1742.605,0,-60,1,0.25,2,3,0.0,0.0,5,48.0,30.0,3,0.551,1.0,1744.4160000000004,0.0,0,2020-07-17 18:50:41.000,168,2020-07-17 19:19:43.605,0.25,-90,30,90,-30,1
3792,99,0,1963.523,0,-30,1,0.25,2,9,0.0,0.0,11,48.0,30.0,9,0.476,1.0,1966.098,0.19,1,2020-07-20 12:24:49.000,125,2020-07-20 12:57:32.523,0.25,-90,-150,-120,-60,1
3793,100,0,1989.214,0,-30,1,0.25,2,9,0.0,0.0,11,48.0,30.0,9,0.526,1.0,1992.45,0.19,1,2020-07-20 12:24:49.000,125,2020-07-20 12:57:58.214,0.25,-90,-150,-120,-60,1
3794,101,0,2011.205,0,-30,1,0.25,2,3,0.0,0.0,5,48.0,30.0,3,0.451,0.0,2012.815,0.12,1,2020-07-20 12:24:49.000,125,2020-07-20 12:58:20.205,0.25,90,30,60,120,1
3795,102,0,2026.366,0,-30,1,0.25,2,3,0.0,0.0,5,48.0,30.0,3,0.501,1.0,2028.413,0.0,0,2020-07-20 12:24:49.000,125,2020-07-20 12:58:35.366,0.25,-90,30,60,-60,1
3796,104,0,2047.904,0,-30,1,0.25,2,3,0.0,0.0,5,48.0,30.0,3,0.551,1.0,2049.674,0.0,0,2020-07-20 12:24:49.000,125,2020-07-20 12:58:56.904,0.25,-90,30,60,-60,1
3797,106,0,2063.333,0,-30,1,0.25,2,9,0.0,0.0,11,48.0,30.0,9,0.551,1.0,2064.953,0.19,1,2020-07-20 12:24:49.000,125,2020-07-20 12:59:12.333,0.25,-90,-150,-120,-60,1
3798,107,0,2084.605,0,-30,1,0.25,2,9,0.0,0.0,11,48.0,30.0,9,0.526,1.0,2086.097,0.19,1,2020-07-20 12:24:49.000,125,2020-07-20 12:59:33.605,0.25,-90,-150,-120,-60,1
3799,108,0,2100.481,0,-30,1,0.25,2,3,0.0,0.0,5,48.0,30.0,3,0.451,0.0,2102.104,0.12,1,2020-07-20 12:24:49.000,125,2020-07-20 12:59:49.481,0.25,90,30,60,120,1
3800,109,0,2117.784,0,-30,1,0.25,2,9,0.0,0.0,11,48.0,30.0,9,0.501,1.0,2119.934,0.19,1,2020-07-20 12:24:49.000,125,2020-07-20 13:00:06.784,0.25,-90,-150,-120,-60,1
3802,111,0,2153.324,0,-30,1,0.25,2,3,0.0,0.0,5,48.0,30.0,3,0.476,0.0,2154.761,0.12,1,2020-07-20 12:24:49.000,125,2020-07-20 13:00:42.324,0.25,90,30,60,120,1
3862,67,0,1394.775,0,-60,1,0.25,2,9,0.0,0.0,11,48.0,30.0,9,0.551,1.0,1396.513,0.19,1,2020-07-20 17:11:24.000,129,2020-07-20 17:34:38.775,0.25,-90,-150,-90,-30,1
3863,68,0,1409.253,0,-60,1,0.25,2,9,0.0,0.0,11,48.0,30.0,9,0.501,1.0,1410.779,0.19,1,2020-07-20 17:11:24.000,129,2020-07-20 17:34:53.253,0.25,-90,-150,-90,-30,1
3864,69,0,1440.433,0,-60,1,0.25,2,3,0.0,0.0,5,48.0,30.0,3,0.451,0.0,1446.341,0.12,1,2020-07-20 17:11:24.000,129,2020-07-20 17:35:24.433,0.25,90,30,90,150,1
3865,70,0,1459.812,0,-60,1,0.25,2,3,0.0,0.0,5,48.0,30.0,3,0.476,0.0,1461.465,0.12,1,2020-07-20 17:11:24.000,129,2020-07-20 17:35:43.812,0.25,90,30,90,150,1
3866,71,0,1468.846,0,-60,1,0.25,2,9,0.0,0.0,11,48.0,30.0,9,0.551,1.0,1470.697,0.19,1,2020-07-20 17:11:24.000,129,2020-07-20 17:35:52.846,0.25,-90,-150,-90,-30,1
3867,72,0,1488.352,0,-60,1,0.25,2,9,0.0,0.0,11,48.0,30.0,9,0.526,1.0,1489.733,0.19,1,2020-07-20 17:11:24.000,129,2020-07-20 17:36:12.352,0.25,-90,-150,-90,-30,1
3868,73,0,1535.071,0,-60,1,0.25,2,3,0.0,0.0,5,48.0,30.0,3,0.476,0.0,1536.579,0.12,1,2020-07-20 17:11:24.000,129,2020-07-20 17:36:59.071,0.25,90,30,90,150,1
3869,74,0,1561.882,0,-60,1,0.25,2,3,0.0,0.0,5,48.0,30.0,3,0.526,0.0,1563.4879999999996,0.12,1,2020-07-20 17:11:24.000,129,2020-07-20 17:37:25.882,0.25,90,30,90,150,1
3870,75,0,1570.9589999999996,0,-60,1,0.25,2,3,0.0,0.0,5,48.0,30.0,3,0.501,0.0,1572.141,0.12,1,2020-07-20 17:11:24.000,129,2020-07-20 17:37:34.959,0.25,90,30,90,150,1
3871,76,0,1603.189,0,-60,1,0.25,2,3,0.0,0.0,5,48.0,30.0,3,0.551,0.0,1604.668,0.12,1,2020-07-20 17:11:24.000,129,2020-07-20 17:38:07.189,0.25,90,30,90,150,1
3928,72,0,1526.7179999999996,0,-90,1,0.25,2,3,0.0,0.0,5,48.0,30.0,3,0.501,0.0,1528.289,0.125,1,2020-07-21 12:16:04.000,186,2020-07-21 12:41:30.718,0.25,90,30,120,-180,1
3930,74,0,1551.454,1,-90,1,0.25,2,3,0.0,0.0,5,48.0,30.0,3,0.551,0.0,1553.868,0.125,1,2020-07-21 12:16:04.000,186,2020-07-21 12:41:55.454,0.25,90,30,120,-180,1
3931,75,0,1562.071,0,-90,1,0.25,2,3,0.0,0.0,5,48.0,30.0,3,0.476,0.0,1563.974,0.125,1,2020-07-21 12:16:04.000,186,2020-07-21 12:42:06.071,0.25,90,30,120,-180,1
3932,76,0,1586.121,0,-90,1,0.25,2,3,0.0,0.0,5,48.0,30.0,3,0.501,0.0,1587.49,0.125,1,2020-07-21 12:16:04.000,186,2020-07-21 12:42:30.121,0.25,90,30,120,-180,1
3933,77,0,1599.789,0,-90,1,0.25,2,3,0.0,0.0,5,48.0,30.0,3,0.451,0.0,1601.615,0.125,1,2020-07-21 12:16:04.000,186,2020-07-21 12:42:43.789,0.25,90,30,120,-180,1
3934,78,0,1615.276,0,-90,1,0.25,2,9,0.0,0.0,11,48.0,30.0,9,0.551,0.0,1617.736,0.0,0,2020-07-21 12:16:04.000,186,2020-07-21 12:42:59.276,0.25,90,-150,-60,-180,1
3935,81,0,1654.443,0,-90,1,0.25,2,9,0.0,0.0,11,48.0,30.0,9,0.476,1.0,1656.446,0.185,1,2020-07-21 12:16:04.000,186,2020-07-21 12:43:38.443,0.25,-90,-150,-60,0,1
3936,82,0,1681.126,0,-90,1,0.25,2,9,0.0,0.0,11,48.0,30.0,9,0.526,1.0,1686.115,0.185,1,2020-07-21 12:16:04.000,186,2020-07-21 12:44:05.126,0.25,-90,-150,-60,0,1
3937,83,0,1706.043,0,-90,1,0.25,2,9,0.0,0.0,11,48.0,30.0,9,0.526,1.0,1708.125,0.185,1,2020-07-21 12:16:04.000,186,2020-07-21 12:44:30.043,0.25,-90,-150,-60,0,1
3938,84,0,1728.595,0,-90,1,0.25,2,3,0.0,0.0,5,48.0,30.0,3,0.451,0.0,1730.5,0.125,1,2020-07-21 12:16:04.000,186,2020-07-21 12:44:52.595,0.25,90,30,120,-180,1
4055,82,0,1585.645,0,-120,1,0.25,2,9,0.0,0.0,11,48.0,30.0,9,0.501,1.0,1587.481,0.16,1,2020-07-22 12:45:49.000,101,2020-07-22 13:12:14.645,0.25,-90,-150,-30,30,1
4056,83,0,1604.049,0,-120,1,0.25,2,3,0.0,0.0,5,48.0,30.0,3,0.451,0.0,1609.6429999999998,0.135,1,2020-07-22 12:45:49.000,101,2020-07-22 13:12:33.049,0.25,90,30,150,-150,1
4057,84,0,1617.836,0,-120,1,0.25,2,9,0.0,0.0,11,48.0,30.0,9,0.526,1.0,1618.645,0.16,1,2020-07-22 12:45:49.000,101,2020-07-22 13:12:46.836,0.25,-90,-150,-30,30,1
4058,85,0,1636.063,0,-120,1,0.25,2,9,0.0,0.0,11,48.0,30.0,9,0.551,1.0,1640.331,0.16,1,2020-07-22 12:45:49.000,101,2020-07-22 13:13:05.063,0.25,-90,-150,-30,30,1
4059,86,0,1657.4520000000002,0,-120,1,0.25,2,3,0.0,0.0,5,48.0,30.0,3,0.476,0.0,1659.4129999999998,0.135,1,2020-07-22 12:45:49.000,101,2020-07-22 13:13:26.452,0.25,90,30,150,-150,1
4061,88,0,1685.7679999999998,0,-120,1,0.25,2,3,0.0,0.0,5,48.0,30.0,3,0.476,0.0,1687.809,0.135,1,2020-07-22 12:45:49.000,101,2020-07-22 13:13:54.768,0.25,90,30,150,-150,1
4062,89,0,1693.45,0,-120,1,0.25,2,9,0.0,0.0,11,48.0,30.0,9,0.526,1.0,1695.005,0.16,1,2020-07-22 12:45:49.000,101,2020-07-22 13:14:02.450,0.25,-90,-150,-30,30,1
4063,90,0,1710.0079999999996,0,-120,1,0.25,2,9,0.0,0.0,11,48.0,30.0,9,0.501,1.0,1712.006,0.16,1,2020-07-22 12:45:49.000,101,2020-07-22 13:14:19.008,0.25,-90,-150,-30,30,1
4064,91,0,1723.092,0,-120,1,0.25,2,3,0.0,0.0,5,48.0,30.0,3,0.451,0.0,1724.763,0.135,1,2020-07-22 12:45:49.000,101,2020-07-22 13:14:32.092,0.25,90,30,150,-150,1
4065,92,0,1735.954,0,-120,1,0.25,2,3,0.0,0.0,5,48.0,30.0,3,0.451,1.0,1737.661,0.0,0,2020-07-22 12:45:49.000,101,2020-07-22 13:14:44.954,0.25,-90,30,150,30,1
4117,23,0,490.117,0,0,1,0.25,2,9,0.0,0.0,11,48.0,30.0,9,0.476,1.0,491.415,0.18,1,2020-08-03 11:30:59.000,198,2020-08-03 11:39:09.117,0.25,-90,-150,-150,-90,1
4118,24,0,512.229,0,0,1,0.25,2,9,0.0,0.0,11,48.0,30.0,9,0.451,1.0,513.768,0.18,1,2020-08-03 11:30:59.000,198,2020-08-03 11:39:31.229,0.25,-90,-150,-150,-90,1
4119,25,0,530.906,0,0,1,0.25,2,9,0.0,0.0,11,48.0,30.0,9,0.501,1.0,533.285,0.18,1,2020-08-03 11:30:59.000,198,2020-08-03 11:39:49.906,0.25,-90,-150,-150,-90,1
4120,26,0,547.805,0,0,1,0.25,2,3,0.0,0.0,5,48.0,30.0,3,0.551,1.0,549.428,0.0,0,2020-08-03 11:30:59.000,198,2020-08-03 11:40:06.805,0.25,-90,30,30,-90,1
4121,31,0,677.571,0,0,1,0.25,2,3,0.0,0.0,5,48.0,30.0,3,0.476,0.0,679.706,0.14,1,2020-08-03 11:30:59.000,198,2020-08-03 11:42:16.571,0.25,90,30,30,90,1
4122,32,0,697.314,0,0,1,0.25,2,3,0.0,0.0,5,48.0,30.0,3,0.526,0.0,698.66,0.14,1,2020-08-03 11:30:59.000,198,2020-08-03 11:42:36.314,0.25,90,30,30,90,1
4123,33,0,704.325,0,0,1,0.25,2,3,0.0,0.0,5,48.0,30.0,3,0.551,0.0,706.6410000000002,0.14,1,2020-08-03 11:30:59.000,198,2020-08-03 11:42:43.325,0.25,90,30,30,90,1
4124,34,0,716.2330000000002,0,0,1,0.25,2,9,0.0,0.0,11,48.0,30.0,9,0.526,1.0,718.665,0.17,1,2020-08-03 11:30:59.000,198,2020-08-03 11:42:55.233,0.25,-90,-150,-150,-90,1
4125,35,0,734.143,0,0,1,0.25,2,3,0.0,0.0,5,48.0,30.0,3,0.476,0.0,735.81,0.14,1,2020-08-03 11:30:59.000,198,2020-08-03 11:43:13.143,0.25,90,30,30,90,1
4126,36,0,742.817,0,0,1,0.25,2,9,0.0,0.0,11,48.0,30.0,9,0.451,0.0,748.8480000000002,0.0,0,2020-08-03 11:30:59.000,198,2020-08-03 11:43:21.817,0.25,90,-150,-150,90,1
4345,90,0,1827.396,0,150,1,0.25,2,3,0.0,0.0,5,48.0,30.0,3,0.501,0.0,1828.951,0.12,1,2020-08-05 11:54:19.000,115,2020-08-05 12:24:46.396,0.25,90,30,-120,-60,1
4346,91,0,1835.077,0,150,1,0.25,2,3,0.0,0.0,5,48.0,30.0,3,0.451,0.0,1837.262,0.12,1,2020-08-05 11:54:19.000,115,2020-08-05 12:24:54.077,0.25,90,30,-120,-60,1
4347,92,0,1843.601,0,150,1,0.25,2,9,0.0,0.0,11,48.0,30.0,9,0.451,1.0,1845.277,0.185,1,2020-08-05 11:54:19.000,115,2020-08-05 12:25:02.601,0.25,-90,-150,60,120,1
4348,93,0,1859.821,0,150,1,0.25,2,3,0.0,0.0,5,48.0,30.0,3,0.476,0.0,1868.16,0.12,1,2020-08-05 11:54:19.000,115,2020-08-05 12:25:18.821,0.25,90,30,-120,-60,1
4349,94,0,1887.078,0,150,1,0.25,2,3,0.0,0.0,5,48.0,30.0,3,0.551,0.0,1891.812,0.12,1,2020-08-05 11:54:19.000,115,2020-08-05 12:25:46.078,0.25,90,30,-120,-60,1
4350,95,0,1899.76,0,150,1,0.25,2,9,0.0,0.0,11,48.0,30.0,9,0.526,0.0,1901.624,0.0,0,2020-08-05 11:54:19.000,115,2020-08-05 12:25:58.760,0.25,90,-150,60,-60,1
4351,97,0,1924.971,0,150,1,0.25,2,3,0.0,0.0,5,48.0,30.0,3,0.501,0.0,1926.8,0.12,1,2020-08-05 11:54:19.000,115,2020-08-05 12:26:23.971,0.25,90,30,-120,-60,1
4352,98,0,1932.259,0,150,1,0.25,2,3,0.0,0.0,5,48.0,30.0,3,0.501,0.0,1934.184,0.12,1,2020-08-05 11:54:19.000,115,2020-08-05 12:26:31.259,0.25,90,30,-120,-60,1
4353,99,0,1940.999,0,150,1,0.25,2,3,0.0,0.0,5,48.0,30.0,3,0.526,0.0,1945.259,0.12,1,2020-08-05 11:54:19.000,115,2020-08-05 12:26:39.999,0.25,90,30,-120,-60,1
4354,100,0,1951.492,0,150,1,0.25,2,9,0.0,0.0,11,48.0,30.0,9,0.451,0.0,1953.898,0.0,0,2020-08-05 11:54:19.000,115,2020-08-05 12:26:50.492,0.25,90,-150,60,-60,1
4398,63,0,1284.637,0,90,1,0.25,2,9,0.0,0.0,11,48.0,30.0,9,0.476,0.0,1288.102,0.0,0,2020-08-05 17:32:28.000,172,2020-08-05 17:53:52.637,0.25,90,-150,120,0,1
4399,65,0,1314.6629999999998,0,90,1,0.25,2,3,0.0,0.0,5,48.0,30.0,3,0.501,0.0,1316.53,0.105,1,2020-08-05 17:32:28.000,172,2020-08-05 17:54:22.663,0.25,90,30,-60,0,1
4400,66,0,1322.013,0,90,1,0.25,2,9,0.0,0.0,11,48.0,30.0,9,0.501,1.0,1324.1429999999998,0.19,1,2020-08-05 17:32:28.000,172,2020-08-05 17:54:30.013,0.25,-90,-150,120,-180,1
4401,67,0,1353.328,0,90,1,0.25,2,3,0.0,0.0,5,48.0,30.0,3,0.526,0.0,1357.004,0.1,1,2020-08-05 17:32:28.000,172,2020-08-05 17:55:01.328,0.25,90,30,-60,0,1
4402,68,0,1365.304,0,90,1,0.25,2,3,0.0,0.0,5,48.0,30.0,3,0.551,0.0,1367.5279999999998,0.1,1,2020-08-05 17:32:28.000,172,2020-08-05 17:55:13.304,0.25,90,30,-60,0,1
4403,69,0,1381.1070000000002,0,90,1,0.25,2,3,0.0,0.0,5,48.0,30.0,3,0.476,0.0,1384.342,0.1,1,2020-08-05 17:32:28.000,172,2020-08-05 17:55:29.107,0.25,90,30,-60,0,1
4404,70,0,1391.588,0,90,1,0.25,2,9,0.0,0.0,11,48.0,30.0,9,0.451,1.0,1393.358,0.19,1,2020-08-05 17:32:28.000,172,2020-08-05 17:55:39.588,0.25,-90,-150,120,-180,1
4405,71,0,1408.481,0,90,1,0.25,2,3,0.0,0.0,5,48.0,30.0,3,0.551,0.0,1410.6270000000004,0.1,1,2020-08-05 17:32:28.000,172,2020-08-05 17:55:56.481,0.25,90,30,-60,0,1
4406,72,0,1416.8629999999996,0,90,1,0.25,2,3,0.0,0.0,5,48.0,30.0,3,0.451,0.0,1418.775,0.1,1,2020-08-05 17:32:28.000,172,2020-08-05 17:56:04.863,0.25,90,30,-60,0,1
4407,73,0,1442.5120000000004,0,90,1,0.25,2,3,0.0,0.0,5,48.0,30.0,3,0.501,0.0,1445.331,0.1,1,2020-08-05 17:32:28.000,172,2020-08-05 17:56:30.512,0.25,90,30,-60,0,1
4471,77,0,1441.776,0,-60,1,0.25,2,3,0.0,0.0,5,48.0,30.0,3,0.476,0.0,1443.451,0.13,1,2020-08-06 11:25:49.000,130,2020-08-06 11:49:50.776,0.25,90,30,90,150,1
4472,78,0,1452.293,0,-60,1,0.25,2,9,0.0,0.0,11,48.0,30.0,9,0.551,1.0,1454.129,0.18,1,2020-08-06 11:25:49.000,130,2020-08-06 11:50:01.293,0.25,-90,-150,-90,-30,1
4473,79,0,1467.609,0,-60,1,0.25,2,3,0.0,0.0,5,48.0,30.0,3,0.501,0.0,1469.703,0.13,1,2020-08-06 11:25:49.000,130,2020-08-06 11:50:16.609,0.25,90,30,90,150,1
4474,80,0,1476.217,0,-60,1,0.25,2,3,0.0,0.0,5,48.0,30.0,3,0.551,0.0,1477.537,0.13,1,2020-08-06 11:25:49.000,130,2020-08-06 11:50:25.217,0.25,90,30,90,150,1
4475,81,0,1492.561,0,-60,1,0.25,2,3,0.0,0.0,5,48.0,30.0,3,0.526,0.0,1494.9,0.13,1,2020-08-06 11:25:49.000,130,2020-08-06 11:50:41.561,0.25,90,30,90,150,1
4477,83,0,1523.287,0,-60,1,0.25,2,3,0.0,0.0,5,48.0,30.0,3,0.451,0.0,1525.7179999999996,0.13,1,2020-08-06 11:25:49.000,130,2020-08-06 11:51:12.287,0.25,90,30,90,150,1
4478,84,0,1530.9160000000004,0,-60,1,0.25,2,9,0.0,0.0,11,48.0,30.0,9,0.526,1.0,1533.79,0.18,1,2020-08-06 11:25:49.000,130,2020-08-06 11:51:19.916,0.25,-90,-150,-90,-30,1
4479,85,0,1548.319,0,-60,1,0.25,2,9,0.0,0.0,11,48.0,30.0,9,0.551,1.0,1551.065,0.18,1,2020-08-06 11:25:49.000,130,2020-08-06 11:51:37.319,0.25,-90,-150,-90,-30,1
4480,86,0,1569.808,0,-60,1,0.25,2,9,0.0,0.0,11,48.0,30.0,9,0.501,1.0,1571.9879999999996,0.18,1,2020-08-06 11:25:49.000,130,2020-08-06 11:51:58.808,0.25,-90,-150,-90,-30,1
4482,88,0,1596.458,0,-60,1,0.25,2,3,0.0,0.0,5,48.0,30.0,3,0.451,0.0,1599.1429999999998,0.13,1,2020-08-06 11:25:49.000,130,2020-08-06 11:52:25.458,0.25,90,30,90,150,1
4550,83,0,1476.606,0,180,1,0.25,2,3,0.0,0.0,5,48.0,30.0,3,0.526,0.0,1479.705,0.13,1,2020-08-06 17:13:01.000,122,2020-08-06 17:37:37.606,0.25,90,30,-150,-90,1
4551,84,0,1496.642,0,180,1,0.25,2,3,0.0,0.0,5,48.0,30.0,3,0.451,0.0,1498.471,0.13,1,2020-08-06 17:13:01.000,122,2020-08-06 17:37:57.642,0.25,90,30,-150,-90,1
4552,85,0,1505.611,0,180,1,0.25,2,3,0.0,0.0,5,48.0,30.0,3,0.501,0.0,1510.006,0.13,1,2020-08-06 17:13:01.000,122,2020-08-06 17:38:06.611,0.25,90,30,-150,-90,1
4553,86,0,1519.05,0,180,1,0.25,2,9,0.0,0.0,11,48.0,30.0,9,0.501,1.0,1520.5970000000002,0.18,1,2020-08-06 17:13:01.000,122,2020-08-06 17:38:20.050,0.25,-90,-150,30,90,1
4554,87,0,1544.531,0,180,1,0.25,2,3,0.0,0.0,5,48.0,30.0,3,0.451,0.0,1546.066,0.13,1,2020-08-06 17:13:01.000,122,2020-08-06 17:38:45.531,0.25,90,30,-150,-90,1
4555,88,0,1567.477,0,180,1,0.25,2,9,0.0,0.0,11,48.0,30.0,9,0.551,1.0,1569.311,0.18,1,2020-08-06 17:13:01.000,122,2020-08-06 17:39:08.477,0.25,-90,-150,30,90,1
4556,89,0,1612.386,0,180,1,0.25,2,3,0.0,0.0,5,48.0,30.0,3,0.476,0.0,1616.226,0.13,1,2020-08-06 17:13:01.000,122,2020-08-06 17:39:53.386,0.25,90,30,-150,-90,1
4557,90,0,1624.544,0,180,1,0.25,2,9,0.0,0.0,11,48.0,30.0,9,0.526,1.0,1626.376,0.18,1,2020-08-06 17:13:01.000,122,2020-08-06 17:40:05.544,0.25,-90,-150,30,90,1
4558,91,0,1644.726,0,180,1,0.25,2,3,0.0,0.0,5,48.0,30.0,3,0.501,0.0,1646.694,0.13,1,2020-08-06 17:13:01.000,122,2020-08-06 17:40:25.726,0.25,90,30,-150,-90,1
4559,92,0,1651.991,0,180,1,0.25,2,9,0.0,0.0,11,48.0,30.0,9,0.451,0.0,1655.8270000000002,0.0,0,2020-08-06 17:13:01.000,122,2020-08-06 17:40:32.991,0.25,90,-150,30,-90,1
4645,109,0,1851.286,0,60,1,0.25,2,3,0.0,0.0,5,48.0,30.0,3,0.476,1.0,1853.241,0.0,0,2020-08-07 11:54:21.000,201,2020-08-07 12:25:12.286,0.25,-90,30,-30,-150,1
4646,111,0,1867.632,0,60,1,0.25,2,3,0.0,0.0,5,48.0,30.0,3,0.451,0.0,1869.939,0.135,1,2020-08-07 11:54:21.000,201,2020-08-07 12:25:28.632,0.25,90,30,-30,30,1
4647,112,0,1876.49,0,60,1,0.25,2,9,0.0,0.0,11,48.0,30.0,9,0.501,1.0,1878.674,0.175,1,2020-08-07 11:54:21.000,201,2020-08-07 12:25:37.490,0.25,-90,-150,150,-150,1
4648,113,0,1884.718,0,60,1,0.25,2,9,0.0,0.0,11,48.0,30.0,9,0.526,1.0,1887.031,0.175,1,2020-08-07 11:54:21.000,201,2020-08-07 12:25:45.718,0.25,-90,-150,150,-150,1
4649,114,0,1908.134,0,60,1,0.25,2,9,0.0,0.0,11,48.0,30.0,9,0.551,1.0,1909.509,0.175,1,2020-08-07 11:54:21.000,201,2020-08-07 12:26:09.134,0.25,-90,-150,150,-150,1
4651,116,0,1957.882,0,60,1,0.25,2,3,0.0,0.0,5,48.0,30.0,3,0.451,0.0,1960.068,0.135,1,2020-08-07 11:54:21.000,201,2020-08-07 12:26:58.882,0.25,90,30,-30,30,1
4652,117,0,1967.391,0,60,1,0.25,2,9,0.0,0.0,11,48.0,30.0,9,0.501,1.0,1969.414,0.175,1,2020-08-07 11:54:21.000,201,2020-08-07 12:27:08.391,0.25,-90,-150,150,-150,1
4653,118,0,1987.699,0,60,1,0.25,2,9,0.0,0.0,11,48.0,30.0,9,0.526,0.0,1990.977,0.0,0,2020-08-07 11:54:21.000,201,2020-08-07 12:27:28.699,0.25,90,-150,150,30,1
4654,120,0,2029.093,0,60,1,0.25,2,3,0.0,0.0,5,48.0,30.0,3,0.476,0.0,2031.764,0.135,1,2020-08-07 11:54:21.000,201,2020-08-07 12:28:10.093,0.25,90,30,-30,30,1
4656,122,0,2050.85,0,60,1,0.25,2,9,0.0,0.0,11,48.0,30.0,9,0.551,1.0,2053.1420000000007,0.175,1,2020-08-07 11:54:21.000,201,2020-08-07 12:28:31.850,0.25,-90,-150,150,-150,1
4713,69,0,1207.606,0,90,1,0.25,2,9,0.0,0.0,11,48.0,30.0,9,0.501,0.0,1209.701,0.0,0,2020-08-07 17:18:59.000,146,2020-08-07 17:39:06.606,0.25,90,-150,120,0,1
4716,74,0,1292.172,0,90,1,0.25,2,3,0.0,0.0,5,48.0,30.0,3,0.551,0.0,1294.614,0.13,1,2020-08-07 17:18:59.000,146,2020-08-07 17:40:31.172,0.25,90,30,-60,0,1
4717,75,0,1300.136,0,90,1,0.25,2,9,0.0,0.0,11,48.0,30.0,9,0.476,0.0,1302.025,0.0,0,2020-08-07 17:18:59.000,146,2020-08-07 17:40:39.136,0.25,90,-150,120,0,1
4718,77,0,1332.886,0,90,1,0.25,2,9,0.0,0.0,11,48.0,30.0,9,0.526,0.0,1335.4070000000004,0.0,0,2020-08-07 17:18:59.000,146,2020-08-07 17:41:11.886,0.25,90,-150,120,0,1
4719,79,0,1366.105,0,90,1,0.25,2,3,0.0,0.0,5,48.0,30.0,3,0.501,0.0,1368.481,0.12,1,2020-08-07 17:18:59.000,146,2020-08-07 17:41:45.105,0.25,90,30,-60,0,1
4721,81,0,1399.4129999999998,0,90,1,0.25,2,9,0.0,0.0,11,48.0,30.0,9,0.551,0.0,1401.469,0.0,0,2020-08-07 17:18:59.000,146,2020-08-07 17:42:18.413,0.25,90,-150,120,0,1
4722,83,0,1435.693,0,90,1,0.25,2,3,0.0,0.0,5,48.0,30.0,3,0.501,0.0,1437.8,0.12,1,2020-08-07 17:18:59.000,146,2020-08-07 17:42:54.693,0.25,90,30,-60,0,1
4723,84,0,1442.793,0,90,1,0.25,2,9,0.0,0.0,11,48.0,30.0,9,0.451,0.0,1447.784,0.0,0,2020-08-07 17:18:59.000,146,2020-08-07 17:43:01.793,0.25,90,-150,120,0,1
4724,86,0,1470.871,0,90,1,0.25,2,3,0.0,0.0,5,48.0,30.0,3,0.551,0.0,1472.8770000000004,0.12,1,2020-08-07 17:18:59.000,146,2020-08-07 17:43:29.871,0.25,90,30,-60,0,1
4725,87,0,1480.655,0,90,1,0.25,2,9,0.0,0.0,11,48.0,30.0,9,0.476,0.0,1485.82,0.0,0,2020-08-07 17:18:59.000,146,2020-08-07 17:43:39.655,0.25,90,-150,120,0,1
4746,24,0,417.8130000000001,0,-30,1,0.25,2,9,0.0,0.0,11,48.0,30.0,9,0.526,0.0,419.952,0.0,0,2020-08-11 11:27:43.000,200,2020-08-11 11:34:40.813,0.25,90,-150,-120,120,1
4747,26,0,447.5630000000001,0,-30,1,0.25,2,3,0.0,0.0,5,48.0,30.0,3,0.551,0.0,450.018,0.13,1,2020-08-11 11:27:43.000,200,2020-08-11 11:35:10.563,0.25,90,30,60,120,1
4748,27,0,456.719,0,-30,1,0.25,2,3,0.0,0.0,5,48.0,30.0,3,0.501,0.0,458.684,0.13,1,2020-08-11 11:27:43.000,200,2020-08-11 11:35:19.719,0.25,90,30,60,120,1
4749,28,0,470.055,0,-30,1,0.25,2,3,0.0,0.0,5,48.0,30.0,3,0.451,0.0,472.153,0.13,1,2020-08-11 11:27:43.000,200,2020-08-11 11:35:33.055,0.25,90,30,60,120,1
4750,29,0,478.479,0,-30,1,0.25,2,9,0.0,0.0,11,48.0,30.0,9,0.476,1.0,479.975,0.18,1,2020-08-11 11:27:43.000,200,2020-08-11 11:35:41.479,0.25,-90,-150,-120,-60,1
4751,30,0,500.397,0,-30,1,0.25,2,3,0.0,0.0,5,48.0,30.0,3,0.476,0.0,501.735,0.13,1,2020-08-11 11:27:43.000,200,2020-08-11 11:36:03.397,0.25,90,30,60,120,1
4752,31,0,530.01,0,-30,1,0.25,2,3,0.0,0.0,5,48.0,30.0,3,0.551,0.0,531.279,0.13,1,2020-08-11 11:27:43.000,200,2020-08-11 11:36:33.010,0.25,90,30,60,120,1
4753,32,0,545.35,0,-30,1,0.25,2,9,0.0,0.0,11,48.0,30.0,9,0.501,1.0,547.014,0.18,1,2020-08-11 11:27:43.000,200,2020-08-11 11:36:48.350,0.25,-90,-150,-120,-60,1
4754,33,0,565.735,0,-30,1,0.25,2,3,0.0,0.0,5,48.0,30.0,3,0.451,0.0,567.0880000000002,0.13,1,2020-08-11 11:27:43.000,200,2020-08-11 11:37:08.735,0.25,90,30,60,120,1
4755,34,0,593.2230000000002,0,-30,1,0.25,2,3,0.0,0.0,5,48.0,30.0,3,0.526,0.0,594.836,0.13,1,2020-08-11 11:27:43.000,200,2020-08-11 11:37:36.223,0.25,90,30,60,120,1
4806,73,0,1206.1660000000004,0,30,1,0.25,2,9,0.0,0.0,11,48.0,30.0,9,0.451,1.0,1207.671,0.18,1,2020-08-11 16:54:17.000,126,2020-08-11 17:14:23.166,0.25,-90,-150,-180,-120,1
4807,74,0,1234.952,0,30,1,0.25,2,9,0.0,0.0,11,48.0,30.0,9,0.476,0.0,1236.618,0.0,0,2020-08-11 16:54:17.000,126,2020-08-11 17:14:51.952,0.25,90,-150,-180,60,1
4808,76,0,1272.037,1,30,1,0.25,2,9,0.0,0.0,11,48.0,30.0,9,0.501,0.0,1280.02,0.0,0,2020-08-11 16:54:17.000,126,2020-08-11 17:15:29.037,0.25,90,-150,-180,60,1
4809,78,0,1313.884,0,30,1,0.25,2,9,0.0,0.0,11,48.0,30.0,9,0.551,0.0,1316.446,0.0,0,2020-08-11 16:54:17.000,126,2020-08-11 17:16:10.884,0.25,90,-150,-180,60,1
4811,82,0,1379.841,1,30,1,0.25,2,3,0.0,0.0,5,48.0,30.0,3,0.526,0.0,1389.271,0.13,1,2020-08-11 16:54:17.000,126,2020-08-11 17:17:16.841,0.25,90,30,0,60,1
4812,83,0,1400.172,0,30,1,0.25,2,3,0.0,0.0,5,48.0,30.0,3,0.451,0.0,1402.25,0.13,1,2020-08-11 16:54:17.000,126,2020-08-11 17:17:37.172,0.25,90,30,0,60,1
4814,85,0,1420.19,0,30,1,0.25,2,3,0.0,0.0,5,48.0,30.0,3,0.476,0.0,1422.3370000000002,0.13,1,2020-08-11 16:54:17.000,126,2020-08-11 17:17:57.190,0.25,90,30,0,60,1
4815,86,0,1430.121,0,30,1,0.25,2,3,0.0,0.0,5,48.0,30.0,3,0.551,0.0,1433.33,0.13,1,2020-08-11 16:54:17.000,126,2020-08-11 17:18:07.121,0.25,90,30,0,60,1
4816,87,0,1441.371,0,30,1,0.25,2,3,0.0,0.0,5,48.0,30.0,3,0.526,0.0,1444.874,0.13,1,2020-08-11 16:54:17.000,126,2020-08-11 17:18:18.371,0.25,90,30,0,60,1
4818,89,0,1474.62,0,30,1,0.25,2,3,0.0,0.0,5,48.0,30.0,3,0.551,1.0,1477.247,0.0,0,2020-08-11 16:54:17.000,126,2020-08-11 17:18:51.620,0.25,-90,30,0,-120,1
4947,59,0,1066.549,0,-30,1,0.25,2,9,0.0,0.0,11,48.0,30.0,9,0.526,1.0,1069.031,0.18,1,2020-08-12 17:10:53.000,103,2020-08-12 17:28:39.549,0.25,-90,-150,-120,-60,1
4948,60,0,1084.637,0,-30,1,0.25,2,9,0.0,0.0,11,48.0,30.0,9,0.476,1.0,1087.148,0.18,1,2020-08-12 17:10:53.000,103,2020-08-12 17:28:57.637,0.25,-90,-150,-120,-60,1
4949,61,0,1103.716,1,-30,1,0.25,2,3,0.0,0.0,5,48.0,30.0,3,0.451,0.0,1111.406,0.13,1,2020-08-12 17:10:53.000,103,2020-08-12 17:29:16.716,0.25,90,30,60,120,1
4950,62,0,1116.341,0,-30,1,0.25,2,9,0.0,0.0,11,48.0,30.0,9,0.476,0.0,1119.204,0.0,0,2020-08-12 17:10:53.000,103,2020-08-12 17:29:29.341,0.25,90,-150,-120,120,1
4951,64,0,1141.545,0,-30,1,0.25,2,9,0.0,0.0,11,48.0,30.0,9,0.451,1.0,1143.607,0.18,1,2020-08-12 17:10:53.000,103,2020-08-12 17:29:54.545,0.25,-90,-150,-120,-60,1
4952,65,0,1160.626,0,-30,1,0.25,2,3,0.0,0.0,5,48.0,30.0,3,0.526,0.0,1162.706,0.13,1,2020-08-12 17:10:53.000,103,2020-08-12 17:30:13.626,0.25,90,30,60,120,1
4954,67,0,1191.507,0,-30,1,0.25,2,3,0.0,0.0,5,48.0,30.0,3,0.501,0.0,1193.077,0.13,1,2020-08-12 17:10:53.000,103,2020-08-12 17:30:44.507,0.25,90,30,60,120,1
4955,68,0,1212.731,0,-30,1,0.25,2,9,0.0,0.0,11,48.0,30.0,9,0.526,1.0,1214.673,0.18,1,2020-08-12 17:10:53.000,103,2020-08-12 17:31:05.731,0.25,-90,-150,-120,-60,1
4956,69,0,1235.224,0,-30,1,0.25,2,9,0.0,0.0,11,48.0,30.0,9,0.551,1.0,1237.042,0.18,1,2020-08-12 17:10:53.000,103,2020-08-12 17:31:28.224,0.25,-90,-150,-120,-60,1
4957,70,0,1259.38,0,-30,1,0.25,2,3,0.0,0.0,5,48.0,30.0,3,0.501,0.0,1261.245,0.13,1,2020-08-12 17:10:53.000,103,2020-08-12 17:31:52.380,0.25,90,30,60,120,1
5011,67,0,1251.754,1,180,1,0.25,2,9,0.0,0.0,11,48.0,30.0,9,0.476,1.0,1260.622,0.17,1,2020-08-13 11:35:01.000,142,2020-08-13 11:55:52.754,0.25,-90,-150,30,90,1
5012,68,0,1275.54,0,180,1,0.25,2,9,0.0,0.0,11,48.0,30.0,9,0.526,0.0,1279.124,0.0,0,2020-08-13 11:35:01.000,142,2020-08-13 11:56:16.540,0.25,90,-150,30,-90,1
5013,70,0,1305.477,0,180,1,0.25,2,3,0.0,0.0,5,48.0,30.0,3,0.501,0.0,1308.23,0.13,1,2020-08-13 11:35:01.000,142,2020-08-13 11:56:46.477,0.25,90,30,-150,-90,1
5014,71,0,1331.457,0,180,1,0.25,2,9,0.0,0.0,11,48.0,30.0,9,0.451,1.0,1333.172,0.17,1,2020-08-13 11:35:01.000,142,2020-08-13 11:57:12.457,0.25,-90,-150,30,90,1
5015,72,0,1349.92,0,180,1,0.25,2,9,0.0,0.0,11,48.0,30.0,9,0.476,0.0,1351.681,0.0,0,2020-08-13 11:35:01.000,142,2020-08-13 11:57:30.920,0.25,90,-150,30,-90,1
5016,76,0,1414.376,0,180,1,0.25,2,9,0.0,0.0,11,48.0,30.0,9,0.551,0.0,1418.249,0.0,0,2020-08-13 11:35:01.000,142,2020-08-13 11:58:35.376,0.25,90,-150,30,-90,1
5018,80,0,1471.44,0,180,1,0.25,2,9,0.0,0.0,11,48.0,30.0,9,0.451,1.0,1474.428,0.17,1,2020-08-13 11:35:01.000,142,2020-08-13 11:59:32.440,0.25,-90,-150,30,90,1
5019,81,0,1495.872,0,180,1,0.25,2,9,0.0,0.0,11,48.0,30.0,9,0.551,1.0,1497.846,0.17,1,2020-08-13 11:35:01.000,142,2020-08-13 11:59:56.872,0.25,-90,-150,30,90,1
5020,82,0,1516.447,0,180,1,0.25,2,9,0.0,0.0,11,48.0,30.0,9,0.526,0.0,1518.535,0.0,0,2020-08-13 11:35:01.000,142,2020-08-13 12:00:17.447,0.25,90,-150,30,-90,1
5021,87,0,1609.5970000000002,0,180,1,0.25,2,9,0.0,0.0,11,48.0,30.0,9,0.501,1.0,1610.421,0.17,1,2020-08-13 11:35:01.000,142,2020-08-13 12:01:50.597,0.25,-90,-150,30,90,1
5092,79,0,1422.346,0,-30,1,0.25,2,3,0.0,0.0,5,48.0,30.0,3,0.526,0.0,1424.29,0.13,1,2020-08-13 17:00:40.000,98,2020-08-13 17:24:22.346,0.25,90,30,60,120,1
5093,80,0,1429.84,0,-30,1,0.25,2,9,0.0,0.0,11,48.0,30.0,9,0.501,0.0,1432.1470000000004,0.0,0,2020-08-13 17:00:40.000,98,2020-08-13 17:24:29.840,0.25,90,-150,-120,120,1
5094,83,0,1486.4720000000002,0,-30,1,0.25,2,3,0.0,0.0,5,48.0,30.0,3,0.451,0.0,1488.493,0.13,1,2020-08-13 17:00:40.000,98,2020-08-13 17:25:26.472,0.25,90,30,60,120,1
5095,84,0,1495.2520000000004,0,-30,1,0.25,2,9,0.0,0.0,11,48.0,30.0,9,0.476,0.0,1497.588,0.0,0,2020-08-13 17:00:40.000,98,2020-08-13 17:25:35.252,0.25,90,-150,-120,120,1
5096,88,0,1552.043,0,-30,1,0.25,2,9,0.0,0.0,11,48.0,30.0,9,0.551,1.0,1554.063,0.18,1,2020-08-13 17:00:40.000,98,2020-08-13 17:26:32.043,0.25,-90,-150,-120,-60,1
5097,89,0,1572.9679999999996,0,-30,1,0.25,2,9,0.0,0.0,11,48.0,30.0,9,0.501,1.0,1575.4070000000004,0.18,1,2020-08-13 17:00:40.000,98,2020-08-13 17:26:52.968,0.25,-90,-150,-120,-60,1
5098,90,0,1592.908,0,-30,1,0.25,2,9,0.0,0.0,11,48.0,30.0,9,0.476,1.0,1595.328,0.18,1,2020-08-13 17:00:40.000,98,2020-08-13 17:27:12.908,0.25,-90,-150,-120,-60,1
5099,91,0,1631.995,0,-30,1,0.25,2,3,0.0,0.0,5,48.0,30.0,3,0.451,0.0,1636.454,0.13,1,2020-08-13 17:00:40.000,98,2020-08-13 17:27:51.995,0.25,90,30,60,120,1
5100,92,0,1642.11,0,-30,1,0.25,2,3,0.0,0.0,5,48.0,30.0,3,0.526,0.0,1644.571,0.13,1,2020-08-13 17:00:40.000,98,2020-08-13 17:28:02.110,0.25,90,30,60,120,1
5101,93,0,1662.3270000000002,1,-30,1,0.25,2,3,0.0,0.0,5,48.0,30.0,3,0.551,1.0,1671.255,0.0,0,2020-08-13 17:00:40.000,98,2020-08-13 17:28:22.327,0.25,-90,30,60,-60,1
5176,90,0,1673.477,0,150,1,0.25,2,3,0.0,0.0,5,48.0,30.0,3,0.526,0.0,1674.979,0.11,1,2020-08-14 11:39:08.000,162,2020-08-14 12:07:01.477,0.25,90,30,-120,-60,1
5177,91,0,1688.351,0,150,1,0.25,2,9,0.0,0.0,11,48.0,30.0,9,0.501,1.0,1691.677,0.19,1,2020-08-14 11:39:08.000,162,2020-08-14 12:07:16.351,0.25,-90,-150,60,120,1
5178,92,0,1708.601,0,150,1,0.25,2,3,0.0,0.0,5,48.0,30.0,3,0.451,1.0,1710.563,0.0,0,2020-08-14 11:39:08.000,162,2020-08-14 12:07:36.601,0.25,-90,30,-120,120,1
5179,94,0,1742.95,0,150,1,0.25,2,9,0.0,0.0,11,48.0,30.0,9,0.526,1.0,1746.126,0.19,1,2020-08-14 11:39:08.000,162,2020-08-14 12:08:10.950,0.25,-90,-150,60,120,1
5180,95,0,1761.208,0,150,1,0.25,2,9,0.0,0.0,11,48.0,30.0,9,0.551,1.0,1763.826,0.19,1,2020-08-14 11:39:08.000,162,2020-08-14 12:08:29.208,0.25,-90,-150,60,120,1
5182,97,0,1800.901,0,150,1,0.25,2,9,0.0,0.0,11,48.0,30.0,9,0.526,1.0,1803.16,0.19,1,2020-08-14 11:39:08.000,162,2020-08-14 12:09:08.901,0.25,-90,-150,60,120,1
5183,98,0,1819.867,0,150,1,0.25,2,3,0.0,0.0,5,48.0,30.0,3,0.551,0.0,1822.589,0.11,1,2020-08-14 11:39:08.000,162,2020-08-14 12:09:27.867,0.25,90,30,-120,-60,1
5184,99,0,1829.825,0,150,1,0.25,2,9,0.0,0.0,11,48.0,30.0,9,0.501,1.0,1831.471,0.19,1,2020-08-14 11:39:08.000,162,2020-08-14 12:09:37.825,0.25,-90,-150,60,120,1
5185,100,0,1850.934,0,150,1,0.25,2,3,0.0,0.0,5,48.0,30.0,3,0.451,0.0,1853.32,0.11,1,2020-08-14 11:39:08.000,162,2020-08-14 12:09:58.934,0.25,90,30,-120,-60,1
5186,101,0,1876.115,0,150,1,0.25,2,9,0.0,0.0,11,48.0,30.0,9,0.476,0.0,1881.348,0.0,0,2020-08-14 11:39:08.000,162,2020-08-14 12:10:24.115,0.25,90,-150,60,-60,1
5321,50,0,930.319,0,-30,1,0.25,2,9,0.0,0.0,11,48.0,30.0,9,0.501,1.0,932.001,0.18,1,2020-08-17 11:25:15.000,183,2020-08-17 11:40:45.319,0.25,-90,-150,-120,-60,1
5322,51,0,948.942,0,-30,1,0.25,2,9,0.0,0.0,11,48.0,30.0,9,0.451,1.0,951.102,0.18,1,2020-08-17 11:25:15.000,183,2020-08-17 11:41:03.942,0.25,-90,-150,-120,-60,1
5323,52,0,966.567,0,-30,1,0.25,2,9,0.0,0.0,11,48.0,30.0,9,0.551,1.0,969.33,0.18,1,2020-08-17 11:25:15.000,183,2020-08-17 11:41:21.567,0.25,-90,-150,-120,-60,1
5324,53,0,985.755,0,-30,1,0.25,2,3,0.0,0.0,5,48.0,30.0,3,0.551,0.0,987.822,0.13,1,2020-08-17 11:25:15.000,183,2020-08-17 11:41:40.755,0.25,90,30,60,120,1
5325,54,0,994.129,0,-30,1,0.25,2,3,0.0,0.0,5,48.0,30.0,3,0.526,0.0,996.042,0.13,1,2020-08-17 11:25:15.000,183,2020-08-17 11:41:49.129,0.25,90,30,60,120,1
5326,55,0,1003.004,0,-30,1,0.25,2,9,0.0,0.0,11,48.0,30.0,9,0.501,1.0,1015.42,0.18,1,2020-08-17 11:25:15.000,183,2020-08-17 11:41:58.004,0.25,-90,-150,-120,-60,1
5328,57,0,1044.131,0,-30,1,0.25,2,3,0.0,0.0,5,48.0,30.0,3,0.451,0.0,1046.642,0.13,1,2020-08-17 11:25:15.000,183,2020-08-17 11:42:39.131,0.25,90,30,60,120,1
5329,58,0,1055.818,1,-30,1,0.25,2,9,0.0,0.0,11,48.0,30.0,9,0.451,1.0,1062.466,0.18,1,2020-08-17 11:25:15.000,183,2020-08-17 11:42:50.818,0.25,-90,-150,-120,-60,1
5330,59,0,1105.941,0,-30,1,0.25,2,3,0.0,0.0,5,48.0,30.0,3,0.551,0.0,1107.796,0.13,1,2020-08-17 11:25:15.000,183,2020-08-17 11:43:40.941,0.25,90,30,60,120,1
5331,60,0,1117.727,0,-30,1,0.25,2,3,0.0,0.0,5,48.0,30.0,3,0.526,1.0,1127.63,0.0,0,2020-08-17 11:25:15.000,183,2020-08-17 11:43:52.727,0.25,-90,30,60,-60,1
5375,54,0,1020.906,0,-120,1,0.25,2,3,0.0,0.0,5,48.0,30.0,3,0.476,1.0,1023.168,0.0,0,2020-08-17 16:39:56.000,199,2020-08-17 16:56:56.906,0.25,-90,30,150,30,1
5376,57,0,1044.491,0,-120,1,0.25,2,9,0.0,0.0,11,48.0,30.0,9,0.526,0.0,1047.568,0.0,0,2020-08-17 16:39:56.000,199,2020-08-17 16:57:20.491,0.25,90,-150,-30,-150,1
5377,59,0,1074.487,0,-120,1,0.25,2,9,0.0,0.0,11,48.0,30.0,9,0.451,1.0,1076.366,0.18,1,2020-08-17 16:39:56.000,199,2020-08-17 16:57:50.487,0.25,-90,-150,-30,30,1
5378,60,0,1092.043,0,-120,1,0.25,2,9,0.0,0.0,11,48.0,30.0,9,0.476,1.0,1093.888,0.18,1,2020-08-17 16:39:56.000,199,2020-08-17 16:58:08.043,0.25,-90,-150,-30,30,1
5379,61,0,1107.703,0,-120,1,0.25,2,9,0.0,0.0,11,48.0,30.0,9,0.551,1.0,1109.687,0.18,1,2020-08-17 16:39:56.000,199,2020-08-17 16:58:23.703,0.25,-90,-150,-30,30,1
5380,62,0,1116.428,0,-120,1,0.25,2,9,0.0,0.0,11,48.0,30.0,9,0.501,1.0,1118.13,0.18,1,2020-08-17 16:39:56.000,199,2020-08-17 16:58:32.428,0.25,-90,-150,-30,30,1
5381,63,0,1133.716,0,-120,1,0.25,2,9,0.0,0.0,11,48.0,30.0,9,0.526,1.0,1135.093,0.18,1,2020-08-17 16:39:56.000,199,2020-08-17 16:58:49.716,0.25,-90,-150,-30,30,1
5382,64,0,1153.633,0,-120,1,0.25,2,3,0.0,0.0,5,48.0,30.0,3,0.501,0.0,1155.809,0.13,1,2020-08-17 16:39:56.000,199,2020-08-17 16:59:09.633,0.25,90,30,150,-150,1
5383,65,0,1178.391,0,-120,1,0.25,2,9,0.0,0.0,11,48.0,30.0,9,0.476,0.0,1180.612,0.0,0,2020-08-17 16:39:56.000,199,2020-08-17 16:59:34.391,0.25,90,-150,-30,-150,1
5384,67,0,1215.018,0,-120,1,0.25,2,9,0.0,0.0,11,48.0,30.0,9,0.551,0.0,1216.951,0.0,0,2020-08-17 16:39:56.000,199,2020-08-17 17:00:11.018,0.25,90,-150,-30,-150,1
5496,136,0,2380.043,0,-90,1,0.25,2,9,0.0,0.0,11,48.0,30.0,9,0.451,0.0,2382.012,0.0,0,2020-08-18 11:16:25.000,133,2020-08-18 11:56:05.043,0.25,90,-150,-60,-180,1
5497,139,0,2417.524,0,-90,1,0.25,2,9,0.0,0.0,11,48.0,30.0,9,0.551,1.0,2419.588,0.185,1,2020-08-18 11:16:25.000,133,2020-08-18 11:56:42.524,0.25,-90,-150,-60,0,1
5498,140,0,2454.507,0,-90,1,0.25,2,3,0.0,0.0,5,48.0,30.0,3,0.526,0.0,2456.604,0.125,1,2020-08-18 11:16:25.000,133,2020-08-18 11:57:19.507,0.25,90,30,120,-180,1
5499,141,0,2478.829,0,-90,1,0.25,2,9,0.0,0.0,11,48.0,30.0,9,0.501,1.0,2481.199,0.185,1,2020-08-18 11:16:25.000,133,2020-08-18 11:57:43.829,0.25,-90,-150,-60,0,1
5500,142,0,2511.483,0,-90,1,0.25,2,3,0.0,0.0,5,48.0,30.0,3,0.501,0.0,2514.078,0.125,1,2020-08-18 11:16:25.000,133,2020-08-18 11:58:16.483,0.25,90,30,120,-180,1
5501,143,0,2543.881,0,-90,1,0.25,2,3,0.0,0.0,5,48.0,30.0,3,0.451,0.0,2545.916,0.125,1,2020-08-18 11:16:25.000,133,2020-08-18 11:58:48.881,0.25,90,30,120,-180,1
5502,144,0,2555.495,0,-90,1,0.25,2,9,0.0,0.0,11,48.0,30.0,9,0.551,1.0,2557.42,0.185,1,2020-08-18 11:16:25.000,133,2020-08-18 11:59:00.495,0.25,-90,-150,-60,0,1
5503,145,0,2584.904,0,-90,1,0.25,2,3,0.0,0.0,5,48.0,30.0,3,0.526,0.0,2586.4210000000007,0.125,1,2020-08-18 11:16:25.000,133,2020-08-18 11:59:29.904,0.25,90,30,120,-180,1
5504,146,0,2594.217,0,-90,1,0.25,2,3,0.0,0.0,5,48.0,30.0,3,0.476,0.0,2595.704,0.125,1,2020-08-18 11:16:25.000,133,2020-08-18 11:59:39.217,0.25,90,30,120,-180,1
5505,147,0,2603.896,0,-90,1,0.25,2,9,0.0,0.0,11,48.0,30.0,9,0.551,0.0,2606.862,0.0,0,2020-08-18 11:16:25.000,133,2020-08-18 11:59:48.896,0.25,90,-150,-60,-180,1
5588,113,0,1662.964,0,90,1,0.25,2,3,0.0,0.0,5,48.0,30.0,3,0.526,1.0,1665.645,0.0,0,2020-08-18 16:54:56.000,171,2020-08-18 17:22:38.964,0.25,-90,30,-60,-180,1
5589,116,0,1695.112,0,90,1,0.25,2,9,0.0,0.0,11,48.0,30.0,9,0.501,0.0,1704.435,0.0,0,2020-08-18 16:54:56.000,171,2020-08-18 17:23:11.112,0.25,90,-150,120,0,1
5590,118,0,1739.62,0,90,1,0.25,2,3,0.0,0.0,5,48.0,30.0,3,0.476,0.0,1742.3270000000002,0.05,1,2020-08-18 16:54:56.000,171,2020-08-18 17:23:55.620,0.25,90,30,-60,0,1
5591,119,0,1747.757,0,90,1,0.25,2,9,0.0,0.0,11,48.0,30.0,9,0.526,0.0,1750.392,0.0,0,2020-08-18 16:54:56.000,171,2020-08-18 17:24:03.757,0.25,90,-150,120,0,1
5592,122,0,1818.875,0,90,1,0.25,2,9,0.0,0.0,11,48.0,30.0,9,0.451,0.0,1821.741,0.0,0,2020-08-18 16:54:56.000,171,2020-08-18 17:25:14.875,0.25,90,-150,120,0,1
5593,124,0,1849.436,0,90,1,0.25,2,9,0.0,0.0,11,48.0,30.0,9,0.476,1.0,1852.432,0.195,1,2020-08-18 16:54:56.000,171,2020-08-18 17:25:45.436,0.25,-90,-150,120,-180,1
5594,125,0,1871.877,0,90,1,0.25,2,3,0.0,0.0,5,48.0,30.0,3,0.551,1.0,1874.752,0.0,0,2020-08-18 16:54:56.000,171,2020-08-18 17:26:07.877,0.25,-90,30,-60,-180,1
5595,127,0,1899.265,0,90,1,0.25,2,3,0.0,0.0,5,48.0,30.0,3,0.501,0.0,1901.552,0.05,1,2020-08-18 16:54:56.000,171,2020-08-18 17:26:35.265,0.25,90,30,-60,0,1
5596,128,0,1907.323,0,90,1,0.25,2,9,0.0,0.0,11,48.0,30.0,9,0.476,1.0,1910.381,0.195,1,2020-08-18 16:54:56.000,171,2020-08-18 17:26:43.323,0.25,-90,-150,120,-180,1
5597,129,0,1938.515,0,90,1,0.25,2,9,0.0,0.0,11,48.0,30.0,9,0.526,0.0,1940.723,0.0,0,2020-08-18 16:54:56.000,171,2020-08-18 17:27:14.515,0.25,90,-150,120,0,1
5752,72,0,1155.737,0,-150,1,0.25,2,9,0.0,0.0,11,48.0,30.0,9,0.451,1.0,1157.258,0.2,1,2020-08-19 17:18:35.000,141,2020-08-19 17:37:50.737,0.25,-90,-150,0,60,1
5753,73,0,1177.357,0,-150,1,0.25,2,9,0.0,0.0,11,48.0,30.0,9,0.526,1.0,1179.26,0.2,1,2020-08-19 17:18:35.000,141,2020-08-19 17:38:12.357,0.25,-90,-150,0,60,1
5754,74,0,1197.696,0,-150,1,0.25,2,9,0.0,0.0,11,48.0,30.0,9,0.476,1.0,1199.803,0.2,1,2020-08-19 17:18:35.000,141,2020-08-19 17:38:32.696,0.25,-90,-150,0,60,1
5755,75,0,1220.438,1,-150,1,0.25,2,9,0.0,0.0,11,48.0,30.0,9,0.451,1.0,1227.634,0.2,1,2020-08-19 17:18:35.000,141,2020-08-19 17:38:55.438,0.25,-90,-150,0,60,1
5756,76,0,1245.181,0,-150,1,0.25,2,9,0.0,0.0,11,48.0,30.0,9,0.551,1.0,1247.742,0.2,1,2020-08-19 17:18:35.000,141,2020-08-19 17:39:20.181,0.25,-90,-150,0,60,1
5757,77,0,1264.638,0,-150,1,0.25,2,3,0.0,0.0,5,48.0,30.0,3,0.501,0.0,1267.26,0.1,1,2020-08-19 17:18:35.000,141,2020-08-19 17:39:39.638,0.25,90,30,-180,-120,1
5758,78,0,1276.154,0,-150,1,0.25,2,9,0.0,0.0,11,48.0,30.0,9,0.526,1.0,1278.018,0.2,1,2020-08-19 17:18:35.000,141,2020-08-19 17:39:51.154,0.25,-90,-150,0,60,1
5759,79,0,1294.011,0,-150,1,0.25,2,3,0.0,0.0,5,48.0,30.0,3,0.526,0.0,1296.239,0.1,1,2020-08-19 17:18:35.000,141,2020-08-19 17:40:09.011,0.25,90,30,-180,-120,1
5760,80,0,1303.0839999999996,0,-150,1,0.25,2,9,0.0,0.0,11,48.0,30.0,9,0.476,0.0,1305.331,0.0,0,2020-08-19 17:18:35.000,141,2020-08-19 17:40:18.084,0.25,90,-150,0,-120,1
5761,82,0,1342.935,0,-150,1,0.25,2,9,0.0,0.0,11,48.0,30.0,9,0.551,0.0,1345.542,0.0,0,2020-08-19 17:18:35.000,141,2020-08-19 17:40:57.935,0.25,90,-150,0,-120,1
5838,98,0,1608.985,0,60,1,0.25,2,3,0.0,0.0,5,48.0,30.0,3,0.551,0.0,1610.989,0.11,1,2020-08-20 11:58:57.000,116,2020-08-20 12:25:45.985,0.25,90,30,-30,30,1
5839,99,0,1617.64,0,60,1,0.25,2,9,0.0,0.0,11,48.0,30.0,9,0.451,0.0,1619.5839999999996,0.0,0,2020-08-20 11:58:57.000,116,2020-08-20 12:25:54.640,0.25,90,-150,150,30,1
5842,103,0,1661.825,0,60,1,0.25,2,9,0.0,0.0,11,48.0,30.0,9,0.551,0.0,1664.184,0.0,0,2020-08-20 11:58:57.000,116,2020-08-20 12:26:38.825,0.25,90,-150,150,30,1
5845,107,0,1712.427,0,60,1,0.25,2,3,0.0,0.0,5,48.0,30.0,3,0.501,0.0,1714.448,0.11,1,2020-08-20 11:58:57.000,116,2020-08-20 12:27:29.427,0.25,90,30,-30,30,1
5846,108,0,1720.562,0,60,1,0.25,2,9,0.0,0.0,11,48.0,30.0,9,0.451,1.0,1722.378,0.19,1,2020-08-20 11:58:57.000,116,2020-08-20 12:27:37.562,0.25,-90,-150,150,-150,1
5847,109,0,1741.5220000000004,0,60,1,0.25,2,9,0.0,0.0,11,48.0,30.0,9,0.551,0.0,1744.779,0.0,0,2020-08-20 11:58:57.000,116,2020-08-20 12:27:58.522,0.25,90,-150,150,30,1
5848,112,0,1782.193,0,60,1,0.25,2,9,0.0,0.0,11,48.0,30.0,9,0.526,1.0,1784.515,0.19,1,2020-08-20 11:58:57.000,116,2020-08-20 12:28:39.193,0.25,-90,-150,150,-150,1
5849,113,0,1805.235,0,60,1,0.25,2,3,0.0,0.0,5,48.0,30.0,3,0.451,1.0,1807.677,0.0,0,2020-08-20 11:58:57.000,116,2020-08-20 12:29:02.235,0.25,-90,30,-30,-150,1
5850,115,0,1825.265,0,60,1,0.25,2,9,0.0,0.0,11,48.0,30.0,9,0.501,1.0,1827.559,0.19,1,2020-08-20 11:58:57.000,116,2020-08-20 12:29:22.265,0.25,-90,-150,150,-150,1
5851,116,0,1844.268,0,60,1,0.25,2,9,0.0,0.0,11,48.0,30.0,9,0.476,0.0,1846.706,0.0,0,2020-08-20 11:58:57.000,116,2020-08-20 12:29:41.268,0.25,90,-150,150,30,1
5972,71,0,1327.823,0,-120,1,0.25,2,9,0.0,0.0,11,48.0,30.0,9,0.451,1.0,1329.695,0.18,1,2020-08-21 12:19:20.000,117,2020-08-21 12:41:27.823,0.25,-90,-150,-30,30,1
5973,72,0,1347.783,0,-120,1,0.25,2,9,0.0,0.0,11,48.0,30.0,9,0.501,1.0,1349.526,0.18,1,2020-08-21 12:19:20.000,117,2020-08-21 12:41:47.783,0.25,-90,-150,-30,30,1
5974,73,0,1365.618,0,-120,1,0.25,2,9,0.0,0.0,11,48.0,30.0,9,0.551,0.0,1368.215,0.0,0,2020-08-21 12:19:20.000,117,2020-08-21 12:42:05.618,0.25,90,-150,-30,-150,1
5975,75,0,1396.036,0,-120,1,0.25,2,9,0.0,0.0,11,48.0,30.0,9,0.476,0.0,1399.389,0.0,0,2020-08-21 12:19:20.000,117,2020-08-21 12:42:36.036,0.25,90,-150,-30,-150,1
5976,77,0,1421.604,0,-120,1,0.25,2,9,0.0,0.0,11,48.0,30.0,9,0.526,0.0,1423.999,0.0,0,2020-08-21 12:19:20.000,117,2020-08-21 12:43:01.604,0.25,90,-150,-30,-150,1
5978,80,0,1472.1229999999996,0,-120,1,0.25,2,9,0.0,0.0,11,48.0,30.0,9,0.501,0.0,1478.379,0.0,0,2020-08-21 12:19:20.000,117,2020-08-21 12:43:52.123,0.25,90,-150,-30,-150,1
5979,82,0,1501.87,0,-120,1,0.25,2,3,0.0,0.0,5,48.0,30.0,3,0.451,0.0,1504.132,0.11,1,2020-08-21 12:19:20.000,117,2020-08-21 12:44:21.870,0.25,90,30,150,-150,1
5980,83,0,1517.185,0,-120,1,0.25,2,3,0.0,0.0,5,48.0,30.0,3,0.526,0.0,1521.068,0.11,1,2020-08-21 12:19:20.000,117,2020-08-21 12:44:37.185,0.25,90,30,150,-150,1
5981,84,0,1526.055,0,-120,1,0.25,2,3,0.0,0.0,5,48.0,30.0,3,0.451,1.0,1528.922,0.0,0,2020-08-21 12:19:20.000,117,2020-08-21 12:44:46.055,0.25,-90,30,150,30,1
5982,86,0,1565.644,0,-120,1,0.25,2,3,0.0,0.0,5,48.0,30.0,3,0.476,0.0,1567.4489999999996,0.11,1,2020-08-21 12:19:20.000,117,2020-08-21 12:45:25.644,0.25,90,30,150,-150,1
6077,105,0,1706.1370000000004,0,-60,1,0.25,2,9,0.0,0.0,11,48.0,30.0,9,0.451,1.0,1708.031,0.19,1,2020-08-21 17:06:36.000,151,2020-08-21 17:35:02.137,0.25,-90,-150,-90,-30,1
6078,106,0,1723.612,0,-60,1,0.25,2,3,0.0,0.0,5,48.0,30.0,3,0.476,0.0,1725.583,0.11,1,2020-08-21 17:06:36.000,151,2020-08-21 17:35:19.612,0.25,90,30,90,150,1
6079,107,0,1740.105,0,-60,1,0.25,2,9,0.0,0.0,11,48.0,30.0,9,0.551,1.0,1750.838,0.19,1,2020-08-21 17:06:36.000,151,2020-08-21 17:35:36.105,0.25,-90,-150,-90,-30,1
6080,108,0,1765.263,0,-60,1,0.25,2,9,0.0,0.0,11,48.0,30.0,9,0.451,1.0,1767.588,0.19,1,2020-08-21 17:06:36.000,151,2020-08-21 17:36:01.263,0.25,-90,-150,-90,-30,1
6081,109,0,1784.556,0,-60,1,0.25,2,9,0.0,0.0,11,48.0,30.0,9,0.526,1.0,1786.557,0.19,1,2020-08-21 17:06:36.000,151,2020-08-21 17:36:20.556,0.25,-90,-150,-90,-30,1
6082,110,0,1803.03,0,-60,1,0.25,2,9,0.0,0.0,11,48.0,30.0,9,0.501,1.0,1805.028,0.19,1,2020-08-21 17:06:36.000,151,2020-08-21 17:36:39.030,0.25,-90,-150,-90,-30,1
6083,111,0,1830.271,0,-60,1,0.25,2,3,0.0,0.0,5,48.0,30.0,3,0.451,0.0,1832.48,0.11,1,2020-08-21 17:06:36.000,151,2020-08-21 17:37:06.271,0.25,90,30,90,150,1
6084,112,0,1848.34,0,-60,1,0.25,2,3,0.0,0.0,5,48.0,30.0,3,0.526,0.0,1849.806,0.11,1,2020-08-21 17:06:36.000,151,2020-08-21 17:37:24.340,0.25,90,30,90,150,1
6086,114,0,1871.989,0,-60,1,0.25,2,3,0.0,0.0,5,48.0,30.0,3,0.501,0.0,1873.645,0.11,1,2020-08-21 17:06:36.000,151,2020-08-21 17:37:47.989,0.25,90,30,90,150,1
6087,115,0,1889.734,0,-60,1,0.25,2,3,0.0,0.0,5,48.0,30.0,3,0.551,1.0,1891.526,0.0,0,2020-08-21 17:06:36.000,151,2020-08-21 17:38:05.734,0.25,-90,30,90,-30,1
6119,42,0,649.95,0,60,1,0.25,2,9,0.0,0.0,11,48.0,30.0,9,0.551,1.0,651.744,0.19,1,2020-08-25 10:09:12.000,149,2020-08-25 10:20:01.950,0.25,-90,-150,150,-150,1
6120,43,0,670.047,0,60,1,0.25,2,9,0.0,0.0,11,48.0,30.0,9,0.451,1.0,671.815,0.19,1,2020-08-25 10:09:12.000,149,2020-08-25 10:20:22.047,0.25,-90,-150,150,-150,1
6121,44,0,690.324,0,60,1,0.25,2,3,0.0,0.0,5,48.0,30.0,3,0.476,1.0,692.722,0.0,0,2020-08-25 10:09:12.000,149,2020-08-25 10:20:42.324,0.25,-90,30,-30,-150,1
6122,46,0,706.0110000000002,0,60,1,0.25,2,3,0.0,0.0,5,48.0,30.0,3,0.526,0.0,707.705,0.11,1,2020-08-25 10:09:12.000,149,2020-08-25 10:20:58.011,0.25,90,30,-30,30,1
6123,47,0,714.8,0,60,1,0.25,2,9,0.0,0.0,11,48.0,30.0,9,0.451,1.0,716.822,0.19,1,2020-08-25 10:09:12.000,149,2020-08-25 10:21:06.800,0.25,-90,-150,150,-150,1
6124,48,0,760.8969999999998,0,60,1,0.25,2,3,0.0,0.0,5,48.0,30.0,3,0.526,0.0,762.804,0.11,1,2020-08-25 10:09:12.000,149,2020-08-25 10:21:52.897,0.25,90,30,-30,30,1
6125,49,0,768.8330000000002,0,60,1,0.25,2,9,0.0,0.0,11,48.0,30.0,9,0.551,1.0,770.63,0.19,1,2020-08-25 10:09:12.000,149,2020-08-25 10:22:00.833,0.25,-90,-150,150,-150,1
6126,50,0,790.3389999999998,0,60,1,0.25,2,3,0.0,0.0,5,48.0,30.0,3,0.501,0.0,795.237,0.11,1,2020-08-25 10:09:12.000,149,2020-08-25 10:22:22.339,0.25,90,30,-30,30,1
6127,51,0,800.8530000000002,0,60,1,0.25,2,3,0.0,0.0,5,48.0,30.0,3,0.476,0.0,802.674,0.11,1,2020-08-25 10:09:12.000,149,2020-08-25 10:22:32.853,0.25,90,30,-30,30,1
6128,52,0,809.6669999999998,0,60,1,0.25,2,3,0.0,0.0,5,48.0,30.0,3,0.526,1.0,811.691,0.0,0,2020-08-25 10:09:12.000,149,2020-08-25 10:22:41.667,0.25,-90,30,-30,-150,1
6186,69,0,1187.688,0,0,1,0.25,2,3,0.0,0.0,5,48.0,30.0,3,0.551,0.0,1189.412,0.12,1,2020-08-25 16:50:04.000,100,2020-08-25 17:09:51.688,0.25,90,30,30,90,1
6187,70,0,1196.224,0,0,1,0.25,2,3,0.0,0.0,5,48.0,30.0,3,0.476,0.0,1198.25,0.12,1,2020-08-25 16:50:04.000,100,2020-08-25 17:10:00.224,0.25,90,30,30,90,1
6188,71,0,1204.272,0,0,1,0.25,2,9,0.0,0.0,11,48.0,30.0,9,0.451,0.0,1206.559,0.0,0,2020-08-25 16:50:04.000,100,2020-08-25 17:10:08.272,0.25,90,-150,-150,90,1
6189,73,0,1232.829,0,0,1,0.25,2,9,0.0,0.0,11,48.0,30.0,9,0.526,1.0,1234.767,0.18,1,2020-08-25 16:50:04.000,100,2020-08-25 17:10:36.829,0.25,-90,-150,-150,-90,1
6190,74,0,1254.418,0,0,1,0.25,2,3,0.0,0.0,5,48.0,30.0,3,0.551,0.0,1255.9589999999996,0.12,1,2020-08-25 16:50:04.000,100,2020-08-25 17:10:58.418,0.25,90,30,30,90,1
6191,75,0,1263.314,0,0,1,0.25,2,9,0.0,0.0,11,48.0,30.0,9,0.501,0.0,1265.941,0.0,0,2020-08-25 16:50:04.000,100,2020-08-25 17:11:07.314,0.25,90,-150,-150,90,1
6192,77,0,1294.7910000000004,0,0,1,0.25,2,3,0.0,0.0,5,48.0,30.0,3,0.451,0.0,1296.501,0.12,1,2020-08-25 16:50:04.000,100,2020-08-25 17:11:38.791,0.25,90,30,30,90,1
6193,78,0,1302.92,0,0,1,0.25,2,3,0.0,0.0,5,48.0,30.0,3,0.476,0.0,1305.154,0.12,1,2020-08-25 16:50:04.000,100,2020-08-25 17:11:46.920,0.25,90,30,30,90,1
6194,79,0,1312.927,0,0,1,0.25,2,3,0.0,0.0,5,48.0,30.0,3,0.451,1.0,1315.394,0.0,0,2020-08-25 16:50:04.000,100,2020-08-25 17:11:56.927,0.25,-90,30,30,-90,1
6195,81,0,1329.852,0,0,1,0.25,2,9,0.0,0.0,11,48.0,30.0,9,0.476,0.0,1331.779,0.0,0,2020-08-25 16:50:04.000,100,2020-08-25 17:12:13.852,0.25,90,-150,-150,90,1
6238,60,0,1038.014,0,60,1,0.25,2,3,0.0,0.0,5,48.0,30.0,3,0.501,0.0,1039.88,0.07,1,2020-08-26 09:04:58.000,197,2020-08-26 09:22:16.014,0.25,90,30,-30,30,1
6239,61,0,1046.623,0,60,1,0.25,2,9,0.0,0.0,11,48.0,30.0,9,0.451,1.0,1048.424,0.2,1,2020-08-26 09:04:58.000,197,2020-08-26 09:22:24.623,0.25,-90,-150,150,-150,1
6240,62,0,1071.645,0,60,1,0.25,2,3,0.0,0.0,5,48.0,30.0,3,0.476,0.0,1073.521,0.07,1,2020-08-26 09:04:58.000,197,2020-08-26 09:22:49.645,0.25,90,30,-30,30,1
6241,63,0,1079.075,0,60,1,0.25,2,9,0.0,0.0,11,48.0,30.0,9,0.526,1.0,1081.12,0.2,1,2020-08-26 09:04:58.000,197,2020-08-26 09:22:57.075,0.25,-90,-150,150,-150,1
6242,64,0,1111.329,0,60,1,0.25,2,3,0.0,0.0,5,48.0,30.0,3,0.551,0.0,1112.909,0.07,1,2020-08-26 09:04:58.000,197,2020-08-26 09:23:29.329,0.25,90,30,-30,30,1
6243,65,0,1118.832,0,60,1,0.25,2,3,0.0,0.0,5,48.0,30.0,3,0.501,1.0,1120.941,0.0,0,2020-08-26 09:04:58.000,197,2020-08-26 09:23:36.832,0.25,-90,30,-30,-150,1
6244,67,0,1140.851,0,60,1,0.25,2,3,0.0,0.0,5,48.0,30.0,3,0.476,0.0,1143.006,0.07,1,2020-08-26 09:04:58.000,197,2020-08-26 09:23:58.851,0.25,90,30,-30,30,1
6245,68,0,1147.934,0,60,1,0.25,2,3,0.0,0.0,5,48.0,30.0,3,0.451,1.0,1150.64,0.0,0,2020-08-26 09:04:58.000,197,2020-08-26 09:24:05.934,0.25,-90,30,-30,-150,1
6246,70,0,1170.0410000000004,0,60,1,0.25,2,3,0.0,0.0,5,48.0,30.0,3,0.526,0.0,1172.743,0.07,1,2020-08-26 09:04:58.000,197,2020-08-26 09:24:28.041,0.25,90,30,-30,30,1
6247,71,0,1179.332,0,60,1,0.25,2,3,0.0,0.0,5,48.0,30.0,3,0.451,1.0,1190.918,0.0,0,2020-08-26 09:04:58.000,197,2020-08-26 09:24:37.332,0.25,-90,30,-30,-150,1
6323,96,0,1843.544,0,30,1,0.25,2,3,0.0,0.0,5,48.0,30.0,3,0.551,0.0,1845.958,0.115,1,2020-08-26 16:31:36.000,185,2020-08-26 17:02:19.544,0.25,90,30,0,60,1
6325,98,0,1870.417,0,30,1,0.25,2,3,0.0,0.0,5,48.0,30.0,3,0.501,0.0,1873.44,0.115,1,2020-08-26 16:31:36.000,185,2020-08-26 17:02:46.417,0.25,90,30,0,60,1
6326,99,0,1911.221,0,30,1,0.25,2,9,0.0,0.0,11,48.0,30.0,9,0.451,1.0,1912.806,0.19,1,2020-08-26 16:31:36.000,185,2020-08-26 17:03:27.221,0.25,-90,-150,-180,-120,1
6327,100,0,1933.961,0,30,1,0.25,2,3,0.0,0.0,5,48.0,30.0,3,0.526,0.0,1935.913,0.115,1,2020-08-26 16:31:36.000,185,2020-08-26 17:03:49.961,0.25,90,30,0,60,1
6328,101,0,1942.393,0,30,1,0.25,2,9,0.0,0.0,11,48.0,30.0,9,0.551,0.0,1944.005,0.0,0,2020-08-26 16:31:36.000,185,2020-08-26 17:03:58.393,0.25,90,-150,-180,60,1
6329,103,0,2007.725,0,30,1,0.25,2,3,0.0,0.0,5,48.0,30.0,3,0.451,0.0,2009.846,0.115,1,2020-08-26 16:31:36.000,185,2020-08-26 17:05:03.725,0.25,90,30,0,60,1
6330,104,0,2018.767,0,30,1,0.25,2,9,0.0,0.0,11,48.0,30.0,9,0.501,1.0,2020.677,0.19,1,2020-08-26 16:31:36.000,185,2020-08-26 17:05:14.767,0.25,-90,-150,-180,-120,1
6331,105,0,2066.666,0,30,1,0.25,2,3,0.0,0.0,5,48.0,30.0,3,0.526,1.0,2069.136,0.0,0,2020-08-26 16:31:36.000,185,2020-08-26 17:06:02.666,0.25,-90,30,0,-120,1
6332,107,0,2110.175,0,30,1,0.25,2,9,0.0,0.0,11,48.0,30.0,9,0.476,1.0,2112.222,0.19,1,2020-08-26 16:31:36.000,185,2020-08-26 17:06:46.175,0.25,-90,-150,-180,-120,1
6333,108,0,2129.427,0,30,1,0.25,2,9,0.0,0.0,11,48.0,30.0,9,0.476,0.0,2133.509,0.0,0,2020-08-26 16:31:36.000,185,2020-08-26 17:07:05.427,0.25,90,-150,-180,60,1
6396,76,0,1469.922,1,180,1,0.25,2,9,0.0,0.0,11,48.0,30.0,9,0.476,1.0,1478.3010000000004,0.175,1,2020-08-27 08:22:11.000,145,2020-08-27 08:46:40.922,0.25,-90,-150,30,90,1
6397,77,0,1512.6229999999996,0,180,1,0.25,2,9,0.0,0.0,11,48.0,30.0,9,0.551,1.0,1514.376,0.175,1,2020-08-27 08:22:11.000,145,2020-08-27 08:47:23.623,0.25,-90,-150,30,90,1
6398,78,0,1531.437,0,180,1,0.25,2,9,0.0,0.0,11,48.0,30.0,9,0.451,0.0,1534.6170000000004,0.0,0,2020-08-27 08:22:11.000,145,2020-08-27 08:47:42.437,0.25,90,-150,30,-90,1
6399,82,0,1582.5739999999996,0,180,1,0.25,2,9,0.0,0.0,11,48.0,30.0,9,0.451,1.0,1584.119,0.175,1,2020-08-27 08:22:11.000,145,2020-08-27 08:48:33.574,0.25,-90,-150,30,90,1
6400,83,0,1604.938,0,180,1,0.25,2,9,0.0,0.0,11,48.0,30.0,9,0.551,0.0,1607.388,0.0,0,2020-08-27 08:22:11.000,145,2020-08-27 08:48:55.938,0.25,90,-150,30,-90,1
6401,85,0,1642.14,0,180,1,0.25,2,3,0.0,0.0,5,48.0,30.0,3,0.501,0.0,1643.874,0.125,1,2020-08-27 08:22:11.000,145,2020-08-27 08:49:33.140,0.25,90,30,-150,-90,1
6402,86,0,1651.158,0,180,1,0.25,2,3,0.0,0.0,5,48.0,30.0,3,0.526,0.0,1653.0970000000002,0.125,1,2020-08-27 08:22:11.000,145,2020-08-27 08:49:42.158,0.25,90,30,-150,-90,1
6403,87,0,1673.619,0,180,1,0.25,2,3,0.0,0.0,5,48.0,30.0,3,0.476,0.0,1675.287,0.125,1,2020-08-27 08:22:11.000,145,2020-08-27 08:50:04.619,0.25,90,30,-150,-90,1
6404,88,0,1695.66,0,180,1,0.25,2,3,0.0,0.0,5,48.0,30.0,3,0.551,0.0,1697.756,0.125,1,2020-08-27 08:22:11.000,145,2020-08-27 08:50:26.660,0.25,90,30,-150,-90,1
6405,89,0,1705.441,0,180,1,0.25,2,3,0.0,0.0,5,48.0,30.0,3,0.501,0.0,1707.11,0.125,1,2020-08-27 08:22:11.000,145,2020-08-27 08:50:36.441,0.25,90,30,-150,-90,1
6480,81,0,1443.37,0,120,1,0.25,2,3,0.0,0.0,5,48.0,30.0,3,0.476,0.0,1445.15,0.11,1,2020-08-27 16:33:07.000,124,2020-08-27 16:57:10.370,0.25,90,30,-90,-30,1
6481,82,0,1455.499,0,120,1,0.25,2,3,0.0,0.0,5,48.0,30.0,3,0.526,0.0,1457.5970000000002,0.11,1,2020-08-27 16:33:07.000,124,2020-08-27 16:57:22.499,0.25,90,30,-90,-30,1
6482,83,0,1473.9160000000004,0,120,1,0.25,2,9,0.0,0.0,11,48.0,30.0,9,0.476,1.0,1476.0279999999998,0.19,1,2020-08-27 16:33:07.000,124,2020-08-27 16:57:40.916,0.25,-90,-150,90,150,1
6483,84,0,1504.418,0,120,1,0.25,2,3,0.0,0.0,5,48.0,30.0,3,0.551,0.0,1506.3729999999996,0.11,1,2020-08-27 16:33:07.000,124,2020-08-27 16:58:11.418,0.25,90,30,-90,-30,1
6484,85,0,1515.259,0,120,1,0.25,2,9,0.0,0.0,11,48.0,30.0,9,0.501,1.0,1516.802,0.19,1,2020-08-27 16:33:07.000,124,2020-08-27 16:58:22.259,0.25,-90,-150,90,150,1
6485,86,0,1536.013,1,120,1,0.25,2,3,0.0,0.0,5,48.0,30.0,3,0.451,0.0,1546.921,0.11,1,2020-08-27 16:33:07.000,124,2020-08-27 16:58:43.013,0.25,90,30,-90,-30,1
6486,87,0,1556.6070000000002,0,120,1,0.25,2,9,0.0,0.0,11,48.0,30.0,9,0.451,0.0,1557.965,0.0,0,2020-08-27 16:33:07.000,124,2020-08-27 16:59:03.607,0.25,90,-150,90,-30,1
6487,89,0,1585.378,0,120,1,0.25,2,9,0.0,0.0,11,48.0,30.0,9,0.501,1.0,1587.464,0.19,1,2020-08-27 16:33:07.000,124,2020-08-27 16:59:32.378,0.25,-90,-150,90,150,1
6488,90,0,1606.221,0,120,1,0.25,2,9,0.0,0.0,11,48.0,30.0,9,0.526,0.0,1608.246,0.0,0,2020-08-27 16:33:07.000,124,2020-08-27 16:59:53.221,0.25,90,-150,90,-30,1
6489,92,0,1670.934,0,120,1,0.25,2,3,0.0,0.0,5,48.0,30.0,3,0.551,0.0,1673.159,0.11,1,2020-08-27 16:33:07.000,124,2020-08-27 17:00:57.934,0.25,90,30,-90,-30,1
6536,56,0,967.937,0,-60,1,0.25,2,9,0.0,0.0,11,48.0,30.0,9,0.526,1.0,970.162,0.19,1,2020-08-28 10:55:47.000,147,2020-08-28 11:11:54.937,0.25,-90,-150,-90,-30,1
6537,57,0,988.052,0,-60,1,0.25,2,3,0.0,0.0,5,48.0,30.0,3,0.551,0.0,990.035,0.11,1,2020-08-28 10:55:47.000,147,2020-08-28 11:12:15.052,0.25,90,30,90,150,1
6538,58,0,996.33,0,-60,1,0.25,2,9,0.0,0.0,11,48.0,30.0,9,0.451,0.0,998.274,0.0,0,2020-08-28 10:55:47.000,147,2020-08-28 11:12:23.330,0.25,90,-150,-90,150,1
6539,60,0,1024.846,0,-60,1,0.25,2,3,0.0,0.0,5,48.0,30.0,3,0.501,0.0,1026.8339999999996,0.11,1,2020-08-28 10:55:47.000,147,2020-08-28 11:12:51.846,0.25,90,30,90,150,1
6540,61,0,1033.327,0,-60,1,0.25,2,3,0.0,0.0,5,48.0,30.0,3,0.551,0.0,1035.407,0.11,1,2020-08-28 10:55:47.000,147,2020-08-28 11:13:00.327,0.25,90,30,90,150,1
6541,62,0,1041.828,0,-60,1,0.25,2,3,0.0,0.0,5,48.0,30.0,3,0.451,0.0,1043.885,0.11,1,2020-08-28 10:55:47.000,147,2020-08-28 11:13:08.828,0.25,90,30,90,150,1
6542,63,0,1051.029,0,-60,1,0.25,2,9,0.0,0.0,11,48.0,30.0,9,0.526,1.0,1054.836,0.19,1,2020-08-28 10:55:47.000,147,2020-08-28 11:13:18.029,0.25,-90,-150,-90,-30,1
6543,64,0,1082.454,0,-60,1,0.25,2,9,0.0,0.0,11,48.0,30.0,9,0.476,1.0,1086.797,0.19,1,2020-08-28 10:55:47.000,147,2020-08-28 11:13:49.454,0.25,-90,-150,-90,-30,1
6544,65,0,1105.383,0,-60,1,0.25,2,9,0.0,0.0,11,48.0,30.0,9,0.501,1.0,1107.349,0.19,1,2020-08-28 10:55:47.000,147,2020-08-28 11:14:12.383,0.25,-90,-150,-90,-30,1
6545,66,0,1143.037,0,-60,1,0.25,2,3,0.0,0.0,5,48.0,30.0,3,0.526,1.0,1145.457,0.0,0,2020-08-28 10:55:47.000,147,2020-08-28 11:14:50.037,0.25,-90,30,90,-30,1
6588,48,0,824.4,0,30,1,0.25,2,3,0.0,0.0,5,48.0,30.0,3,0.526,0.0,826.6210000000002,0.11,1,2020-08-28 16:36:33.000,193,2020-08-28 16:50:17.400,0.25,90,30,0,60,1
6589,49,0,832.89,0,30,1,0.25,2,3,0.0,0.0,5,48.0,30.0,3,0.551,0.0,835.2769999999998,0.11,1,2020-08-28 16:36:33.000,193,2020-08-28 16:50:25.890,0.25,90,30,0,60,1
6590,50,0,840.413,1,30,1,0.25,2,3,0.0,0.0,5,48.0,30.0,3,0.451,1.0,847.659,0.0,0,2020-08-28 16:36:33.000,193,2020-08-28 16:50:33.413,0.25,-90,30,0,-120,1
6591,52,0,864.9960000000002,0,30,1,0.25,2,9,0.0,0.0,11,48.0,30.0,9,0.451,1.0,867.066,0.19,1,2020-08-28 16:36:33.000,193,2020-08-28 16:50:57.996,0.25,-90,-150,-180,-120,1
6592,53,0,880.8810000000002,0,30,1,0.25,2,9,0.0,0.0,11,48.0,30.0,9,0.476,1.0,884.822,0.19,1,2020-08-28 16:36:33.000,193,2020-08-28 16:51:13.881,0.25,-90,-150,-180,-120,1
6593,54,0,929.828,0,30,1,0.25,2,3,0.0,0.0,5,48.0,30.0,3,0.526,1.0,932.295,0.0,0,2020-08-28 16:36:33.000,193,2020-08-28 16:52:02.828,0.25,-90,30,0,-120,1
6595,57,0,958.061,0,30,1,0.25,2,9,0.0,0.0,11,48.0,30.0,9,0.501,0.0,959.997,0.0,0,2020-08-28 16:36:33.000,193,2020-08-28 16:52:31.061,0.25,90,-150,-180,60,1
6597,60,0,1009.281,0,30,1,0.25,2,9,0.0,0.0,11,48.0,30.0,9,0.476,1.0,1011.246,0.19,1,2020-08-28 16:36:33.000,193,2020-08-28 16:53:22.281,0.25,-90,-150,-180,-120,1
6599,62,0,1051.985,0,30,1,0.25,2,9,0.0,0.0,11,48.0,30.0,9,0.501,1.0,1053.58,0.19,1,2020-08-28 16:36:33.000,193,2020-08-28 16:54:04.985,0.25,-90,-150,-180,-120,1
6600,63,0,1071.855,0,30,1,0.25,2,9,0.0,0.0,11,48.0,30.0,9,0.451,0.0,1074.215,0.0,0,2020-08-28 16:36:33.000,193,2020-08-28 16:54:24.855,0.25,90,-150,-180,60,1
6763,75,0,1349.595,0,120,1,0.25,2,3,0.0,0.0,5,48.0,30.0,3,0.476,0.0,1351.588,0.115,1,2020-09-01 16:46:51.000,138,2020-09-01 17:09:20.595,0.25,90,30,-90,-30,1
6764,76,0,1357.011,0,120,1,0.25,2,3,0.0,0.0,5,48.0,30.0,3,0.551,0.0,1360.007,0.115,1,2020-09-01 16:46:51.000,138,2020-09-01 17:09:28.011,0.25,90,30,-90,-30,1
6765,77,0,1370.3870000000004,0,120,1,0.25,2,3,0.0,0.0,5,48.0,30.0,3,0.451,0.0,1372.5479999999998,0.115,1,2020-09-01 16:46:51.000,138,2020-09-01 17:09:41.387,0.25,90,30,-90,-30,1
6766,78,0,1415.88,0,120,1,0.25,2,9,0.0,0.0,11,48.0,30.0,9,0.526,1.0,1419.4820000000002,0.185,1,2020-09-01 16:46:51.000,138,2020-09-01 17:10:26.880,0.25,-90,-150,90,150,1
6767,79,0,1438.984,0,120,1,0.25,2,3,0.0,0.0,5,48.0,30.0,3,0.551,0.0,1441.159,0.115,1,2020-09-01 16:46:51.000,138,2020-09-01 17:10:49.984,0.25,90,30,-90,-30,1
6768,80,0,1446.31,0,120,1,0.25,2,9,0.0,0.0,11,48.0,30.0,9,0.501,1.0,1447.941,0.185,1,2020-09-01 16:46:51.000,138,2020-09-01 17:10:57.310,0.25,-90,-150,90,150,1
6769,81,0,1471.852,0,120,1,0.25,2,3,0.0,0.0,5,48.0,30.0,3,0.451,0.0,1473.379,0.115,1,2020-09-01 16:46:51.000,138,2020-09-01 17:11:22.852,0.25,90,30,-90,-30,1
6770,82,0,1479.3870000000004,0,120,1,0.25,2,9,0.0,0.0,11,48.0,30.0,9,0.476,1.0,1480.976,0.185,1,2020-09-01 16:46:51.000,138,2020-09-01 17:11:30.387,0.25,-90,-150,90,150,1
6772,84,0,1506.5179999999998,0,120,1,0.25,2,9,0.0,0.0,11,48.0,30.0,9,0.501,1.0,1508.192,0.185,1,2020-09-01 16:46:51.000,138,2020-09-01 17:11:57.518,0.25,-90,-150,90,150,1
6773,85,0,1534.917,0,120,1,0.25,2,9,0.0,0.0,11,48.0,30.0,9,0.451,0.0,1536.9720000000002,0.0,0,2020-09-01 16:46:51.000,138,2020-09-01 17:12:25.917,0.25,90,-150,90,-30,1
6798,37,0,774.1110000000001,0,-30,1,0.25,2,3,0.0,0.0,5,48.0,30.0,3,0.501,0.0,776.3639999999998,0.13,1,2020-09-02 10:43:17.000,107,2020-09-02 10:56:11.111,0.25,90,30,60,120,1
6799,38,0,781.926,0,-30,1,0.25,2,9,0.0,0.0,11,48.0,30.0,9,0.501,1.0,785.2310000000001,0.16,1,2020-09-02 10:43:17.000,107,2020-09-02 10:56:18.926,0.25,-90,-150,-120,-60,1
6800,39,0,813.199,0,-30,1,0.25,2,9,0.0,0.0,11,48.0,30.0,9,0.476,1.0,814.9830000000002,0.16,1,2020-09-02 10:43:17.000,107,2020-09-02 10:56:50.199,0.25,-90,-150,-120,-60,1
6801,40,0,834.061,0,-30,1,0.25,2,9,0.0,0.0,11,48.0,30.0,9,0.551,1.0,835.747,0.16,1,2020-09-02 10:43:17.000,107,2020-09-02 10:57:11.061,0.25,-90,-150,-120,-60,1
6802,41,0,856.502,0,-30,1,0.25,2,9,0.0,0.0,11,48.0,30.0,9,0.526,1.0,858.181,0.16,1,2020-09-02 10:43:17.000,107,2020-09-02 10:57:33.502,0.25,-90,-150,-120,-60,1
6803,42,0,883.7239999999998,0,-30,1,0.25,2,3,0.0,0.0,5,48.0,30.0,3,0.451,0.0,886.216,0.13,1,2020-09-02 10:43:17.000,107,2020-09-02 10:58:00.724,0.25,90,30,60,120,1
6804,43,0,895.505,0,-30,1,0.25,2,9,0.0,0.0,11,48.0,30.0,9,0.451,0.0,898.062,0.0,0,2020-09-02 10:43:17.000,107,2020-09-02 10:58:12.505,0.25,90,-150,-120,120,1
6805,45,0,922.168,0,-30,1,0.25,2,3,0.0,0.0,5,48.0,30.0,3,0.501,0.0,924.041,0.13,1,2020-09-02 10:43:17.000,107,2020-09-02 10:58:39.168,0.25,90,30,60,120,1
6806,46,0,930.734,0,-30,1,0.25,2,9,0.0,0.0,11,48.0,30.0,9,0.476,0.0,933.365,0.0,0,2020-09-02 10:43:17.000,107,2020-09-02 10:58:47.734,0.25,90,-150,-120,120,1
6807,48,0,972.822,0,-30,1,0.25,2,3,0.0,0.0,5,48.0,30.0,3,0.526,1.0,975.571,0.0,0,2020-09-02 10:43:17.000,107,2020-09-02 10:59:29.822,0.25,-90,30,60,-60,1
6972,76,0,1272.18,0,90,1,0.25,2,9,0.0,0.0,11,48.0,30.0,9,0.451,1.0,1274.082,0.19,1,2020-09-03 11:39:42.000,97,2020-09-03 12:00:54.180,0.25,-90,-150,120,-180,1
6973,77,0,1296.486,1,90,1,0.25,2,9,0.0,0.0,11,48.0,30.0,9,0.476,1.0,1304.032,0.19,1,2020-09-03 11:39:42.000,97,2020-09-03 12:01:18.486,0.25,-90,-150,120,-180,1
6975,79,0,1332.781,0,90,1,0.25,2,3,0.0,0.0,5,48.0,30.0,3,0.551,0.0,1334.9160000000004,0.1,1,2020-09-03 11:39:42.000,97,2020-09-03 12:01:54.781,0.25,90,30,-60,0,1
6976,80,0,1340.063,0,90,1,0.25,2,9,0.0,0.0,11,48.0,30.0,9,0.451,1.0,1342.152,0.19,1,2020-09-03 11:39:42.000,97,2020-09-03 12:02:02.063,0.25,-90,-150,120,-180,1
6977,81,0,1373.156,0,90,1,0.25,2,3,0.0,0.0,5,48.0,30.0,3,0.526,0.0,1375.2620000000004,0.1,1,2020-09-03 11:39:42.000,97,2020-09-03 12:02:35.156,0.25,90,30,-60,0,1
6978,82,0,1381.6070000000002,0,90,1,0.25,2,9,0.0,0.0,11,48.0,30.0,9,0.476,1.0,1383.442,0.19,1,2020-09-03 11:39:42.000,97,2020-09-03 12:02:43.607,0.25,-90,-150,120,-180,1
6979,83,0,1402.583,0,90,1,0.25,2,3,0.0,0.0,5,48.0,30.0,3,0.551,0.0,1404.654,0.1,1,2020-09-03 11:39:42.000,97,2020-09-03 12:03:04.583,0.25,90,30,-60,0,1
6981,85,0,1431.286,1,90,1,0.25,2,3,0.0,0.0,5,48.0,30.0,3,0.526,0.0,1438.381,0.1,1,2020-09-03 11:39:42.000,97,2020-09-03 12:03:33.286,0.25,90,30,-60,0,1
6982,86,0,1445.592,0,90,1,0.25,2,3,0.0,0.0,5,48.0,30.0,3,0.501,0.0,1447.435,0.1,1,2020-09-03 11:39:42.000,97,2020-09-03 12:03:47.592,0.25,90,30,-60,0,1
6983,87,0,1453.289,0,90,1,0.25,2,3,0.0,0.0,5,48.0,30.0,3,0.451,1.0,1457.079,0.0,0,2020-09-03 11:39:42.000,97,2020-09-03 12:03:55.289,0.25,-90,30,-60,-180,1
7035,63,0,1369.864,0,150,1,0.25,2,3,0.0,0.0,5,48.0,30.0,3,0.551,0.0,1372.307,0.11,1,2020-09-03 16:50:52.000,190,2020-09-03 17:13:41.864,0.25,90,30,-120,-60,1
7036,64,0,1381.0079999999996,0,150,1,0.25,2,9,0.0,0.0,11,48.0,30.0,9,0.501,1.0,1382.6229999999996,0.19,1,2020-09-03 16:50:52.000,190,2020-09-03 17:13:53.008,0.25,-90,-150,60,120,1
7037,65,0,1404.186,0,150,1,0.25,2,9,0.0,0.0,11,48.0,30.0,9,0.451,1.0,1405.739,0.19,1,2020-09-03 16:50:52.000,190,2020-09-03 17:14:16.186,0.25,-90,-150,60,120,1
7038,66,0,1432.1470000000004,0,150,1,0.25,2,9,0.0,0.0,11,48.0,30.0,9,0.476,0.0,1434.9779999999996,0.0,0,2020-09-03 16:50:52.000,190,2020-09-03 17:14:44.147,0.25,90,-150,60,-60,1
7039,68,0,1464.115,0,150,1,0.25,2,3,0.0,0.0,5,48.0,30.0,3,0.526,0.0,1465.878,0.11,1,2020-09-03 16:50:52.000,190,2020-09-03 17:15:16.115,0.25,90,30,-120,-60,1
7040,69,0,1474.257,0,150,1,0.25,2,9,0.0,0.0,11,48.0,30.0,9,0.476,0.0,1477.065,0.0,0,2020-09-03 16:50:52.000,190,2020-09-03 17:15:26.257,0.25,90,-150,60,-60,1
7042,72,0,1544.585,0,150,1,0.25,2,3,0.0,0.0,5,48.0,30.0,3,0.501,0.0,1546.362,0.105,1,2020-09-03 16:50:52.000,190,2020-09-03 17:16:36.585,0.25,90,30,-120,-60,1
7043,73,0,1572.803,0,150,1,0.25,2,9,0.0,0.0,11,48.0,30.0,9,0.551,1.0,1574.504,0.195,1,2020-09-03 16:50:52.000,190,2020-09-03 17:17:04.803,0.25,-90,-150,60,120,1
7044,74,0,1597.661,0,150,1,0.25,2,3,0.0,0.0,5,48.0,30.0,3,0.451,0.0,1599.275,0.105,1,2020-09-03 16:50:52.000,190,2020-09-03 17:17:29.661,0.25,90,30,-120,-60,1
7045,75,0,1611.615,0,150,1,0.25,2,9,0.0,0.0,11,48.0,30.0,9,0.551,0.0,1613.596,0.0,0,2020-09-03 16:50:52.000,190,2020-09-03 17:17:43.615,0.25,90,-150,60,-60,1
7129,94,0,1680.326,0,-120,1,0.25,2,9,0.0,0.0,11,48.0,30.0,9,0.451,0.0,1681.854,0.0,0,2020-09-04 11:24:11.000,196,2020-09-04 11:52:11.326,0.25,90,-150,-30,-150,1
7130,96,0,1705.75,0,-120,1,0.25,2,9,0.0,0.0,11,48.0,30.0,9,0.526,1.0,1707.4589999999996,0.17,1,2020-09-04 11:24:11.000,196,2020-09-04 11:52:36.750,0.25,-90,-150,-30,30,1
7132,98,0,1734.717,0,-120,1,0.25,2,3,0.0,0.0,5,48.0,30.0,3,0.501,0.0,1737.746,0.13,1,2020-09-04 11:24:11.000,196,2020-09-04 11:53:05.717,0.25,90,30,150,-150,1
7133,99,0,1749.7320000000002,0,-120,1,0.25,2,3,0.0,0.0,5,48.0,30.0,3,0.551,0.0,1751.835,0.13,1,2020-09-04 11:24:11.000,196,2020-09-04 11:53:20.732,0.25,90,30,150,-150,1
7134,100,0,1759.013,0,-120,1,0.25,2,3,0.0,0.0,5,48.0,30.0,3,0.526,0.0,1760.542,0.13,1,2020-09-04 11:24:11.000,196,2020-09-04 11:53:30.013,0.25,90,30,150,-150,1
7135,101,0,1771.0739999999996,0,-120,1,0.25,2,3,0.0,0.0,5,48.0,30.0,3,0.451,0.0,1773.579,0.13,1,2020-09-04 11:24:11.000,196,2020-09-04 11:53:42.074,0.25,90,30,150,-150,1
7136,102,0,1785.83,0,-120,1,0.25,2,3,0.0,0.0,5,48.0,30.0,3,0.526,0.0,1787.838,0.13,1,2020-09-04 11:24:11.000,196,2020-09-04 11:53:56.830,0.25,90,30,150,-150,1
7137,103,0,1793.7279999999996,0,-120,1,0.25,2,3,0.0,0.0,5,48.0,30.0,3,0.451,0.0,1795.365,0.13,1,2020-09-04 11:24:11.000,196,2020-09-04 11:54:04.728,0.25,90,30,150,-150,1
7138,104,0,1809.266,0,-120,1,0.25,2,3,0.0,0.0,5,48.0,30.0,3,0.476,0.0,1810.723,0.13,1,2020-09-04 11:24:11.000,196,2020-09-04 11:54:20.266,0.25,90,30,150,-150,1
7139,105,0,1822.279,0,-120,1,0.25,2,3,0.0,0.0,5,48.0,30.0,3,0.501,0.0,1824.19,0.13,1,2020-09-04 11:24:11.000,196,2020-09-04 11:54:33.279,0.25,90,30,150,-150,1
7198,67,0,1178.66,1,150,1,0.25,2,3,0.0,0.0,5,48.0,30.0,3,0.476,1.0,1185.383,0.0,0,2020-09-04 16:56:47.000,194,2020-09-04 17:16:25.660,0.25,-90,30,-120,120,1
7199,69,0,1201.687,0,150,1,0.25,2,9,0.0,0.0,11,48.0,30.0,9,0.526,1.0,1203.488,0.17,1,2020-09-04 16:56:47.000,194,2020-09-04 17:16:48.687,0.25,-90,-150,60,120,1
7200,70,0,1222.403,0,150,1,0.25,2,9,0.0,0.0,11,48.0,30.0,9,0.501,1.0,1224.867,0.17,1,2020-09-04 16:56:47.000,194,2020-09-04 17:17:09.403,0.25,-90,-150,60,120,1
7201,71,0,1245.613,0,150,1,0.25,2,9,0.0,0.0,11,48.0,30.0,9,0.476,0.0,1247.674,0.0,0,2020-09-04 16:56:47.000,194,2020-09-04 17:17:32.613,0.25,90,-150,60,-60,1
7202,73,0,1273.819,0,150,1,0.25,2,3,0.0,0.0,5,48.0,30.0,3,0.526,1.0,1276.302,0.0,0,2020-09-04 16:56:47.000,194,2020-09-04 17:18:00.819,0.25,-90,30,-120,120,1
