,Trial,CorrectionTrial,StartTime,CenterReward,CenterSpoutRotation,nStimReps,Duration,Modality,LED Location,LED_trial_V,LED_bgnd_V,Speaker Location,Speaker_trial_V,Speaker_bgnd_V,TargetSpout,HoldTime,Response,RespTime,ValveTime,Correct,SessionDate,SessionID,StartDateTime,StimulusTotalDuration,response_angle_world,speaker_angle_world,speaker_angle_platform,response_angle_platform,not_probe
205,1,0,27.685,0,-30,1,0.25,2,3,0.0,0.0,1,45.0,30.0,3,0.701,1.0,28.95,0.0,0,2019-10-01 09:08:42.000,207,2019-10-01 09:09:09.685,0.25,-90,150,-180,-60,1
206,3,0,36.862,0,-30,1,0.25,2,9,0.0,0.0,7,45.0,30.0,9,0.851,0.0,37.314,0.0,0,2019-10-01 09:08:42.000,207,2019-10-01 09:09:18.862,0.25,90,-30,0,120,1
207,5,0,47.03100000000001,0,-30,1,0.25,2,9,0.0,0.0,7,45.0,30.0,9,0.7509999999999999,0.0,47.532,0.0,0,2019-10-01 09:08:42.000,207,2019-10-01 09:09:29.031,0.25,90,-30,0,120,1
208,9,0,63.129,0,-30,1,0.25,2,9,0.0,0.0,7,45.0,30.0,9,0.7509999999999999,1.0,63.636,0.14,1,2019-10-01 09:08:42.000,207,2019-10-01 09:09:45.129,0.25,-90,-30,0,-60,1
209,10,0,67.643,0,-30,1,0.25,2,3,0.0,0.0,1,45.0,30.0,3,0.701,0.0,68.11399999999999,0.16,1,2019-10-01 09:08:42.000,207,2019-10-01 09:09:49.643,0.25,90,150,-180,120,1
210,11,0,72.418,0,-30,1,0.25,2,9,0.0,0.0,7,45.0,30.0,9,0.701,1.0,72.898,0.14,1,2019-10-01 09:08:42.000,207,2019-10-01 09:09:54.418,0.25,-90,-30,0,-60,1
211,12,0,77.137,0,-30,1,0.25,2,9,0.0,0.0,7,45.0,30.0,9,0.7509999999999999,1.0,77.734,0.14,1,2019-10-01 09:08:42.000,207,2019-10-01 09:09:59.137,0.25,-90,-30,0,-60,1
212,13,0,81.289,0,-30,1,0.25,2,9,0.0,0.0,7,45.0,30.0,9,0.851,1.0,81.741,0.14,1,2019-10-01 09:08:42.000,207,2019-10-01 09:10:03.289,0.25,-90,-30,0,-60,1
213,14,0,85.31700000000002,0,-30,1,0.25,2,9,0.0,0.0,7,45.0,30.0,9,0.8009999999999999,1.0,85.47200000000002,0.14,1,2019-10-01 09:08:42.000,207,2019-10-01 09:10:07.317,0.25,-90,-30,0,-60,1
214,15,0,90.291,0,-30,1,0.25,2,3,0.0,0.0,1,45.0,30.0,3,0.6509999999999999,1.0,90.557,0.0,0,2019-10-01 09:08:42.000,207,2019-10-01 09:10:12.291,0.25,-90,150,-180,-60,1
761,1,0,77.973,0,0,1,0.25,2,3,0.0,0.0,12,45.0,30.0,3,0.701,0.0,78.479,0.1,1,2019-10-03 08:53:10.000,238,2019-10-03 08:54:27.973,0.25,90,-180,-180,90,1
762,2,0,82.416,0,0,1,0.25,2,9,0.0,0.0,6,45.0,30.0,9,0.6509999999999999,1.0,83.194,0.14,1,2019-10-03 08:53:10.000,238,2019-10-03 08:54:32.416,0.25,-90,0,0,-90,1
763,3,0,94.247,0,0,1,0.25,2,3,0.0,0.0,12,45.0,30.0,3,0.851,1.0,94.853,0.0,0,2019-10-03 08:53:10.000,238,2019-10-03 08:54:44.247,0.25,-90,-180,-180,-90,1
764,5,0,108.345,0,0,1,0.25,2,3,0.0,0.0,12,45.0,30.0,3,0.8009999999999999,1.0,108.948,0.0,0,2019-10-03 08:53:10.000,238,2019-10-03 08:54:58.345,0.25,-90,-180,-180,-90,1
765,9,0,129.041,0,0,1,0.25,2,9,0.0,0.0,6,45.0,30.0,9,0.851,1.0,129.482,0.14,1,2019-10-03 08:53:10.000,238,2019-10-03 08:55:19.041,0.25,-90,0,0,-90,1
766,10,0,133.865,0,0,1,0.25,2,9,0.0,0.0,6,45.0,30.0,9,0.701,0.0,134.683,0.0,0,2019-10-03 08:53:10.000,238,2019-10-03 08:55:23.865,0.25,90,0,0,90,1
767,13,0,206.491,0,0,1,0.25,2,3,0.0,0.0,12,45.0,30.0,3,0.701,1.0,206.848,0.0,0,2019-10-03 08:53:10.000,238,2019-10-03 08:56:36.491,0.25,-90,-180,-180,-90,1
768,20,0,237.118,0,0,1,0.25,2,3,0.0,0.0,12,45.0,30.0,3,0.7509999999999999,1.0,237.682,0.0,0,2019-10-03 08:53:10.000,238,2019-10-03 08:57:07.118,0.25,-90,-180,-180,-90,1
769,22,0,243.541,0,0,1,0.25,2,9,0.0,0.0,6,45.0,30.0,9,0.7509999999999999,1.0,244.014,0.14,1,2019-10-03 08:53:10.000,238,2019-10-03 08:57:13.541,0.25,-90,0,0,-90,1
770,23,0,248.498,0,0,1,0.25,2,9,0.0,0.0,6,45.0,30.0,9,0.8009999999999999,1.0,249.103,0.14,1,2019-10-03 08:53:10.000,238,2019-10-03 08:57:18.498,0.25,-90,0,0,-90,1
1845,1,0,46.82899999999999,0,-30,1,0.25,2,3,0.0,0.0,1,45.0,30.0,3,0.701,0.0,47.441,0.12,1,2019-10-09 08:48:18.000,134,2019-10-09 08:49:04.829,0.25,90,150,-180,120,1
1846,2,0,53.548,0,-30,1,0.25,2,9,0.0,0.0,7,45.0,30.0,9,0.7509999999999999,0.0,54.113,0.0,0,2019-10-09 08:48:18.000,134,2019-10-09 08:49:11.548,0.25,90,-30,0,120,1
1847,6,0,92.572,0,-30,1,0.25,2,3,0.0,0.0,1,45.0,30.0,3,0.7509999999999999,0.0,93.164,0.12,1,2019-10-09 08:48:18.000,134,2019-10-09 08:49:50.572,0.25,90,150,-180,120,1
1848,7,0,96.096,0,-30,1,0.25,2,9,0.0,0.0,7,45.0,30.0,9,0.701,1.0,96.563,0.14,1,2019-10-09 08:48:18.000,134,2019-10-09 08:49:54.096,0.25,-90,-30,0,-60,1
1849,8,0,105.477,0,-30,1,0.25,2,9,0.0,0.0,7,45.0,30.0,9,0.8009999999999999,0.0,106.285,0.0,0,2019-10-09 08:48:18.000,134,2019-10-09 08:50:03.477,0.25,90,-30,0,120,1
1850,10,0,114.346,0,-30,1,0.25,2,9,0.0,0.0,7,45.0,30.0,9,0.851,1.0,114.603,0.14,1,2019-10-09 08:48:18.000,134,2019-10-09 08:50:12.346,0.25,-90,-30,0,-60,1
1851,11,0,119.029,0,-30,1,0.25,2,3,0.0,0.0,1,45.0,30.0,3,0.8009999999999999,0.0,119.519,0.12,1,2019-10-09 08:48:18.000,134,2019-10-09 08:50:17.029,0.25,90,150,-180,120,1
1852,12,0,122.627,0,-30,1,0.25,2,3,0.0,0.0,1,45.0,30.0,3,0.6509999999999999,0.0,123.709,0.12,1,2019-10-09 08:48:18.000,134,2019-10-09 08:50:20.627,0.25,90,150,-180,120,1
1853,13,0,127.229,0,-30,1,0.25,2,9,0.0,0.0,7,45.0,30.0,9,0.851,1.0,127.607,0.14,1,2019-10-09 08:48:18.000,134,2019-10-09 08:50:25.229,0.25,-90,-30,0,-60,1
1854,14,0,133.806,0,-30,1,0.25,2,3,0.0,0.0,1,45.0,30.0,3,0.7509999999999999,1.0,134.18,0.0,0,2019-10-09 08:48:18.000,134,2019-10-09 08:50:31.806,0.25,-90,150,-180,-60,1
2121,1,0,54.793,0,-60,1,0.25,2,9,0.0,0.0,8,45.0,30.0,9,0.8009999999999999,1.0,55.136,0.14,1,2019-10-10 08:41:24.000,131,2019-10-10 08:42:18.793,0.25,-90,-60,0,-30,1
2122,2,0,59.122,0,-60,1,0.25,2,3,0.0,0.0,2,45.0,30.0,3,0.851,0.0,59.392,0.12,1,2019-10-10 08:41:24.000,131,2019-10-10 08:42:23.122,0.25,90,120,-180,150,1
2123,3,0,62.01600000000001,0,-60,1,0.25,2,9,0.0,0.0,8,45.0,30.0,9,0.6509999999999999,1.0,62.963,0.14,1,2019-10-10 08:41:24.000,131,2019-10-10 08:42:26.016,0.25,-90,-60,0,-30,1
2124,4,0,67.348,0,-60,1,0.25,2,3,0.0,0.0,2,45.0,30.0,3,0.701,0.0,68.131,0.12,1,2019-10-10 08:41:24.000,131,2019-10-10 08:42:31.348,0.25,90,120,-180,150,1
2125,5,0,71.222,0,-60,1,0.25,2,3,0.0,0.0,2,45.0,30.0,3,0.7509999999999999,1.0,71.709,0.0,0,2019-10-10 08:41:24.000,131,2019-10-10 08:42:35.222,0.25,-90,120,-180,-30,1
2126,7,0,77.53399999999998,0,-60,1,0.25,2,9,0.0,0.0,8,45.0,30.0,9,0.701,1.0,78.00399999999998,0.14,1,2019-10-10 08:41:24.000,131,2019-10-10 08:42:41.534,0.25,-90,-60,0,-30,1
2127,8,0,82.09200000000001,0,-60,1,0.25,2,9,0.0,0.0,8,45.0,30.0,9,0.8009999999999999,0.0,82.868,0.0,0,2019-10-10 08:41:24.000,131,2019-10-10 08:42:46.092,0.25,90,-60,0,150,1
2128,10,0,88.92200000000003,0,-60,1,0.25,2,3,0.0,0.0,2,45.0,30.0,3,0.851,0.0,89.488,0.12,1,2019-10-10 08:41:24.000,131,2019-10-10 08:42:52.922,0.25,90,120,-180,150,1
2129,11,0,92.321,0,-60,1,0.25,2,3,0.0,0.0,2,45.0,30.0,3,0.8009999999999999,1.0,92.795,0.0,0,2019-10-10 08:41:24.000,131,2019-10-10 08:42:56.321,0.25,-90,120,-180,-30,1
2130,13,0,98.363,0,-60,1,0.25,2,3,0.0,0.0,2,45.0,30.0,3,0.851,1.0,98.702,0.0,0,2019-10-10 08:41:24.000,131,2019-10-10 08:43:02.363,0.25,-90,120,-180,-30,1
2287,1,0,33.995,0,-90,1,0.25,2,9,0.0,0.0,9,45.0,30.0,9,0.7509999999999999,0.0,34.425,0.0,0,2019-10-10 15:09:57.000,56,2019-10-10 15:10:30.995,0.25,90,-90,0,-180,1
2288,3,0,39.395,0,-90,1,0.25,2,9,0.0,0.0,9,45.0,30.0,9,0.6509999999999999,0.0,39.946,0.0,0,2019-10-10 15:09:57.000,56,2019-10-10 15:10:36.395,0.25,90,-90,0,-180,1
2289,5,0,43.984,0,-90,1,0.25,2,3,0.0,0.0,3,45.0,30.0,3,0.8009999999999999,0.0,44.303,0.12,1,2019-10-10 15:09:57.000,56,2019-10-10 15:10:40.984,0.25,90,90,-180,-180,1
2290,6,0,50.713,0,-90,1,0.25,2,3,0.0,0.0,3,45.0,30.0,3,0.851,0.0,51.58600000000001,0.12,1,2019-10-10 15:09:57.000,56,2019-10-10 15:10:47.713,0.25,90,90,-180,-180,1
2291,7,0,53.916,0,-90,1,0.25,2,9,0.0,0.0,9,45.0,30.0,9,0.7509999999999999,1.0,54.252,0.14,1,2019-10-10 15:09:57.000,56,2019-10-10 15:10:50.916,0.25,-90,-90,0,0,1
2292,8,0,59.485,0,-90,1,0.25,2,9,0.0,0.0,9,45.0,30.0,9,0.701,1.0,59.70399999999999,0.14,1,2019-10-10 15:09:57.000,56,2019-10-10 15:10:56.485,0.25,-90,-90,0,0,1
2293,9,0,64.27600000000001,0,-90,1,0.25,2,3,0.0,0.0,3,45.0,30.0,3,0.6509999999999999,0.0,64.671,0.12,1,2019-10-10 15:09:57.000,56,2019-10-10 15:11:01.276,0.25,90,90,-180,-180,1
2294,10,0,66.374,0,-90,1,0.25,2,3,0.0,0.0,3,45.0,30.0,3,0.8009999999999999,1.0,66.892,0.0,0,2019-10-10 15:09:57.000,56,2019-10-10 15:11:03.374,0.25,-90,90,-180,0,1
2295,12,0,82.402,0,-90,1,0.25,2,9,0.0,0.0,9,45.0,30.0,9,0.8009999999999999,1.0,83.084,0.14,1,2019-10-10 15:09:57.000,56,2019-10-10 15:11:19.402,0.25,-90,-90,0,0,1
2296,13,0,88.469,0,-90,1,0.25,2,3,0.0,0.0,3,45.0,30.0,3,0.6509999999999999,0.0,89.227,0.12,1,2019-10-10 15:09:57.000,56,2019-10-10 15:11:25.469,0.25,90,90,-180,-180,1
2514,1,0,88.72200000000002,0,-120,1,0.25,2,9,0.0,0.0,10,45.0,30.0,9,0.701,0.0,89.45200000000001,0.0,0,2019-10-11 08:54:51.000,146,2019-10-11 08:56:19.722,0.25,90,-120,0,-150,1
2515,8,0,140.862,0,-120,1,0.25,2,9,0.0,0.0,10,45.0,30.0,9,0.7509999999999999,0.0,141.306,0.0,0,2019-10-11 08:54:51.000,146,2019-10-11 08:57:11.862,0.25,90,-120,0,-150,1
2516,10,0,147.621,0,-120,1,0.25,2,9,0.0,0.0,10,45.0,30.0,9,0.8009999999999999,0.0,147.971,0.0,0,2019-10-11 08:54:51.000,146,2019-10-11 08:57:18.621,0.25,90,-120,0,-150,1
2517,12,0,153.745,0,-120,1,0.25,2,9,0.0,0.0,10,45.0,30.0,9,0.6509999999999999,0.0,154.35299999999995,0.0,0,2019-10-11 08:54:51.000,146,2019-10-11 08:57:24.745,0.25,90,-120,0,-150,1
2518,14,0,162.409,0,-120,1,0.25,2,3,0.0,0.0,4,45.0,30.0,3,0.8009999999999999,1.0,162.901,0.0,0,2019-10-11 08:54:51.000,146,2019-10-11 08:57:33.409,0.25,-90,60,-180,30,1
2519,16,0,167.91400000000004,0,-120,1,0.25,2,3,0.0,0.0,4,45.0,30.0,3,0.8009999999999999,1.0,168.53599999999997,0.0,0,2019-10-11 08:54:51.000,146,2019-10-11 08:57:38.914,0.25,-90,60,-180,30,1
2520,18,0,174.705,0,-120,1,0.25,2,9,0.0,0.0,10,45.0,30.0,9,0.701,0.0,175.854,0.0,0,2019-10-11 08:54:51.000,146,2019-10-11 08:57:45.705,0.25,90,-120,0,-150,1
2521,20,0,182.111,0,-120,1,0.25,2,3,0.0,0.0,4,45.0,30.0,3,0.6509999999999999,1.0,182.627,0.0,0,2019-10-11 08:54:51.000,146,2019-10-11 08:57:53.111,0.25,-90,60,-180,30,1
2522,22,0,194.764,0,-120,1,0.25,2,3,0.0,0.0,4,45.0,30.0,3,0.8009999999999999,0.0,195.269,0.12,1,2019-10-11 08:54:51.000,146,2019-10-11 08:58:05.764,0.25,90,60,-180,-150,1
2523,23,0,197.083,0,-120,1,0.25,2,3,0.0,0.0,4,45.0,30.0,3,0.851,1.0,197.532,0.0,0,2019-10-11 08:54:51.000,146,2019-10-11 08:58:08.083,0.25,-90,60,-180,30,1
2544,1,0,27.412,0,0,1,0.25,2,3,0.0,0.0,12,45.0,30.0,3,0.6509999999999999,0.0,28.09,0.12,1,2019-10-11 09:02:30.000,8,2019-10-11 09:02:57.412,0.25,90,-180,-180,90,1
2545,2,0,35.114000000000004,0,0,1,0.25,2,9,0.0,0.0,6,45.0,30.0,9,0.8009999999999999,0.0,35.526,0.0,0,2019-10-11 09:02:30.000,8,2019-10-11 09:03:05.114,0.25,90,0,0,90,1
2546,4,0,47.621,0,0,1,0.25,2,9,0.0,0.0,6,45.0,30.0,9,0.7509999999999999,1.0,48.06800000000001,0.14,1,2019-10-11 09:02:30.000,8,2019-10-11 09:03:17.621,0.25,-90,0,0,-90,1
2547,5,0,53.203,0,0,1,0.25,2,3,0.0,0.0,12,45.0,30.0,3,0.701,1.0,53.644,0.0,0,2019-10-11 09:02:30.000,8,2019-10-11 09:03:23.203,0.25,-90,-180,-180,-90,1
2548,7,0,59.701,0,0,1,0.25,2,9,0.0,0.0,6,45.0,30.0,9,0.851,1.0,60.045,0.14,1,2019-10-11 09:02:30.000,8,2019-10-11 09:03:29.701,0.25,-90,0,0,-90,1
2549,8,0,64.69,0,0,1,0.25,2,3,0.0,0.0,12,45.0,30.0,3,0.701,1.0,65.607,0.0,0,2019-10-11 09:02:30.000,8,2019-10-11 09:03:34.690,0.25,-90,-180,-180,-90,1
2550,10,0,71.611,0,0,1,0.25,2,9,0.0,0.0,6,45.0,30.0,9,0.7509999999999999,1.0,72.462,0.14,1,2019-10-11 09:02:30.000,8,2019-10-11 09:03:41.611,0.25,-90,0,0,-90,1
2551,11,0,76.72399999999998,0,0,1,0.25,2,9,0.0,0.0,6,45.0,30.0,9,0.6509999999999999,1.0,77.252,0.14,1,2019-10-11 09:02:30.000,8,2019-10-11 09:03:46.724,0.25,-90,0,0,-90,1
2552,12,0,81.372,0,0,1,0.25,2,9,0.0,0.0,6,45.0,30.0,9,0.8009999999999999,1.0,81.737,0.14,1,2019-10-11 09:02:30.000,8,2019-10-11 09:03:51.372,0.25,-90,0,0,-90,1
2553,13,0,85.162,0,0,1,0.25,2,9,0.0,0.0,6,45.0,30.0,9,0.7509999999999999,1.0,86.115,0.14,1,2019-10-11 09:02:30.000,8,2019-10-11 09:03:55.162,0.25,-90,0,0,-90,1
4197,1,0,92.215,0,30,1,0.25,2,3,0.0,0.0,11,45.0,30.0,3,0.6509999999999999,0.0,93.651,0.12,1,2019-10-31 08:41:18.000,132,2019-10-31 08:42:50.215,0.25,90,-150,-180,60,1
4198,2,0,97.77,0,30,1,0.25,2,3,0.0,0.0,11,45.0,30.0,3,0.701,1.0,98.246,0.0,0,2019-10-31 08:41:18.000,132,2019-10-31 08:42:55.770,0.25,-90,-150,-180,-120,1
4199,4,0,143.461,0,30,1,0.25,2,3,0.0,0.0,11,45.0,30.0,3,0.851,0.0,144.26,0.12,1,2019-10-31 08:41:18.000,132,2019-10-31 08:43:41.461,0.25,90,-150,-180,60,1
4200,5,0,150.217,0,30,1,0.25,2,9,0.0,0.0,5,45.0,30.0,9,0.7509999999999999,0.0,150.75799999999995,0.0,0,2019-10-31 08:41:18.000,132,2019-10-31 08:43:48.217,0.25,90,30,0,60,1
4201,10,0,188.504,0,30,1,0.25,2,9,0.0,0.0,5,45.0,30.0,9,0.7509999999999999,0.0,188.78,0.0,0,2019-10-31 08:41:18.000,132,2019-10-31 08:44:26.504,0.25,90,30,0,60,1
4202,13,0,204.63,0,30,1,0.25,2,3,0.0,0.0,11,45.0,30.0,3,0.8009999999999999,0.0,205.212,0.12,1,2019-10-31 08:41:18.000,132,2019-10-31 08:44:42.630,0.25,90,-150,-180,60,1
4203,14,0,209.99400000000003,0,30,1,0.25,2,9,0.0,0.0,5,45.0,30.0,9,0.7509999999999999,1.0,210.541,0.14,1,2019-10-31 08:41:18.000,132,2019-10-31 08:44:47.994,0.25,-90,30,0,-120,1
4204,15,0,215.586,0,30,1,0.25,2,3,0.0,0.0,11,45.0,30.0,3,0.851,1.0,216.035,0.0,0,2019-10-31 08:41:18.000,132,2019-10-31 08:44:53.586,0.25,-90,-150,-180,-120,1
4205,17,0,222.805,0,30,1,0.25,2,9,0.0,0.0,5,45.0,30.0,9,0.851,1.0,223.357,0.14,1,2019-10-31 08:41:18.000,132,2019-10-31 08:45:00.805,0.25,-90,30,0,-120,1
4206,18,0,227.895,0,30,1,0.25,2,3,0.0,0.0,11,45.0,30.0,3,0.7509999999999999,0.0,228.449,0.12,1,2019-10-31 08:41:18.000,132,2019-10-31 08:45:05.895,0.25,90,-150,-180,60,1
4752,1,0,60.334,0,-30,1,0.25,2,9,0.0,0.0,7,45.0,30.0,9,0.7509999999999999,1.0,59.541,0.17,1,2019-11-06 10:27:58.000,24,2019-11-06 10:28:58.334,0.25,-90,-30,0,-60,1
4753,2,0,127.97,0,-30,1,0.25,2,3,0.0,0.0,1,45.0,30.0,3,0.901,1.0,130.05700000000002,0.0,0,2019-11-06 10:27:58.000,24,2019-11-06 10:30:05.970,0.25,-90,150,-180,-60,1
4754,5,0,189.458,0,-30,1,0.25,2,3,0.0,0.0,1,45.0,30.0,3,0.701,0.0,190.383,0.13,1,2019-11-06 10:27:58.000,24,2019-11-06 10:31:07.458,0.25,90,150,-180,120,1
4755,6,0,194.475,0,-30,1,0.25,2,9,0.0,0.0,7,45.0,30.0,9,0.851,0.0,195.378,0.0,0,2019-11-06 10:27:58.000,24,2019-11-06 10:31:12.475,0.25,90,-30,0,120,1
4756,8,0,217.485,0,-30,1,0.25,2,9,0.0,0.0,7,45.0,30.0,9,0.901,0.0,218.172,0.0,0,2019-11-06 10:27:58.000,24,2019-11-06 10:31:35.485,0.25,90,-30,0,120,1
4757,10,0,235.203,0,-30,1,0.25,2,3,0.0,0.0,1,45.0,30.0,3,0.701,1.0,235.834,0.0,0,2019-11-06 10:27:58.000,24,2019-11-06 10:31:53.203,0.25,-90,150,-180,-60,1
4758,15,0,258.35400000000004,0,-30,1,0.25,2,9,0.0,0.0,7,45.0,30.0,9,0.701,0.0,259.379,0.0,0,2019-11-06 10:27:58.000,24,2019-11-06 10:32:16.354,0.25,90,-30,0,120,1
4759,17,0,276.392,0,-30,1,0.25,2,9,0.0,0.0,7,45.0,30.0,9,0.8009999999999999,0.0,276.755,0.0,0,2019-11-06 10:27:58.000,24,2019-11-06 10:32:34.392,0.25,90,-30,0,120,1
4760,19,0,294.791,0,-30,1,0.25,2,9,0.0,0.0,7,45.0,30.0,9,0.901,1.0,295.744,0.17,1,2019-11-06 10:27:58.000,24,2019-11-06 10:32:52.791,0.25,-90,-30,0,-60,1
4761,20,0,302.274,0,-30,1,0.25,2,3,0.0,0.0,1,45.0,30.0,3,0.851,1.0,302.858,0.0,0,2019-11-06 10:27:58.000,24,2019-11-06 10:33:00.274,0.25,-90,150,-180,-60,1
5065,1,0,58.73,0,-60,1,0.25,2,3,0.0,0.0,2,45.0,30.0,3,0.851,0.0,59.589,0.13,1,2019-11-08 08:35:58.000,116,2019-11-08 08:36:56.730,0.25,90,120,-180,150,1
5066,2,0,67.358,0,-60,1,0.25,2,3,0.0,0.0,2,45.0,30.0,3,0.701,1.0,67.938,0.0,0,2019-11-08 08:35:58.000,116,2019-11-08 08:37:05.358,0.25,-90,120,-180,-30,1
5067,4,0,77.682,0,-60,1,0.25,2,3,0.0,0.0,2,45.0,30.0,3,0.901,1.0,78.212,0.0,0,2019-11-08 08:35:58.000,116,2019-11-08 08:37:15.682,0.25,-90,120,-180,-30,1
5068,6,0,102.668,0,-60,1,0.25,2,9,0.0,0.0,8,45.0,30.0,9,0.901,1.0,103.013,0.17,1,2019-11-08 08:35:58.000,116,2019-11-08 08:37:40.668,0.25,-90,-60,0,-30,1
5069,7,0,112.009,0,-60,1,0.25,2,9,0.0,0.0,8,45.0,30.0,9,0.8009999999999999,1.0,112.911,0.17,1,2019-11-08 08:35:58.000,116,2019-11-08 08:37:50.009,0.25,-90,-60,0,-30,1
5070,8,0,117.824,0,-60,1,0.25,2,3,0.0,0.0,2,45.0,30.0,3,0.701,0.0,118.399,0.13,1,2019-11-08 08:35:58.000,116,2019-11-08 08:37:55.824,0.25,90,120,-180,150,1
5071,9,0,120.656,0,-60,1,0.25,2,3,0.0,0.0,2,45.0,30.0,3,0.7509999999999999,1.0,122.051,0.0,0,2019-11-08 08:35:58.000,116,2019-11-08 08:37:58.656,0.25,-90,120,-180,-30,1
5072,11,0,134.1,0,-60,1,0.25,2,3,0.0,0.0,2,45.0,30.0,3,0.851,0.0,134.408,0.13,1,2019-11-08 08:35:58.000,116,2019-11-08 08:38:12.100,0.25,90,120,-180,150,1
5073,12,0,139.58100000000002,0,-60,1,0.25,2,9,0.0,0.0,8,45.0,30.0,9,0.701,1.0,140.266,0.17,1,2019-11-08 08:35:58.000,116,2019-11-08 08:38:17.581,0.25,-90,-60,0,-30,1
5074,13,0,145.011,0,-60,1,0.25,2,3,0.0,0.0,2,45.0,30.0,3,0.8009999999999999,0.0,145.189,0.13,1,2019-11-08 08:35:58.000,116,2019-11-08 08:38:23.011,0.25,90,120,-180,150,1
5236,1,0,34.686,0,0,1,0.25,2,3,0.0,0.0,12,45.0,30.0,3,0.8009999999999999,0.0,35.279,0.13,1,2019-11-12 10:15:09.000,111,2019-11-12 10:15:43.686,0.25,90,-180,-180,90,1
5237,2,0,40.746,0,0,1,0.25,2,3,0.0,0.0,12,45.0,30.0,3,0.7509999999999999,1.0,40.928,0.0,0,2019-11-12 10:15:09.000,111,2019-11-12 10:15:49.746,0.25,-90,-180,-180,-90,1
5238,4,0,58.035,0,0,1,0.25,2,3,0.0,0.0,12,45.0,30.0,3,0.851,0.0,58.589,0.13,1,2019-11-12 10:15:09.000,111,2019-11-12 10:16:07.035,0.25,90,-180,-180,90,1
5239,5,0,64.789,0,0,1,0.25,2,9,0.0,0.0,6,45.0,30.0,9,0.901,0.0,65.404,0.0,0,2019-11-12 10:15:09.000,111,2019-11-12 10:16:13.789,0.25,90,0,0,90,1
5240,9,0,120.874,0,0,1,0.25,2,9,0.0,0.0,6,45.0,30.0,9,0.851,1.0,121.422,0.17,1,2019-11-12 10:15:09.000,111,2019-11-12 10:17:09.874,0.25,-90,0,0,-90,1
5241,10,0,126.46,0,0,1,0.25,2,9,0.0,0.0,6,45.0,30.0,9,0.8009999999999999,1.0,126.936,0.17,1,2019-11-12 10:15:09.000,111,2019-11-12 10:17:15.460,0.25,-90,0,0,-90,1
5242,11,0,131.102,0,0,1,0.25,2,3,0.0,0.0,12,45.0,30.0,3,0.8009999999999999,1.0,131.70600000000002,0.0,0,2019-11-12 10:15:09.000,111,2019-11-12 10:17:20.102,0.25,-90,-180,-180,-90,1
5243,15,0,150.256,0,0,1,0.25,2,3,0.0,0.0,12,45.0,30.0,3,0.851,0.0,150.906,0.13,1,2019-11-12 10:15:09.000,111,2019-11-12 10:17:39.256,0.25,90,-180,-180,90,1
5244,16,0,154.811,0,0,1,0.25,2,9,0.0,0.0,6,45.0,30.0,9,0.701,0.0,155.452,0.0,0,2019-11-12 10:15:09.000,111,2019-11-12 10:17:43.811,0.25,90,0,0,90,1
5245,18,0,167.57299999999995,0,0,1,0.25,2,3,0.0,0.0,12,45.0,30.0,3,0.901,1.0,168.2,0.0,0,2019-11-12 10:15:09.000,111,2019-11-12 10:17:56.573,0.25,-90,-180,-180,-90,1
5505,1,0,43.424,0,-60,1,0.25,2,9,0.0,0.0,8,45.0,30.0,9,0.701,1.0,44.037,0.17,1,2019-11-13 16:34:52.000,5,2019-11-13 16:35:35.424,0.25,-90,-60,0,-30,1
5506,2,0,49.905,0,-60,1,0.25,2,9,0.0,0.0,8,45.0,30.0,9,0.851,1.0,50.76300000000001,0.17,1,2019-11-13 16:34:52.000,5,2019-11-13 16:35:41.905,0.25,-90,-60,0,-30,1
5507,3,0,55.755,0,-60,1,0.25,2,9,0.0,0.0,8,45.0,30.0,9,0.8009999999999999,0.0,56.51,0.0,0,2019-11-13 16:34:52.000,5,2019-11-13 16:35:47.755,0.25,90,-60,0,150,1
5508,6,0,75.908,0,-60,1,0.25,2,3,0.0,0.0,2,45.0,30.0,3,0.7509999999999999,0.0,76.332,0.13,1,2019-11-13 16:34:52.000,5,2019-11-13 16:36:07.908,0.25,90,120,-180,150,1
5509,7,0,79.373,0,-60,1,0.25,2,9,0.0,0.0,8,45.0,30.0,9,0.851,1.0,80.192,0.17,1,2019-11-13 16:34:52.000,5,2019-11-13 16:36:11.373,0.25,-90,-60,0,-30,1
5510,8,0,85.26,0,-60,1,0.25,2,3,0.0,0.0,2,45.0,30.0,3,0.8009999999999999,0.0,85.84299999999998,0.13,1,2019-11-13 16:34:52.000,5,2019-11-13 16:36:17.260,0.25,90,120,-180,150,1
5511,9,0,88.29700000000003,0,-60,1,0.25,2,9,0.0,0.0,8,45.0,30.0,9,0.701,1.0,89.023,0.17,1,2019-11-13 16:34:52.000,5,2019-11-13 16:36:20.297,0.25,-90,-60,0,-30,1
5512,10,0,96.747,0,-60,1,0.25,2,3,0.0,0.0,2,45.0,30.0,3,0.901,1.0,97.228,0.0,0,2019-11-13 16:34:52.000,5,2019-11-13 16:36:28.747,0.25,-90,120,-180,-30,1
5513,12,0,106.526,0,-60,1,0.25,2,9,0.0,0.0,8,45.0,30.0,9,0.901,0.0,107.208,0.0,0,2019-11-13 16:34:52.000,5,2019-11-13 16:36:38.526,0.25,90,-60,0,150,1
5514,14,0,123.965,0,-60,1,0.25,2,3,0.0,0.0,2,45.0,30.0,3,0.851,0.0,124.515,0.13,1,2019-11-13 16:34:52.000,5,2019-11-13 16:36:55.965,0.25,90,120,-180,150,1
5640,1,0,109.418,0,-90,1,0.25,2,9,0.0,0.0,9,45.0,30.0,9,0.851,1.0,109.873,0.17,1,2019-11-14 08:54:49.000,94,2019-11-14 08:56:38.418,0.25,-90,-90,0,0,1
5641,2,0,115.062,0,-90,1,0.25,2,9,0.0,0.0,9,45.0,30.0,9,0.7509999999999999,1.0,115.737,0.17,1,2019-11-14 08:54:49.000,94,2019-11-14 08:56:44.062,0.25,-90,-90,0,0,1
5642,3,0,120.72,0,-90,1,0.25,2,3,0.0,0.0,3,45.0,30.0,3,0.8009999999999999,1.0,121.234,0.0,0,2019-11-14 08:54:49.000,94,2019-11-14 08:56:49.720,0.25,-90,90,-180,0,1
5643,8,0,160.232,0,-90,1,0.25,2,9,0.0,0.0,9,45.0,30.0,9,0.7509999999999999,1.0,160.72299999999996,0.17,1,2019-11-14 08:54:49.000,94,2019-11-14 08:57:29.232,0.25,-90,-90,0,0,1
5644,9,0,164.679,0,-90,1,0.25,2,3,0.0,0.0,3,45.0,30.0,3,0.8009999999999999,0.0,164.979,0.13,1,2019-11-14 08:54:49.000,94,2019-11-14 08:57:33.679,0.25,90,90,-180,-180,1
5645,10,0,168.875,0,-90,1,0.25,2,9,0.0,0.0,9,45.0,30.0,9,0.901,0.0,169.49599999999995,0.0,0,2019-11-14 08:54:49.000,94,2019-11-14 08:57:37.875,0.25,90,-90,0,-180,1
5646,14,0,207.686,0,-90,1,0.25,2,9,0.0,0.0,9,45.0,30.0,9,0.901,1.0,208.171,0.17,1,2019-11-14 08:54:49.000,94,2019-11-14 08:58:16.686,0.25,-90,-90,0,0,1
5647,15,0,212.906,0,-90,1,0.25,2,9,0.0,0.0,9,45.0,30.0,9,0.7509999999999999,1.0,213.355,0.17,1,2019-11-14 08:54:49.000,94,2019-11-14 08:58:21.906,0.25,-90,-90,0,0,1
5648,16,0,218.632,0,-90,1,0.25,2,3,0.0,0.0,3,45.0,30.0,3,0.851,1.0,218.983,0.0,0,2019-11-14 08:54:49.000,94,2019-11-14 08:58:27.632,0.25,-90,90,-180,0,1
5649,18,0,233.356,0,-90,1,0.25,2,3,0.0,0.0,3,45.0,30.0,3,0.7509999999999999,0.0,234.153,0.13,1,2019-11-14 08:54:49.000,94,2019-11-14 08:58:42.356,0.25,90,90,-180,-180,1
5893,1,0,78.523,0,-120,1,0.25,2,9,0.0,0.0,10,45.0,30.0,9,0.901,0.0,78.66199999999998,0.0,0,2019-11-15 09:07:22.000,121,2019-11-15 09:08:40.523,0.25,90,-120,0,-150,1
5894,3,0,89.756,0,-120,1,0.25,2,9,0.0,0.0,10,45.0,30.0,9,0.701,1.0,90.348,0.17,1,2019-11-15 09:07:22.000,121,2019-11-15 09:08:51.756,0.25,-90,-120,0,30,1
5895,4,0,96.5,0,-120,1,0.25,2,9,0.0,0.0,10,45.0,30.0,9,0.851,1.0,97.233,0.17,1,2019-11-15 09:07:22.000,121,2019-11-15 09:08:58.500,0.25,-90,-120,0,30,1
5896,5,0,102.574,0,-120,1,0.25,2,3,0.0,0.0,4,45.0,30.0,3,0.7509999999999999,1.0,103.113,0.0,0,2019-11-15 09:07:22.000,121,2019-11-15 09:09:04.574,0.25,-90,60,-180,30,1
5897,7,0,110.712,0,-120,1,0.25,2,9,0.0,0.0,10,45.0,30.0,9,0.8009999999999999,1.0,111.163,0.17,1,2019-11-15 09:07:22.000,121,2019-11-15 09:09:12.712,0.25,-90,-120,0,30,1
5898,8,0,115.904,0,-120,1,0.25,2,9,0.0,0.0,10,45.0,30.0,9,0.901,1.0,116.229,0.17,1,2019-11-15 09:07:22.000,121,2019-11-15 09:09:17.904,0.25,-90,-120,0,30,1
5899,9,0,120.281,0,-120,1,0.25,2,3,0.0,0.0,4,45.0,30.0,3,0.7509999999999999,0.0,120.576,0.13,1,2019-11-15 09:07:22.000,121,2019-11-15 09:09:22.281,0.25,90,60,-180,-150,1
5900,10,0,124.378,0,-120,1,0.25,2,3,0.0,0.0,4,45.0,30.0,3,0.851,0.0,124.979,0.13,1,2019-11-15 09:07:22.000,121,2019-11-15 09:09:26.378,0.25,90,60,-180,-150,1
5901,11,0,129.011,0,-120,1,0.25,2,9,0.0,0.0,10,45.0,30.0,9,0.7509999999999999,1.0,129.82299999999998,0.17,1,2019-11-15 09:07:22.000,121,2019-11-15 09:09:31.011,0.25,-90,-120,0,30,1
5902,12,0,137.091,0,-120,1,0.25,2,9,0.0,0.0,10,45.0,30.0,9,0.851,1.0,137.65200000000002,0.17,1,2019-11-15 09:07:22.000,121,2019-11-15 09:09:39.091,0.25,-90,-120,0,30,1
6088,1,0,81.854,0,0,1,0.25,2,9,0.0,0.0,6,45.0,30.0,9,0.7509999999999999,1.0,82.785,0.17,1,2019-11-25 16:05:14.000,81,2019-11-25 16:06:35.854,0.25,-90,0,0,-90,1
6089,2,0,87.383,0,0,1,0.25,2,9,0.0,0.0,6,45.0,30.0,9,0.8009999999999999,1.0,87.89299999999999,0.17,1,2019-11-25 16:05:14.000,81,2019-11-25 16:06:41.383,0.25,-90,0,0,-90,1
6090,3,0,92.357,0,0,1,0.25,2,9,0.0,0.0,6,45.0,30.0,9,0.901,1.0,92.925,0.17,1,2019-11-25 16:05:14.000,81,2019-11-25 16:06:46.357,0.25,-90,0,0,-90,1
6091,4,0,97.605,0,0,1,0.25,2,3,0.0,0.0,12,45.0,30.0,3,0.701,1.0,99.315,0.0,0,2019-11-25 16:05:14.000,81,2019-11-25 16:06:51.605,0.25,-90,-180,-180,-90,1
6092,6,0,106.707,0,0,1,0.25,2,9,0.0,0.0,6,45.0,30.0,9,0.851,1.0,106.976,0.17,1,2019-11-25 16:05:14.000,81,2019-11-25 16:07:00.707,0.25,-90,0,0,-90,1
6093,7,0,111.425,0,0,1,0.25,2,9,0.0,0.0,6,45.0,30.0,9,0.7509999999999999,1.0,111.708,0.17,1,2019-11-25 16:05:14.000,81,2019-11-25 16:07:05.425,0.25,-90,0,0,-90,1
6094,8,0,116.169,0,0,1,0.25,2,3,0.0,0.0,12,45.0,30.0,3,0.8009999999999999,1.0,116.958,0.0,0,2019-11-25 16:05:14.000,81,2019-11-25 16:07:10.169,0.25,-90,-180,-180,-90,1
6095,12,0,196.632,0,0,1,0.25,2,9,0.0,0.0,6,45.0,30.0,9,0.851,1.0,197.071,0.17,1,2019-11-25 16:05:14.000,81,2019-11-25 16:08:30.632,0.25,-90,0,0,-90,1
6096,13,0,202.013,0,0,1,0.25,2,9,0.0,0.0,6,45.0,30.0,9,0.701,1.0,202.361,0.17,1,2019-11-25 16:05:14.000,81,2019-11-25 16:08:36.013,0.25,-90,0,0,-90,1
6097,14,0,206.836,0,0,1,0.25,2,3,0.0,0.0,12,45.0,30.0,3,0.8009999999999999,1.0,207.063,0.0,0,2019-11-25 16:05:14.000,81,2019-11-25 16:08:40.836,0.25,-90,-180,-180,-90,1
6258,1,0,37.047,0,180,1,0.25,2,3,0.0,0.0,6,45.0,30.0,3,0.8009999999999999,1.0,38.143,0.0,0,2019-11-26 14:03:09.000,14,2019-11-26 14:03:46.047,0.25,-90,0,-180,90,1
6259,3,0,71.523,0,180,1,0.25,2,3,0.0,0.0,6,45.0,30.0,3,0.901,0.0,71.987,0.13,1,2019-11-26 14:03:09.000,14,2019-11-26 14:04:20.523,0.25,90,0,-180,-90,1
6260,4,0,78.558,0,180,1,0.25,2,3,0.0,0.0,6,45.0,30.0,3,0.7509999999999999,1.0,79.209,0.0,0,2019-11-26 14:03:09.000,14,2019-11-26 14:04:27.558,0.25,-90,0,-180,90,1
6261,6,0,89.78200000000002,0,180,1,0.25,2,3,0.0,0.0,6,45.0,30.0,3,0.7509999999999999,0.0,90.578,0.13,1,2019-11-26 14:03:09.000,14,2019-11-26 14:04:38.782,0.25,90,0,-180,-90,1
6262,7,0,94.006,0,180,1,0.25,2,9,0.0,0.0,12,45.0,30.0,9,0.701,0.0,94.843,0.0,0,2019-11-26 14:03:09.000,14,2019-11-26 14:04:43.006,0.25,90,-180,0,-90,1
6263,9,0,104.309,0,180,1,0.25,2,9,0.0,0.0,12,45.0,30.0,9,0.851,1.0,104.782,0.17,1,2019-11-26 14:03:09.000,14,2019-11-26 14:04:53.309,0.25,-90,-180,0,90,1
6264,10,0,109.77,0,180,1,0.25,2,9,0.0,0.0,12,45.0,30.0,9,0.8009999999999999,1.0,110.317,0.17,1,2019-11-26 14:03:09.000,14,2019-11-26 14:04:58.770,0.25,-90,-180,0,90,1
6265,11,0,114.174,0,180,1,0.25,2,9,0.0,0.0,12,45.0,30.0,9,0.701,0.0,115.007,0.0,0,2019-11-26 14:03:09.000,14,2019-11-26 14:05:03.174,0.25,90,-180,0,-90,1
6266,13,0,123.995,0,180,1,0.25,2,3,0.0,0.0,6,45.0,30.0,3,0.8009999999999999,0.0,124.641,0.13,1,2019-11-26 14:03:09.000,14,2019-11-26 14:05:12.995,0.25,90,0,-180,-90,1
6267,14,0,127.932,0,180,1,0.25,2,3,0.0,0.0,6,45.0,30.0,3,0.901,0.0,128.92700000000002,0.13,1,2019-11-26 14:03:09.000,14,2019-11-26 14:05:16.932,0.25,90,0,-180,-90,1
6385,1,0,42.408,0,0,1,0.25,2,9,0.0,0.0,6,45.0,30.0,9,0.8009999999999999,1.0,42.951,0.17,1,2019-11-27 08:59:35.000,220,2019-11-27 09:00:17.408,0.25,-90,0,0,-90,1
6386,2,0,47.57100000000001,0,0,1,0.25,2,9,0.0,0.0,6,45.0,30.0,9,0.701,0.0,48.43600000000001,0.0,0,2019-11-27 08:59:35.000,220,2019-11-27 09:00:22.571,0.25,90,0,0,90,1
6387,6,0,91.399,0,0,1,0.25,2,3,0.0,0.0,12,45.0,30.0,3,0.701,0.0,91.858,0.13,1,2019-11-27 08:59:35.000,220,2019-11-27 09:01:06.399,0.25,90,-180,-180,90,1
6388,7,0,94.359,0,0,1,0.25,2,9,0.0,0.0,6,45.0,30.0,9,0.851,0.0,94.979,0.0,0,2019-11-27 08:59:35.000,220,2019-11-27 09:01:09.359,0.25,90,0,0,90,1
6389,9,0,105.903,0,0,1,0.25,2,3,0.0,0.0,12,45.0,30.0,3,0.8009999999999999,1.0,106.312,0.0,0,2019-11-27 08:59:35.000,220,2019-11-27 09:01:20.903,0.25,-90,-180,-180,-90,1
6390,13,0,142.13299999999995,0,0,1,0.25,2,3,0.0,0.0,12,45.0,30.0,3,0.8009999999999999,0.0,142.894,0.13,1,2019-11-27 08:59:35.000,220,2019-11-27 09:01:57.133,0.25,90,-180,-180,90,1
6391,14,0,149.32399999999996,0,0,1,0.25,2,9,0.0,0.0,6,45.0,30.0,9,0.851,1.0,149.654,0.17,1,2019-11-27 08:59:35.000,220,2019-11-27 09:02:04.324,0.25,-90,0,0,-90,1
6392,15,0,158.338,0,0,1,0.25,2,3,0.0,0.0,12,45.0,30.0,3,0.7509999999999999,0.0,159.322,0.13,1,2019-11-27 08:59:35.000,220,2019-11-27 09:02:13.338,0.25,90,-180,-180,90,1
6393,16,0,163.457,0,0,1,0.25,2,9,0.0,0.0,6,45.0,30.0,9,0.851,0.0,164.083,0.0,0,2019-11-27 08:59:35.000,220,2019-11-27 09:02:18.457,0.25,90,0,0,90,1
6394,18,0,177.858,0,0,1,0.25,2,9,0.0,0.0,6,45.0,30.0,9,0.7509999999999999,1.0,178.50400000000005,0.17,1,2019-11-27 08:59:35.000,220,2019-11-27 09:02:32.858,0.25,-90,0,0,-90,1
6486,1,0,72.102,0,60,1,0.25,2,9,0.0,0.0,4,45.0,30.0,9,0.901,1.0,73.597,0.17,1,2019-11-27 14:23:17.000,171,2019-11-27 14:24:29.102,0.25,-90,60,0,-150,1
6487,2,0,77.976,0,60,1,0.25,2,9,0.0,0.0,4,45.0,30.0,9,0.851,0.0,78.60600000000002,0.0,0,2019-11-27 14:23:17.000,171,2019-11-27 14:24:34.976,0.25,90,60,0,30,1
6488,5,0,174.885,0,60,1,0.25,2,9,0.0,0.0,4,45.0,30.0,9,0.7509999999999999,1.0,175.34599999999998,0.17,1,2019-11-27 14:23:17.000,171,2019-11-27 14:26:11.885,0.25,-90,60,0,-150,1
6489,6,0,180.676,0,60,1,0.25,2,3,0.0,0.0,10,45.0,30.0,3,0.701,0.0,181.49400000000003,0.13,1,2019-11-27 14:23:17.000,171,2019-11-27 14:26:17.676,0.25,90,-120,-180,30,1
6490,7,0,185.204,0,60,1,0.25,2,3,0.0,0.0,10,45.0,30.0,3,0.7509999999999999,1.0,185.732,0.0,0,2019-11-27 14:23:17.000,171,2019-11-27 14:26:22.204,0.25,-90,-120,-180,-150,1
6491,10,0,201.242,0,60,1,0.25,2,9,0.0,0.0,4,45.0,30.0,9,0.8009999999999999,1.0,201.829,0.17,1,2019-11-27 14:23:17.000,171,2019-11-27 14:26:38.242,0.25,-90,60,0,-150,1
6492,11,0,212.799,0,60,1,0.25,2,9,0.0,0.0,4,45.0,30.0,9,0.901,1.0,213.558,0.17,1,2019-11-27 14:23:17.000,171,2019-11-27 14:26:49.799,0.25,-90,60,0,-150,1
6493,12,0,218.747,0,60,1,0.25,2,9,0.0,0.0,4,45.0,30.0,9,0.7509999999999999,1.0,219.38,0.17,1,2019-11-27 14:23:17.000,171,2019-11-27 14:26:55.747,0.25,-90,60,0,-150,1
6494,13,0,224.431,0,60,1,0.25,2,9,0.0,0.0,4,45.0,30.0,9,0.701,1.0,224.782,0.17,1,2019-11-27 14:23:17.000,171,2019-11-27 14:27:01.431,0.25,-90,60,0,-150,1
6495,14,0,230.555,0,60,1,0.25,2,9,0.0,0.0,4,45.0,30.0,9,0.851,1.0,230.967,0.17,1,2019-11-27 14:23:17.000,171,2019-11-27 14:27:07.555,0.25,-90,60,0,-150,1
6648,1,0,41.451,0,0,1,0.25,2,9,0.0,0.0,6,45.0,30.0,9,0.8009999999999999,0.0,44.639,0.0,0,2019-11-28 08:37:32.000,104,2019-11-28 08:38:13.451,0.25,90,0,0,90,1
6649,3,0,84.18700000000003,0,0,1,0.25,2,9,0.0,0.0,6,45.0,30.0,9,0.851,1.0,84.60700000000001,0.17,1,2019-11-28 08:37:32.000,104,2019-11-28 08:38:56.187,0.25,-90,0,0,-90,1
6650,4,0,90.396,0,0,1,0.25,2,9,0.0,0.0,6,45.0,30.0,9,0.7509999999999999,1.0,90.695,0.17,1,2019-11-28 08:37:32.000,104,2019-11-28 08:39:02.396,0.25,-90,0,0,-90,1
6651,5,0,95.081,0,0,1,0.25,2,9,0.0,0.0,6,45.0,30.0,9,0.901,1.0,95.348,0.17,1,2019-11-28 08:37:32.000,104,2019-11-28 08:39:07.081,0.25,-90,0,0,-90,1
6652,6,0,99.562,0,0,1,0.25,2,9,0.0,0.0,6,45.0,30.0,9,0.901,1.0,99.868,0.17,1,2019-11-28 08:37:32.000,104,2019-11-28 08:39:11.562,0.25,-90,0,0,-90,1
6653,7,0,104.928,0,0,1,0.25,2,3,0.0,0.0,12,45.0,30.0,3,0.7509999999999999,0.0,105.292,0.13,1,2019-11-28 08:37:32.000,104,2019-11-28 08:39:16.928,0.25,90,-180,-180,90,1
6654,8,0,108.692,0,0,1,0.25,2,3,0.0,0.0,12,45.0,30.0,3,0.701,1.0,108.906,0.0,0,2019-11-28 08:37:32.000,104,2019-11-28 08:39:20.692,0.25,-90,-180,-180,-90,1
6655,10,0,121.403,0,0,1,0.25,2,3,0.0,0.0,12,45.0,30.0,3,0.8009999999999999,0.0,122.174,0.13,1,2019-11-28 08:37:32.000,104,2019-11-28 08:39:33.403,0.25,90,-180,-180,90,1
6656,11,0,125.853,0,0,1,0.25,2,3,0.0,0.0,12,45.0,30.0,3,0.901,0.0,126.605,0.13,1,2019-11-28 08:37:32.000,104,2019-11-28 08:39:37.853,0.25,90,-180,-180,90,1
6657,12,0,130.827,0,0,1,0.25,2,9,0.0,0.0,6,45.0,30.0,9,0.7509999999999999,0.0,131.327,0.0,0,2019-11-28 08:37:32.000,104,2019-11-28 08:39:42.827,0.25,90,0,0,90,1
7062,1,0,70.081,0,30,1,0.25,2,9,0.0,0.0,5,45.0,30.0,9,0.7509999999999999,1.0,70.45100000000002,0.17,1,2019-11-29 14:05:00.000,150,2019-11-29 14:06:10.081,0.25,-90,30,0,-120,1
7063,2,0,75.351,0,30,1,0.25,2,9,0.0,0.0,5,45.0,30.0,9,0.701,1.0,75.693,0.17,1,2019-11-29 14:05:00.000,150,2019-11-29 14:06:15.351,0.25,-90,30,0,-120,1
7064,3,0,80.12,0,30,1,0.25,2,9,0.0,0.0,5,45.0,30.0,9,0.8009999999999999,1.0,80.389,0.17,1,2019-11-29 14:05:00.000,150,2019-11-29 14:06:20.120,0.25,-90,30,0,-120,1
7065,4,0,84.367,0,30,1,0.25,2,9,0.0,0.0,5,45.0,30.0,9,0.851,1.0,84.79,0.17,1,2019-11-29 14:05:00.000,150,2019-11-29 14:06:24.367,0.25,-90,30,0,-120,1
7066,5,0,90.401,0,30,1,0.25,2,3,0.0,0.0,11,45.0,30.0,3,0.901,0.0,90.888,0.13,1,2019-11-29 14:05:00.000,150,2019-11-29 14:06:30.401,0.25,90,-150,-180,60,1
7067,6,0,94.355,0,30,1,0.25,2,9,0.0,0.0,5,45.0,30.0,9,0.851,1.0,94.623,0.17,1,2019-11-29 14:05:00.000,150,2019-11-29 14:06:34.355,0.25,-90,30,0,-120,1
7068,7,0,100.355,0,30,1,0.25,2,9,0.0,0.0,5,45.0,30.0,9,0.701,1.0,100.88,0.17,1,2019-11-29 14:05:00.000,150,2019-11-29 14:06:40.355,0.25,-90,30,0,-120,1
7069,8,0,105.986,0,30,1,0.25,2,3,0.0,0.0,11,45.0,30.0,3,0.8009999999999999,0.0,106.487,0.13,1,2019-11-29 14:05:00.000,150,2019-11-29 14:06:45.986,0.25,90,-150,-180,60,1
7070,9,0,111.068,0,30,1,0.25,2,3,0.0,0.0,11,45.0,30.0,3,0.7509999999999999,0.0,111.778,0.13,1,2019-11-29 14:05:00.000,150,2019-11-29 14:06:51.068,0.25,90,-150,-180,60,1
7071,10,0,115.891,0,30,1,0.25,2,9,0.0,0.0,5,45.0,30.0,9,0.901,1.0,116.168,0.17,1,2019-11-29 14:05:00.000,150,2019-11-29 14:06:55.891,0.25,-90,30,0,-120,1
7231,1,0,46.57899999999999,0,0,1,0.25,2,3,0.0,0.0,12,45.0,30.0,3,0.851,0.0,46.922,0.13,1,2019-12-02 08:49:13.000,107,2019-12-02 08:49:59.579,0.25,90,-180,-180,90,1
7232,2,0,65.991,0,0,1,0.25,2,9,0.0,0.0,6,45.0,30.0,9,0.901,1.0,66.563,0.17,1,2019-12-02 08:49:13.000,107,2019-12-02 08:50:18.991,0.25,-90,0,0,-90,1
7233,3,0,91.056,0,0,1,0.25,2,3,0.0,0.0,12,45.0,30.0,3,0.7509999999999999,1.0,91.997,0.0,0,2019-12-02 08:49:13.000,107,2019-12-02 08:50:44.056,0.25,-90,-180,-180,-90,1
7234,6,0,103.108,0,0,1,0.25,2,9,0.0,0.0,6,45.0,30.0,9,0.701,1.0,103.606,0.17,1,2019-12-02 08:49:13.000,107,2019-12-02 08:50:56.108,0.25,-90,0,0,-90,1
7235,7,0,108.455,0,0,1,0.25,2,3,0.0,0.0,12,45.0,30.0,3,0.851,1.0,108.709,0.0,0,2019-12-02 08:49:13.000,107,2019-12-02 08:51:01.455,0.25,-90,-180,-180,-90,1
7236,9,0,120.509,0,0,1,0.25,2,9,0.0,0.0,6,45.0,30.0,9,0.8009999999999999,1.0,120.996,0.17,1,2019-12-02 08:49:13.000,107,2019-12-02 08:51:13.509,0.25,-90,0,0,-90,1
7237,10,0,128.22799999999998,0,0,1,0.25,2,9,0.0,0.0,6,45.0,30.0,9,0.901,0.0,128.736,0.0,0,2019-12-02 08:49:13.000,107,2019-12-02 08:51:21.228,0.25,90,0,0,90,1
7238,12,0,143.67,0,0,1,0.25,2,9,0.0,0.0,6,45.0,30.0,9,0.701,1.0,144.174,0.17,1,2019-12-02 08:49:13.000,107,2019-12-02 08:51:36.670,0.25,-90,0,0,-90,1
7239,13,0,155.981,0,0,1,0.25,2,3,0.0,0.0,12,45.0,30.0,3,0.851,0.0,156.22799999999995,0.13,1,2019-12-02 08:49:13.000,107,2019-12-02 08:51:48.981,0.25,90,-180,-180,90,1
7240,14,0,159.941,0,0,1,0.25,2,9,0.0,0.0,6,45.0,30.0,9,0.8009999999999999,1.0,160.344,0.17,1,2019-12-02 08:49:13.000,107,2019-12-02 08:51:52.941,0.25,-90,0,0,-90,1
7593,1,0,42.27,0,90,1,0.25,2,3,0.0,0.0,9,45.0,30.0,3,0.7509999999999999,0.0,42.768,0.13,1,2019-12-03 14:12:31.000,188,2019-12-03 14:13:13.270,0.25,90,-90,-180,0,1
7594,2,0,60.628,0,90,1,0.25,2,9,0.0,0.0,3,45.0,30.0,9,0.701,1.0,61.018,0.17,1,2019-12-03 14:12:31.000,188,2019-12-03 14:13:31.628,0.25,-90,90,0,-180,1
7595,3,0,65.46300000000001,0,90,1,0.25,2,9,0.0,0.0,3,45.0,30.0,9,0.851,1.0,66.279,0.17,1,2019-12-03 14:12:31.000,188,2019-12-03 14:13:36.463,0.25,-90,90,0,-180,1
7596,4,0,70.92399999999998,0,90,1,0.25,2,3,0.0,0.0,9,45.0,30.0,3,0.8009999999999999,0.0,71.54899999999998,0.13,1,2019-12-03 14:12:31.000,188,2019-12-03 14:13:41.924,0.25,90,-90,-180,0,1
7597,5,0,75.21,0,90,1,0.25,2,3,0.0,0.0,9,45.0,30.0,3,0.901,1.0,75.452,0.0,0,2019-12-03 14:12:31.000,188,2019-12-03 14:13:46.210,0.25,-90,-90,-180,-180,1
7598,7,0,89.792,0,90,1,0.25,2,9,0.0,0.0,3,45.0,30.0,9,0.8009999999999999,1.0,89.98200000000001,0.17,1,2019-12-03 14:12:31.000,188,2019-12-03 14:14:00.792,0.25,-90,90,0,-180,1
7599,8,0,93.847,0,90,1,0.25,2,3,0.0,0.0,9,45.0,30.0,3,0.701,0.0,94.22,0.13,1,2019-12-03 14:12:31.000,188,2019-12-03 14:14:04.847,0.25,90,-90,-180,0,1
7600,9,0,98.029,0,90,1,0.25,2,9,0.0,0.0,3,45.0,30.0,9,0.851,1.0,98.468,0.17,1,2019-12-03 14:12:31.000,188,2019-12-03 14:14:09.029,0.25,-90,90,0,-180,1
7601,10,0,102.904,0,90,1,0.25,2,9,0.0,0.0,3,45.0,30.0,9,0.901,1.0,103.244,0.17,1,2019-12-03 14:12:31.000,188,2019-12-03 14:14:13.904,0.25,-90,90,0,-180,1
7602,11,0,114.748,0,90,1,0.25,2,9,0.0,0.0,3,45.0,30.0,9,0.901,1.0,115.047,0.17,1,2019-12-03 14:12:31.000,188,2019-12-03 14:14:25.748,0.25,-90,90,0,-180,1
7730,1,0,68.418,0,0,1,0.25,2,3,0.0,0.0,12,45.0,30.0,3,0.701,0.0,69.023,0.13,1,2019-12-04 08:44:14.000,4,2019-12-04 08:45:22.418,0.25,90,-180,-180,90,1
7731,2,0,73.416,0,0,1,0.25,2,3,0.0,0.0,12,45.0,30.0,3,0.7509999999999999,1.0,73.568,0.0,0,2019-12-04 08:44:14.000,4,2019-12-04 08:45:27.416,0.25,-90,-180,-180,-90,1
7732,5,0,111.667,0,0,1,0.25,2,3,0.0,0.0,12,45.0,30.0,3,0.901,0.0,112.208,0.13,1,2019-12-04 08:44:14.000,4,2019-12-04 08:46:05.667,0.25,90,-180,-180,90,1
7733,6,0,114.07,0,0,1,0.25,2,3,0.0,0.0,12,45.0,30.0,3,0.8009999999999999,0.0,114.63,0.13,1,2019-12-04 08:44:14.000,4,2019-12-04 08:46:08.070,0.25,90,-180,-180,90,1
7734,7,0,119.684,0,0,1,0.25,2,9,0.0,0.0,6,45.0,30.0,9,0.851,1.0,119.987,0.17,1,2019-12-04 08:44:14.000,4,2019-12-04 08:46:13.684,0.25,-90,0,0,-90,1
7735,8,0,124.949,0,0,1,0.25,2,3,0.0,0.0,12,45.0,30.0,3,0.901,0.0,125.147,0.13,1,2019-12-04 08:44:14.000,4,2019-12-04 08:46:18.949,0.25,90,-180,-180,90,1
7736,9,0,126.98,0,0,1,0.25,2,3,0.0,0.0,12,45.0,30.0,3,0.7509999999999999,0.0,127.419,0.13,1,2019-12-04 08:44:14.000,4,2019-12-04 08:46:20.980,0.25,90,-180,-180,90,1
7737,10,0,129.274,0,0,1,0.25,2,3,0.0,0.0,12,45.0,30.0,3,0.701,1.0,129.736,0.0,0,2019-12-04 08:44:14.000,4,2019-12-04 08:46:23.274,0.25,-90,-180,-180,-90,1
7738,13,0,149.829,0,0,1,0.25,2,3,0.0,0.0,12,45.0,30.0,3,0.851,1.0,150.161,0.0,0,2019-12-04 08:44:14.000,4,2019-12-04 08:46:43.829,0.25,-90,-180,-180,-90,1
7739,15,0,160.645,0,0,1,0.25,2,9,0.0,0.0,6,45.0,30.0,9,0.8009999999999999,0.0,161.457,0.0,0,2019-12-04 08:44:14.000,4,2019-12-04 08:46:54.645,0.25,90,0,0,90,1
7855,1,0,66.054,0,-90,1,0.25,2,9,0.0,0.0,9,45.0,30.0,9,0.901,1.0,67.109,0.17,1,2019-12-04 14:11:38.000,103,2019-12-04 14:12:44.054,0.25,-90,-90,0,0,1
7856,2,0,116.847,0,-90,1,0.25,2,9,0.0,0.0,9,45.0,30.0,9,0.851,1.0,116.97,0.17,1,2019-12-04 14:11:38.000,103,2019-12-04 14:13:34.847,0.25,-90,-90,0,0,1
7857,3,0,121.401,0,-90,1,0.25,2,9,0.0,0.0,9,45.0,30.0,9,0.7509999999999999,1.0,121.684,0.17,1,2019-12-04 14:11:38.000,103,2019-12-04 14:13:39.401,0.25,-90,-90,0,0,1
7858,4,0,126.024,0,-90,1,0.25,2,3,0.0,0.0,3,45.0,30.0,3,0.701,0.0,126.625,0.13,1,2019-12-04 14:11:38.000,103,2019-12-04 14:13:44.024,0.25,90,90,-180,-180,1
7859,5,0,128.253,0,-90,1,0.25,2,3,0.0,0.0,3,45.0,30.0,3,0.8009999999999999,1.0,128.525,0.0,0,2019-12-04 14:11:38.000,103,2019-12-04 14:13:46.253,0.25,-90,90,-180,0,1
7860,7,0,138.71,0,-90,1,0.25,2,3,0.0,0.0,3,45.0,30.0,3,0.8009999999999999,1.0,139.01,0.0,0,2019-12-04 14:11:38.000,103,2019-12-04 14:13:56.710,0.25,-90,90,-180,0,1
7861,9,0,147.187,0,-90,1,0.25,2,9,0.0,0.0,9,45.0,30.0,9,0.7509999999999999,0.0,147.923,0.0,0,2019-12-04 14:11:38.000,103,2019-12-04 14:14:05.187,0.25,90,-90,0,-180,1
7862,12,0,173.142,0,-90,1,0.25,2,3,0.0,0.0,3,45.0,30.0,3,0.8009999999999999,0.0,173.563,0.13,1,2019-12-04 14:11:38.000,103,2019-12-04 14:14:31.142,0.25,90,90,-180,-180,1
7863,13,0,176.47799999999995,0,-90,1,0.25,2,3,0.0,0.0,3,45.0,30.0,3,0.701,0.0,177.125,0.13,1,2019-12-04 14:11:38.000,103,2019-12-04 14:14:34.478,0.25,90,90,-180,-180,1
7864,14,0,180.831,0,-90,1,0.25,2,9,0.0,0.0,9,45.0,30.0,9,0.7509999999999999,1.0,181.365,0.17,1,2019-12-04 14:11:38.000,103,2019-12-04 14:14:38.831,0.25,-90,-90,0,0,1
8028,1,0,34.718,0,0,1,0.25,2,9,0.0,0.0,6,45.0,30.0,9,0.8009999999999999,1.0,34.958,0.17,1,2019-12-05 08:39:38.000,236,2019-12-05 08:40:12.718,0.25,-90,0,0,-90,1
8029,2,0,66.801,0,0,1,0.25,2,9,0.0,0.0,6,45.0,30.0,9,0.901,1.0,67.425,0.17,1,2019-12-05 08:39:38.000,236,2019-12-05 08:40:44.801,0.25,-90,0,0,-90,1
8030,3,0,74.165,0,0,1,0.25,2,3,0.0,0.0,12,45.0,30.0,3,0.701,0.0,74.699,0.13,1,2019-12-05 08:39:38.000,236,2019-12-05 08:40:52.165,0.25,90,-180,-180,90,1
8031,4,0,84.31,0,0,1,0.25,2,3,0.0,0.0,12,45.0,30.0,3,0.7509999999999999,0.0,84.789,0.13,1,2019-12-05 08:39:38.000,236,2019-12-05 08:41:02.310,0.25,90,-180,-180,90,1
8032,5,0,91.528,0,0,1,0.25,2,9,0.0,0.0,6,45.0,30.0,9,0.851,1.0,92.246,0.17,1,2019-12-05 08:39:38.000,236,2019-12-05 08:41:09.528,0.25,-90,0,0,-90,1
8033,6,0,99.385,0,0,1,0.25,2,9,0.0,0.0,6,45.0,30.0,9,0.901,1.0,100.235,0.17,1,2019-12-05 08:39:38.000,236,2019-12-05 08:41:17.385,0.25,-90,0,0,-90,1
8034,7,0,104.466,0,0,1,0.25,2,3,0.0,0.0,12,45.0,30.0,3,0.8009999999999999,0.0,104.979,0.13,1,2019-12-05 08:39:38.000,236,2019-12-05 08:41:22.466,0.25,90,-180,-180,90,1
8035,8,0,108.321,0,0,1,0.25,2,3,0.0,0.0,12,45.0,30.0,3,0.7509999999999999,0.0,109.404,0.13,1,2019-12-05 08:39:38.000,236,2019-12-05 08:41:26.321,0.25,90,-180,-180,90,1
8036,9,0,112.728,0,0,1,0.25,2,9,0.0,0.0,6,45.0,30.0,9,0.701,1.0,113.198,0.17,1,2019-12-05 08:39:38.000,236,2019-12-05 08:41:30.728,0.25,-90,0,0,-90,1
8037,10,0,117.952,0,0,1,0.25,2,3,0.0,0.0,12,45.0,30.0,3,0.851,0.0,118.263,0.13,1,2019-12-05 08:39:38.000,236,2019-12-05 08:41:35.952,0.25,90,-180,-180,90,1
8190,1,0,45.161,0,-120,1,0.25,2,3,0.0,0.0,4,45.0,30.0,3,0.8009999999999999,1.0,45.97,0.0,0,2019-12-05 15:36:49.000,39,2019-12-05 15:37:34.161,0.25,-90,60,-180,30,1
8191,3,0,55.606,0,-120,1,0.25,2,3,0.0,0.0,4,45.0,30.0,3,0.701,1.0,56.275,0.0,0,2019-12-05 15:36:49.000,39,2019-12-05 15:37:44.606,0.25,-90,60,-180,30,1
8192,5,0,65.053,0,-120,1,0.25,2,9,0.0,0.0,10,45.0,30.0,9,0.901,1.0,65.445,0.17,1,2019-12-05 15:36:49.000,39,2019-12-05 15:37:54.053,0.25,-90,-120,0,30,1
8193,6,0,69.84899999999999,0,-120,1,0.25,2,3,0.0,0.0,4,45.0,30.0,3,0.701,0.0,70.258,0.13,1,2019-12-05 15:36:49.000,39,2019-12-05 15:37:58.849,0.25,90,60,-180,-150,1
8194,7,0,74.691,0,-120,1,0.25,2,3,0.0,0.0,4,45.0,30.0,3,0.8009999999999999,0.0,75.347,0.13,1,2019-12-05 15:36:49.000,39,2019-12-05 15:38:03.691,0.25,90,60,-180,-150,1
8195,8,0,81.605,0,-120,1,0.25,2,3,0.0,0.0,4,45.0,30.0,3,0.851,0.0,82.149,0.13,1,2019-12-05 15:36:49.000,39,2019-12-05 15:38:10.605,0.25,90,60,-180,-150,1
8196,9,0,85.675,0,-120,1,0.25,2,3,0.0,0.0,4,45.0,30.0,3,0.7509999999999999,1.0,86.66799999999998,0.0,0,2019-12-05 15:36:49.000,39,2019-12-05 15:38:14.675,0.25,-90,60,-180,30,1
8197,11,0,96.155,0,-120,1,0.25,2,3,0.0,0.0,4,45.0,30.0,3,0.701,0.0,96.728,0.13,1,2019-12-05 15:36:49.000,39,2019-12-05 15:38:25.155,0.25,90,60,-180,-150,1
8198,12,0,100.88,0,-120,1,0.25,2,9,0.0,0.0,10,45.0,30.0,9,0.8009999999999999,1.0,101.28,0.17,1,2019-12-05 15:36:49.000,39,2019-12-05 15:38:29.880,0.25,-90,-120,0,30,1
8199,13,0,105.763,0,-120,1,0.25,2,9,0.0,0.0,10,45.0,30.0,9,0.901,1.0,105.959,0.17,1,2019-12-05 15:36:49.000,39,2019-12-05 15:38:34.763,0.25,-90,-120,0,30,1
8374,1,0,41.151,0,0,1,0.25,2,9,0.0,0.0,6,45.0,30.0,9,0.851,1.0,41.358,0.17,1,2019-12-06 08:44:50.000,158,2019-12-06 08:45:31.151,0.25,-90,0,0,-90,1
8375,2,0,58.975,0,0,1,0.25,2,3,0.0,0.0,12,45.0,30.0,3,0.8009999999999999,0.0,59.425,0.13,1,2019-12-06 08:44:50.000,158,2019-12-06 08:45:48.975,0.25,90,-180,-180,90,1
8376,3,0,63.008,0,0,1,0.25,2,3,0.0,0.0,12,45.0,30.0,3,0.7509999999999999,1.0,63.718,0.0,0,2019-12-06 08:44:50.000,158,2019-12-06 08:45:53.008,0.25,-90,-180,-180,-90,1
8377,5,0,80.351,0,0,1,0.25,2,9,0.0,0.0,6,45.0,30.0,9,0.901,1.0,80.65899999999998,0.17,1,2019-12-06 08:44:50.000,158,2019-12-06 08:46:10.351,0.25,-90,0,0,-90,1
8378,6,0,84.31200000000003,0,0,1,0.25,2,9,0.0,0.0,6,45.0,30.0,9,0.701,1.0,84.914,0.17,1,2019-12-06 08:44:50.000,158,2019-12-06 08:46:14.312,0.25,-90,0,0,-90,1
8379,7,0,90.015,0,0,1,0.25,2,3,0.0,0.0,12,45.0,30.0,3,0.901,1.0,90.26,0.0,0,2019-12-06 08:44:50.000,158,2019-12-06 08:46:20.015,0.25,-90,-180,-180,-90,1
8380,9,0,98.223,0,0,1,0.25,2,3,0.0,0.0,12,45.0,30.0,3,0.7509999999999999,0.0,98.622,0.13,1,2019-12-06 08:44:50.000,158,2019-12-06 08:46:28.223,0.25,90,-180,-180,90,1
8381,10,0,102.737,0,0,1,0.25,2,9,0.0,0.0,6,45.0,30.0,9,0.8009999999999999,1.0,103.214,0.17,1,2019-12-06 08:44:50.000,158,2019-12-06 08:46:32.737,0.25,-90,0,0,-90,1
8382,11,0,107.419,0,0,1,0.25,2,9,0.0,0.0,6,45.0,30.0,9,0.8009999999999999,1.0,107.854,0.17,1,2019-12-06 08:44:50.000,158,2019-12-06 08:46:37.419,0.25,-90,0,0,-90,1
8383,12,0,112.375,0,0,1,0.25,2,3,0.0,0.0,12,45.0,30.0,3,0.901,0.0,112.771,0.13,1,2019-12-06 08:44:50.000,158,2019-12-06 08:46:42.375,0.25,90,-180,-180,90,1
8540,1,0,37.738,0,120,1,0.25,2,9,0.0,0.0,2,45.0,30.0,9,0.701,1.0,38.721,0.17,1,2019-12-06 14:05:07.000,76,2019-12-06 14:05:44.738,0.25,-90,120,0,150,1
8541,2,0,43.869,0,120,1,0.25,2,3,0.0,0.0,8,45.0,30.0,3,0.8009999999999999,1.0,44.63,0.0,0,2019-12-06 14:05:07.000,76,2019-12-06 14:05:50.869,0.25,-90,-60,-180,150,1
8542,4,0,55.178,0,120,1,0.25,2,3,0.0,0.0,8,45.0,30.0,3,0.851,1.0,55.527,0.0,0,2019-12-06 14:05:07.000,76,2019-12-06 14:06:02.178,0.25,-90,-60,-180,150,1
8543,7,0,92.607,0,120,1,0.25,2,9,0.0,0.0,2,45.0,30.0,9,0.7509999999999999,0.0,93.353,0.0,0,2019-12-06 14:05:07.000,76,2019-12-06 14:06:39.607,0.25,90,120,0,-30,1
8544,9,0,104.343,0,120,1,0.25,2,3,0.0,0.0,8,45.0,30.0,3,0.701,0.0,104.916,0.13,1,2019-12-06 14:05:07.000,76,2019-12-06 14:06:51.343,0.25,90,-60,-180,-30,1
8545,10,0,108.298,0,120,1,0.25,2,3,0.0,0.0,8,45.0,30.0,3,0.901,0.0,108.788,0.13,1,2019-12-06 14:05:07.000,76,2019-12-06 14:06:55.298,0.25,90,-60,-180,-30,1
8546,11,0,112.427,0,120,1,0.25,2,3,0.0,0.0,8,45.0,30.0,3,0.851,1.0,112.979,0.0,0,2019-12-06 14:05:07.000,76,2019-12-06 14:06:59.427,0.25,-90,-60,-180,150,1
8547,16,0,150.553,0,120,1,0.25,2,3,0.0,0.0,8,45.0,30.0,3,0.851,0.0,150.86700000000005,0.13,1,2019-12-06 14:05:07.000,76,2019-12-06 14:07:37.553,0.25,90,-60,-180,-30,1
8548,17,0,156.076,0,120,1,0.25,2,9,0.0,0.0,2,45.0,30.0,9,0.701,1.0,156.873,0.17,1,2019-12-06 14:05:07.000,76,2019-12-06 14:07:43.076,0.25,-90,120,0,150,1
8549,18,0,169.609,0,120,1,0.25,2,9,0.0,0.0,2,45.0,30.0,9,0.901,1.0,170.22299999999996,0.17,1,2019-12-06 14:05:07.000,76,2019-12-06 14:07:56.609,0.25,-90,120,0,150,1
8703,1,0,21.699,0,0,1,0.25,2,3,0.0,0.0,12,45.0,30.0,3,0.851,1.0,22.07,0.0,0,2019-12-09 08:32:16.000,186,2019-12-09 08:32:37.699,0.25,-90,-180,-180,-90,1
8704,3,0,33.798,0,0,1,0.25,2,9,0.0,0.0,6,45.0,30.0,9,0.901,1.0,34.283,0.17,1,2019-12-09 08:32:16.000,186,2019-12-09 08:32:49.798,0.25,-90,0,0,-90,1
8705,4,0,38.41,0,0,1,0.25,2,9,0.0,0.0,6,45.0,30.0,9,0.7509999999999999,1.0,38.762,0.17,1,2019-12-09 08:32:16.000,186,2019-12-09 08:32:54.410,0.25,-90,0,0,-90,1
8706,5,0,47.75899999999999,0,0,1,0.25,2,3,0.0,0.0,12,45.0,30.0,3,0.8009999999999999,0.0,48.653,0.13,1,2019-12-09 08:32:16.000,186,2019-12-09 08:33:03.759,0.25,90,-180,-180,90,1
8707,6,0,52.68,0,0,1,0.25,2,3,0.0,0.0,12,45.0,30.0,3,0.7509999999999999,1.0,53.056,0.0,0,2019-12-09 08:32:16.000,186,2019-12-09 08:33:08.680,0.25,-90,-180,-180,-90,1
8708,8,0,67.49,0,0,1,0.25,2,3,0.0,0.0,12,45.0,30.0,3,0.8009999999999999,1.0,67.665,0.0,0,2019-12-09 08:32:16.000,186,2019-12-09 08:33:23.490,0.25,-90,-180,-180,-90,1
8709,10,0,74.642,0,0,1,0.25,2,3,0.0,0.0,12,45.0,30.0,3,0.851,0.0,75.173,0.13,1,2019-12-09 08:32:16.000,186,2019-12-09 08:33:30.642,0.25,90,-180,-180,90,1
8710,11,0,79.281,0,0,1,0.25,2,9,0.0,0.0,6,45.0,30.0,9,0.8009999999999999,0.0,80.002,0.0,0,2019-12-09 08:32:16.000,186,2019-12-09 08:33:35.281,0.25,90,0,0,90,1
8711,14,0,109.125,0,0,1,0.25,2,9,0.0,0.0,6,45.0,30.0,9,0.7509999999999999,0.0,109.584,0.0,0,2019-12-09 08:32:16.000,186,2019-12-09 08:34:05.125,0.25,90,0,0,90,1
8712,16,0,117.744,0,0,1,0.25,2,9,0.0,0.0,6,45.0,30.0,9,0.701,1.0,118.111,0.17,1,2019-12-09 08:32:16.000,186,2019-12-09 08:34:13.744,0.25,-90,0,0,-90,1
8923,1,0,57.234,0,-150,1,0.25,2,3,0.0,0.0,5,45.0,30.0,3,0.701,1.0,58.187,0.0,0,2019-12-10 14:01:39.000,164,2019-12-10 14:02:36.234,0.25,-90,30,-180,60,1
8924,3,0,63.105,0,-150,1,0.25,2,9,0.0,0.0,11,45.0,30.0,9,0.7509999999999999,1.0,63.606,0.17,1,2019-12-10 14:01:39.000,164,2019-12-10 14:02:42.105,0.25,-90,-150,0,60,1
8925,4,0,97.255,0,-150,1,0.25,2,3,0.0,0.0,5,45.0,30.0,3,0.901,0.0,97.916,0.13,1,2019-12-10 14:01:39.000,164,2019-12-10 14:03:16.255,0.25,90,30,-180,-120,1
8926,5,0,102.677,0,-150,1,0.25,2,9,0.0,0.0,11,45.0,30.0,9,0.851,1.0,103.137,0.17,1,2019-12-10 14:01:39.000,164,2019-12-10 14:03:21.677,0.25,-90,-150,0,60,1
8927,6,0,107.736,0,-150,1,0.25,2,9,0.0,0.0,11,45.0,30.0,9,0.701,1.0,108.246,0.17,1,2019-12-10 14:01:39.000,164,2019-12-10 14:03:26.736,0.25,-90,-150,0,60,1
8928,7,0,112.442,0,-150,1,0.25,2,3,0.0,0.0,5,45.0,30.0,3,0.901,1.0,112.836,0.0,0,2019-12-10 14:01:39.000,164,2019-12-10 14:03:31.442,0.25,-90,30,-180,60,1
8929,12,0,149.257,0,-150,1,0.25,2,9,0.0,0.0,11,45.0,30.0,9,0.851,0.0,150.335,0.0,0,2019-12-10 14:01:39.000,164,2019-12-10 14:04:08.257,0.25,90,-150,0,-120,1
8930,15,0,165.202,0,-150,1,0.25,2,9,0.0,0.0,11,45.0,30.0,9,0.7509999999999999,1.0,165.71599999999995,0.17,1,2019-12-10 14:01:39.000,164,2019-12-10 14:04:24.202,0.25,-90,-150,0,60,1
8931,16,0,169.90400000000002,0,-150,1,0.25,2,3,0.0,0.0,5,45.0,30.0,3,0.851,0.0,170.433,0.13,1,2019-12-10 14:01:39.000,164,2019-12-10 14:04:28.904,0.25,90,30,-180,-120,1
8932,17,0,173.747,0,-150,1,0.25,2,3,0.0,0.0,5,45.0,30.0,3,0.901,0.0,174.392,0.13,1,2019-12-10 14:01:39.000,164,2019-12-10 14:04:32.747,0.25,90,30,-180,-120,1
9104,1,0,26.861,0,0,1,0.25,2,3,0.0,0.0,12,45.0,30.0,3,0.701,1.0,27.813,0.0,0,2019-12-11 08:44:51.000,32,2019-12-11 08:45:17.861,0.25,-90,-180,-180,-90,1
9105,3,0,54.091,0,0,1,0.25,2,9,0.0,0.0,6,45.0,30.0,9,0.901,1.0,54.414,0.17,1,2019-12-11 08:44:51.000,32,2019-12-11 08:45:45.091,0.25,-90,0,0,-90,1
9106,4,0,60.597,0,0,1,0.25,2,9,0.0,0.0,6,45.0,30.0,9,0.7509999999999999,1.0,60.79,0.17,1,2019-12-11 08:44:51.000,32,2019-12-11 08:45:51.597,0.25,-90,0,0,-90,1
9107,5,0,68.332,0,0,1,0.25,2,9,0.0,0.0,6,45.0,30.0,9,0.8009999999999999,1.0,69.063,0.17,1,2019-12-11 08:44:51.000,32,2019-12-11 08:45:59.332,0.25,-90,0,0,-90,1
9108,6,0,73.283,0,0,1,0.25,2,9,0.0,0.0,6,45.0,30.0,9,0.851,1.0,73.676,0.17,1,2019-12-11 08:44:51.000,32,2019-12-11 08:46:04.283,0.25,-90,0,0,-90,1
9109,7,0,78.675,0,0,1,0.25,2,3,0.0,0.0,12,45.0,30.0,3,0.8009999999999999,0.0,79.328,0.13,1,2019-12-11 08:44:51.000,32,2019-12-11 08:46:09.675,0.25,90,-180,-180,90,1
9110,8,0,82.34200000000001,0,0,1,0.25,2,3,0.0,0.0,12,45.0,30.0,3,0.701,1.0,82.97,0.0,0,2019-12-11 08:44:51.000,32,2019-12-11 08:46:13.342,0.25,-90,-180,-180,-90,1
9111,11,0,101.615,0,0,1,0.25,2,3,0.0,0.0,12,45.0,30.0,3,0.7509999999999999,1.0,102.243,0.0,0,2019-12-11 08:44:51.000,32,2019-12-11 08:46:32.615,0.25,-90,-180,-180,-90,1
9112,13,0,111.862,0,0,1,0.25,2,9,0.0,0.0,6,45.0,30.0,9,0.901,1.0,112.278,0.17,1,2019-12-11 08:44:51.000,32,2019-12-11 08:46:42.862,0.25,-90,0,0,-90,1
9113,14,0,116.084,0,0,1,0.25,2,3,0.0,0.0,12,45.0,30.0,3,0.851,0.0,116.473,0.13,1,2019-12-11 08:44:51.000,32,2019-12-11 08:46:47.084,0.25,90,-180,-180,90,1
9305,1,0,65.596,0,150,1,0.25,2,9,0.0,0.0,1,45.0,30.0,9,0.7509999999999999,1.0,66.501,0.17,1,2019-12-11 14:16:48.000,93,2019-12-11 14:17:53.596,0.25,-90,150,0,120,1
9306,2,0,70.895,0,150,1,0.25,2,9,0.0,0.0,1,45.0,30.0,9,0.851,0.0,71.263,0.0,0,2019-12-11 14:16:48.000,93,2019-12-11 14:17:58.895,0.25,90,150,0,-60,1
9307,6,0,121.318,0,150,1,0.25,2,9,0.0,0.0,1,45.0,30.0,9,0.851,1.0,121.802,0.17,1,2019-12-11 14:16:48.000,93,2019-12-11 14:18:49.318,0.25,-90,150,0,120,1
9308,7,0,126.246,0,150,1,0.25,2,9,0.0,0.0,1,45.0,30.0,9,0.701,0.0,126.644,0.0,0,2019-12-11 14:16:48.000,93,2019-12-11 14:18:54.246,0.25,90,150,0,-60,1
9309,9,0,135.653,0,150,1,0.25,2,3,0.0,0.0,7,45.0,30.0,3,0.8009999999999999,0.0,136.207,0.13,1,2019-12-11 14:16:48.000,93,2019-12-11 14:19:03.653,0.25,90,-30,-180,-60,1
9310,10,0,138.514,0,150,1,0.25,2,9,0.0,0.0,1,45.0,30.0,9,0.7509999999999999,1.0,139.369,0.17,1,2019-12-11 14:16:48.000,93,2019-12-11 14:19:06.514,0.25,-90,150,0,120,1
9311,11,0,143.576,0,150,1,0.25,2,9,0.0,0.0,1,45.0,30.0,9,0.851,1.0,143.97899999999996,0.17,1,2019-12-11 14:16:48.000,93,2019-12-11 14:19:11.576,0.25,-90,150,0,120,1
9312,12,0,148.05100000000004,0,150,1,0.25,2,9,0.0,0.0,1,45.0,30.0,9,0.701,1.0,148.562,0.17,1,2019-12-11 14:16:48.000,93,2019-12-11 14:19:16.051,0.25,-90,150,0,120,1
9313,13,0,152.533,0,150,1,0.25,2,9,0.0,0.0,1,45.0,30.0,9,0.8009999999999999,1.0,153.374,0.17,1,2019-12-11 14:16:48.000,93,2019-12-11 14:19:20.533,0.25,-90,150,0,120,1
9314,14,0,159.344,0,150,1,0.25,2,3,0.0,0.0,7,45.0,30.0,3,0.901,0.0,159.736,0.13,1,2019-12-11 14:16:48.000,93,2019-12-11 14:19:27.344,0.25,90,-30,-180,-60,1
9467,1,0,40.135,0,0,1,0.25,2,3,0.0,0.0,12,45.0,30.0,3,0.701,0.0,40.802,0.13,1,2019-12-12 08:41:58.000,78,2019-12-12 08:42:38.135,0.25,90,-180,-180,90,1
9468,2,0,56.485,0,0,1,0.25,2,9,0.0,0.0,6,45.0,30.0,9,0.8009999999999999,1.0,56.776,0.17,1,2019-12-12 08:41:58.000,78,2019-12-12 08:42:54.485,0.25,-90,0,0,-90,1
9469,3,0,61.253,0,0,1,0.25,2,9,0.0,0.0,6,45.0,30.0,9,0.7509999999999999,1.0,61.675,0.17,1,2019-12-12 08:41:58.000,78,2019-12-12 08:42:59.253,0.25,-90,0,0,-90,1
9470,4,0,66.27199999999999,0,0,1,0.25,2,9,0.0,0.0,6,45.0,30.0,9,0.851,1.0,66.512,0.17,1,2019-12-12 08:41:58.000,78,2019-12-12 08:43:04.272,0.25,-90,0,0,-90,1
9471,5,0,73.51,0,0,1,0.25,2,3,0.0,0.0,12,45.0,30.0,3,0.901,0.0,74.087,0.13,1,2019-12-12 08:41:58.000,78,2019-12-12 08:43:11.510,0.25,90,-180,-180,90,1
9472,6,0,78.601,0,0,1,0.25,2,9,0.0,0.0,6,45.0,30.0,9,0.851,1.0,78.868,0.17,1,2019-12-12 08:41:58.000,78,2019-12-12 08:43:16.601,0.25,-90,0,0,-90,1
9473,7,0,108.645,0,0,1,0.25,2,9,0.0,0.0,6,45.0,30.0,9,0.901,1.0,109.021,0.17,1,2019-12-12 08:41:58.000,78,2019-12-12 08:43:46.645,0.25,-90,0,0,-90,1
9474,8,0,113.185,0,0,1,0.25,2,9,0.0,0.0,6,45.0,30.0,9,0.7509999999999999,1.0,113.54,0.17,1,2019-12-12 08:41:58.000,78,2019-12-12 08:43:51.185,0.25,-90,0,0,-90,1
9475,9,0,117.799,0,0,1,0.25,2,9,0.0,0.0,6,45.0,30.0,9,0.701,1.0,118.187,0.17,1,2019-12-12 08:41:58.000,78,2019-12-12 08:43:55.799,0.25,-90,0,0,-90,1
9476,10,0,124.557,0,0,1,0.25,2,3,0.0,0.0,12,45.0,30.0,3,0.8009999999999999,0.0,125.015,0.13,1,2019-12-12 08:41:58.000,78,2019-12-12 08:44:02.557,0.25,90,-180,-180,90,1
9891,1,0,52.645,0,-30,1,0.25,2,9,0.0,0.0,7,45.0,30.0,9,0.901,1.0,53.13399999999999,0.17,1,2019-12-13 08:42:19.000,227,2019-12-13 08:43:11.645,0.25,-90,-30,0,-60,1
9892,2,0,58.036,0,-30,1,0.25,2,3,0.0,0.0,1,45.0,30.0,3,0.8009999999999999,0.0,58.392,0.13,1,2019-12-13 08:42:19.000,227,2019-12-13 08:43:17.036,0.25,90,150,-180,120,1
9893,3,0,60.805,0,-30,1,0.25,2,3,0.0,0.0,1,45.0,30.0,3,0.701,0.0,61.377,0.13,1,2019-12-13 08:42:19.000,227,2019-12-13 08:43:19.805,0.25,90,150,-180,120,1
9894,4,0,65.36,0,-30,1,0.25,2,9,0.0,0.0,7,45.0,30.0,9,0.851,1.0,65.66199999999999,0.17,1,2019-12-13 08:42:19.000,227,2019-12-13 08:43:24.360,0.25,-90,-30,0,-60,1
9895,5,0,69.858,0,-30,1,0.25,2,3,0.0,0.0,1,45.0,30.0,3,0.7509999999999999,0.0,70.321,0.13,1,2019-12-13 08:42:19.000,227,2019-12-13 08:43:28.858,0.25,90,150,-180,120,1
9896,6,0,73.748,0,-30,1,0.25,2,3,0.0,0.0,1,45.0,30.0,3,0.851,0.0,74.142,0.13,1,2019-12-13 08:42:19.000,227,2019-12-13 08:43:32.748,0.25,90,150,-180,120,1
9897,7,0,77.708,0,-30,1,0.25,2,3,0.0,0.0,1,45.0,30.0,3,0.8009999999999999,0.0,78.376,0.13,1,2019-12-13 08:42:19.000,227,2019-12-13 08:43:36.708,0.25,90,150,-180,120,1
9898,8,0,87.454,0,-30,1,0.25,2,3,0.0,0.0,1,45.0,30.0,3,0.901,0.0,87.81299999999997,0.13,1,2019-12-13 08:42:19.000,227,2019-12-13 08:43:46.454,0.25,90,150,-180,120,1
9899,9,0,91.79,0,-30,1,0.25,2,9,0.0,0.0,7,45.0,30.0,9,0.7509999999999999,1.0,92.231,0.17,1,2019-12-13 08:42:19.000,227,2019-12-13 08:43:50.790,0.25,-90,-30,0,-60,1
9900,10,0,96.804,0,-30,1,0.25,2,3,0.0,0.0,1,45.0,30.0,3,0.701,0.0,97.287,0.13,1,2019-12-13 08:42:19.000,227,2019-12-13 08:43:55.804,0.25,90,150,-180,120,1
10198,1,0,32.688,0,0,1,0.25,2,3,0.0,0.0,12,45.0,30.0,3,0.901,1.0,33.281,0.0,0,2019-12-16 08:40:12.000,54,2019-12-16 08:40:44.688,0.25,-90,-180,-180,-90,1
10199,7,0,90.224,0,0,1,0.25,2,3,0.0,0.0,12,45.0,30.0,3,0.7509999999999999,0.0,91.0,0.13,1,2019-12-16 08:40:12.000,54,2019-12-16 08:41:42.224,0.25,90,-180,-180,90,1
10200,8,0,94.945,0,0,1,0.25,2,9,0.0,0.0,6,45.0,30.0,9,0.901,0.0,95.225,0.0,0,2019-12-16 08:40:12.000,54,2019-12-16 08:41:46.945,0.25,90,0,0,90,1
10201,10,0,105.842,0,0,1,0.25,2,3,0.0,0.0,12,45.0,30.0,3,0.8009999999999999,0.0,106.223,0.13,1,2019-12-16 08:40:12.000,54,2019-12-16 08:41:57.842,0.25,90,-180,-180,90,1
10202,11,0,109.331,0,0,1,0.25,2,9,0.0,0.0,6,45.0,30.0,9,0.851,1.0,109.725,0.17,1,2019-12-16 08:40:12.000,54,2019-12-16 08:42:01.331,0.25,-90,0,0,-90,1
10203,12,0,113.511,0,0,1,0.25,2,3,0.0,0.0,12,45.0,30.0,3,0.8009999999999999,0.0,113.97,0.13,1,2019-12-16 08:40:12.000,54,2019-12-16 08:42:05.511,0.25,90,-180,-180,90,1
10204,13,0,117.84,0,0,1,0.25,2,9,0.0,0.0,6,45.0,30.0,9,0.901,1.0,118.18,0.17,1,2019-12-16 08:40:12.000,54,2019-12-16 08:42:09.840,0.25,-90,0,0,-90,1
10205,14,0,121.974,0,0,1,0.25,2,3,0.0,0.0,12,45.0,30.0,3,0.7509999999999999,0.0,122.531,0.13,1,2019-12-16 08:40:12.000,54,2019-12-16 08:42:13.974,0.25,90,-180,-180,90,1
10206,15,0,125.352,0,0,1,0.25,2,9,0.0,0.0,6,45.0,30.0,9,0.701,1.0,125.927,0.17,1,2019-12-16 08:40:12.000,54,2019-12-16 08:42:17.352,0.25,-90,0,0,-90,1
10207,16,0,129.898,0,0,1,0.25,2,3,0.0,0.0,12,45.0,30.0,3,0.8009999999999999,0.0,130.26,0.13,1,2019-12-16 08:40:12.000,54,2019-12-16 08:42:21.898,0.25,90,-180,-180,90,1
10481,1,0,58.548,0,60,1,0.25,2,9,0.0,0.0,4,45.0,30.0,9,0.901,1.0,59.469,0.17,1,2019-12-17 08:52:06.000,234,2019-12-17 08:53:04.548,0.25,-90,60,0,-150,1
10482,2,0,64.781,0,60,1,0.25,2,3,0.0,0.0,10,45.0,30.0,3,0.8009999999999999,1.0,65.516,0.0,0,2019-12-17 08:52:06.000,234,2019-12-17 08:53:10.781,0.25,-90,-120,-180,-150,1
10483,4,0,73.65899999999998,0,60,1,0.25,2,9,0.0,0.0,4,45.0,30.0,9,0.701,1.0,74.058,0.17,1,2019-12-17 08:52:06.000,234,2019-12-17 08:53:19.659,0.25,-90,60,0,-150,1
10484,5,0,80.926,0,60,1,0.25,2,9,0.0,0.0,4,45.0,30.0,9,0.851,1.0,81.52,0.17,1,2019-12-17 08:52:06.000,234,2019-12-17 08:53:26.926,0.25,-90,60,0,-150,1
10485,6,0,85.539,0,60,1,0.25,2,3,0.0,0.0,10,45.0,30.0,3,0.701,1.0,86.338,0.0,0,2019-12-17 08:52:06.000,234,2019-12-17 08:53:31.539,0.25,-90,-120,-180,-150,1
10486,9,0,100.449,0,60,1,0.25,2,9,0.0,0.0,4,45.0,30.0,9,0.851,1.0,100.804,0.17,1,2019-12-17 08:52:06.000,234,2019-12-17 08:53:46.449,0.25,-90,60,0,-150,1
10487,10,0,105.844,0,60,1,0.25,2,3,0.0,0.0,10,45.0,30.0,3,0.8009999999999999,0.0,106.184,0.13,1,2019-12-17 08:52:06.000,234,2019-12-17 08:53:51.844,0.25,90,-120,-180,30,1
10488,11,0,109.997,0,60,1,0.25,2,9,0.0,0.0,4,45.0,30.0,9,0.7509999999999999,1.0,110.511,0.17,1,2019-12-17 08:52:06.000,234,2019-12-17 08:53:55.997,0.25,-90,60,0,-150,1
10489,12,0,114.733,0,60,1,0.25,2,3,0.0,0.0,10,45.0,30.0,3,0.851,0.0,115.079,0.13,1,2019-12-17 08:52:06.000,234,2019-12-17 08:54:00.733,0.25,90,-120,-180,30,1
10490,13,0,119.526,0,60,1,0.25,2,9,0.0,0.0,4,45.0,30.0,9,0.901,1.0,119.943,0.17,1,2019-12-17 08:52:06.000,234,2019-12-17 08:54:05.526,0.25,-90,60,0,-150,1
10801,1,0,59.863,0,-150,1,0.25,2,3,0.0,0.0,5,45.0,30.0,3,0.851,1.0,61.287,0.0,0,2019-12-18 08:43:50.000,10,2019-12-18 08:44:49.863,0.25,-90,30,-180,60,1
10802,4,0,93.492,0,-150,1,0.25,2,9,0.0,0.0,11,45.0,30.0,9,0.8009999999999999,1.0,93.755,0.17,1,2019-12-18 08:43:50.000,10,2019-12-18 08:45:23.492,0.25,-90,-150,0,60,1
10803,5,0,98.605,0,-150,1,0.25,2,3,0.0,0.0,5,45.0,30.0,3,0.701,1.0,99.11,0.0,0,2019-12-18 08:43:50.000,10,2019-12-18 08:45:28.605,0.25,-90,30,-180,60,1
10804,7,0,107.098,0,-150,1,0.25,2,3,0.0,0.0,5,45.0,30.0,3,0.851,0.0,107.554,0.13,1,2019-12-18 08:43:50.000,10,2019-12-18 08:45:37.098,0.25,90,30,-180,-120,1
10805,8,0,110.972,0,-150,1,0.25,2,9,0.0,0.0,11,45.0,30.0,9,0.7509999999999999,1.0,111.296,0.17,1,2019-12-18 08:43:50.000,10,2019-12-18 08:45:40.972,0.25,-90,-150,0,60,1
10806,9,0,116.51,0,-150,1,0.25,2,3,0.0,0.0,5,45.0,30.0,3,0.901,0.0,116.915,0.13,1,2019-12-18 08:43:50.000,10,2019-12-18 08:45:46.510,0.25,90,30,-180,-120,1
10807,10,0,119.793,0,-150,1,0.25,2,9,0.0,0.0,11,45.0,30.0,9,0.701,1.0,120.279,0.17,1,2019-12-18 08:43:50.000,10,2019-12-18 08:45:49.793,0.25,-90,-150,0,60,1
10808,11,0,126.888,0,-150,1,0.25,2,3,0.0,0.0,5,45.0,30.0,3,0.7509999999999999,1.0,127.194,0.0,0,2019-12-18 08:43:50.000,10,2019-12-18 08:45:56.888,0.25,-90,30,-180,60,1
10809,13,0,143.722,0,-150,1,0.25,2,3,0.0,0.0,5,45.0,30.0,3,0.901,0.0,144.638,0.13,1,2019-12-18 08:43:50.000,10,2019-12-18 08:46:13.722,0.25,90,30,-180,-120,1
10810,14,0,147.827,0,-150,1,0.25,2,3,0.0,0.0,5,45.0,30.0,3,0.8009999999999999,0.0,148.812,0.13,1,2019-12-18 08:43:50.000,10,2019-12-18 08:46:17.827,0.25,90,30,-180,-120,1
11160,1,0,62.972,0,150,1,0.25,2,9,0.0,0.0,1,45.0,30.0,9,0.8009999999999999,1.0,63.385,0.17,1,2019-12-19 08:41:34.000,106,2019-12-19 08:42:36.972,0.25,-90,150,0,120,1
11161,2,0,67.914,0,150,1,0.25,2,3,0.0,0.0,7,45.0,30.0,3,0.7509999999999999,1.0,68.23100000000001,0.0,0,2019-12-19 08:41:34.000,106,2019-12-19 08:42:41.914,0.25,-90,-30,-180,120,1
11162,4,0,90.566,0,150,1,0.25,2,9,0.0,0.0,1,45.0,30.0,9,0.851,1.0,91.302,0.17,1,2019-12-19 08:41:34.000,106,2019-12-19 08:43:04.566,0.25,-90,150,0,120,1
11163,5,0,95.912,0,150,1,0.25,2,9,0.0,0.0,1,45.0,30.0,9,0.701,1.0,96.464,0.17,1,2019-12-19 08:41:34.000,106,2019-12-19 08:43:09.912,0.25,-90,150,0,120,1
11164,6,0,100.528,0,150,1,0.25,2,3,0.0,0.0,7,45.0,30.0,3,0.8009999999999999,0.0,100.876,0.13,1,2019-12-19 08:41:34.000,106,2019-12-19 08:43:14.528,0.25,90,-30,-180,-60,1
11165,7,0,103.287,0,150,1,0.25,2,3,0.0,0.0,7,45.0,30.0,3,0.901,1.0,103.683,0.0,0,2019-12-19 08:41:34.000,106,2019-12-19 08:43:17.287,0.25,-90,-30,-180,120,1
11166,9,0,116.213,0,150,1,0.25,2,3,0.0,0.0,7,45.0,30.0,3,0.851,0.0,117.341,0.13,1,2019-12-19 08:41:34.000,106,2019-12-19 08:43:30.213,0.25,90,-30,-180,-60,1
11167,10,0,121.502,0,150,1,0.25,2,9,0.0,0.0,1,45.0,30.0,9,0.7509999999999999,1.0,121.95,0.17,1,2019-12-19 08:41:34.000,106,2019-12-19 08:43:35.502,0.25,-90,150,0,120,1
11168,11,0,126.432,0,150,1,0.25,2,9,0.0,0.0,1,45.0,30.0,9,0.7509999999999999,1.0,126.839,0.17,1,2019-12-19 08:41:34.000,106,2019-12-19 08:43:40.432,0.25,-90,150,0,120,1
11169,12,0,130.719,0,150,1,0.25,2,9,0.0,0.0,1,45.0,30.0,9,0.8009999999999999,1.0,131.067,0.17,1,2019-12-19 08:41:34.000,106,2019-12-19 08:43:44.719,0.25,-90,150,0,120,1
11319,1,0,52.881,0,90,1,0.25,2,3,0.0,0.0,9,45.0,30.0,3,0.851,1.0,54.306,0.0,0,2019-12-19 14:02:40.000,240,2019-12-19 14:03:32.881,0.25,-90,-90,-180,-180,1
11320,3,0,65.665,0,90,1,0.25,2,9,0.0,0.0,3,45.0,30.0,9,0.701,1.0,66.194,0.17,1,2019-12-19 14:02:40.000,240,2019-12-19 14:03:45.665,0.25,-90,90,0,-180,1
11321,4,0,71.798,0,90,1,0.25,2,3,0.0,0.0,9,45.0,30.0,3,0.7509999999999999,0.0,72.252,0.13,1,2019-12-19 14:02:40.000,240,2019-12-19 14:03:51.798,0.25,90,-90,-180,0,1
11322,5,0,74.10600000000002,0,90,1,0.25,2,9,0.0,0.0,3,45.0,30.0,9,0.901,1.0,74.793,0.17,1,2019-12-19 14:02:40.000,240,2019-12-19 14:03:54.106,0.25,-90,90,0,-180,1
11323,6,0,80.048,0,90,1,0.25,2,9,0.0,0.0,3,45.0,30.0,9,0.901,1.0,80.285,0.17,1,2019-12-19 14:02:40.000,240,2019-12-19 14:04:00.048,0.25,-90,90,0,-180,1
11324,7,0,84.53,0,90,1,0.25,2,3,0.0,0.0,9,45.0,30.0,3,0.8009999999999999,0.0,84.929,0.13,1,2019-12-19 14:02:40.000,240,2019-12-19 14:04:04.530,0.25,90,-90,-180,0,1
11325,8,0,88.06299999999997,0,90,1,0.25,2,9,0.0,0.0,3,45.0,30.0,9,0.851,1.0,88.46700000000001,0.17,1,2019-12-19 14:02:40.000,240,2019-12-19 14:04:08.063,0.25,-90,90,0,-180,1
11326,9,0,92.486,0,90,1,0.25,2,3,0.0,0.0,9,45.0,30.0,3,0.7509999999999999,0.0,93.032,0.13,1,2019-12-19 14:02:40.000,240,2019-12-19 14:04:12.486,0.25,90,-90,-180,0,1
11327,10,0,96.581,0,90,1,0.25,2,9,0.0,0.0,3,45.0,30.0,9,0.701,1.0,97.085,0.17,1,2019-12-19 14:02:40.000,240,2019-12-19 14:04:16.581,0.25,-90,90,0,-180,1
11328,11,0,103.921,0,90,1,0.25,2,3,0.0,0.0,9,45.0,30.0,3,0.901,1.0,104.578,0.0,0,2019-12-19 14:02:40.000,240,2019-12-19 14:04:23.921,0.25,-90,-90,-180,-180,1
11554,1,0,33.962,0,120,1,0.25,2,9,0.0,0.0,2,45.0,30.0,9,0.901,1.0,35.194,0.17,1,2019-12-20 08:19:23.000,12,2019-12-20 08:19:56.962,0.25,-90,120,0,150,1
11555,2,0,40.937,0,120,1,0.25,2,3,0.0,0.0,8,45.0,30.0,3,0.701,0.0,41.813,0.13,1,2019-12-20 08:19:23.000,12,2019-12-20 08:20:03.937,0.25,90,-60,-180,-30,1
11556,3,0,45.289,0,120,1,0.25,2,9,0.0,0.0,2,45.0,30.0,9,0.851,1.0,45.422,0.17,1,2019-12-20 08:19:23.000,12,2019-12-20 08:20:08.289,0.25,-90,120,0,150,1
11557,4,0,50.456,0,120,1,0.25,2,3,0.0,0.0,8,45.0,30.0,3,0.7509999999999999,0.0,51.147,0.13,1,2019-12-20 08:19:23.000,12,2019-12-20 08:20:13.456,0.25,90,-60,-180,-30,1
11558,5,0,78.78699999999998,0,120,1,0.25,2,9,0.0,0.0,2,45.0,30.0,9,0.8009999999999999,1.0,79.483,0.17,1,2019-12-20 08:19:23.000,12,2019-12-20 08:20:41.787,0.25,-90,120,0,150,1
11559,6,0,84.866,0,120,1,0.25,2,3,0.0,0.0,8,45.0,30.0,3,0.8009999999999999,0.0,85.34200000000001,0.13,1,2019-12-20 08:19:23.000,12,2019-12-20 08:20:47.866,0.25,90,-60,-180,-30,1
11560,7,0,88.87700000000002,0,120,1,0.25,2,9,0.0,0.0,2,45.0,30.0,9,0.701,1.0,89.405,0.17,1,2019-12-20 08:19:23.000,12,2019-12-20 08:20:51.877,0.25,-90,120,0,150,1
11561,8,0,94.279,0,120,1,0.25,2,3,0.0,0.0,8,45.0,30.0,3,0.901,1.0,94.556,0.0,0,2019-12-20 08:19:23.000,12,2019-12-20 08:20:57.279,0.25,-90,-60,-180,150,1
11562,10,0,101.63,0,120,1,0.25,2,9,0.0,0.0,2,45.0,30.0,9,0.851,1.0,101.843,0.17,1,2019-12-20 08:19:23.000,12,2019-12-20 08:21:04.630,0.25,-90,120,0,150,1
11564,12,0,110.104,0,120,1,0.25,2,3,0.0,0.0,8,45.0,30.0,3,0.851,1.0,110.388,0.0,0,2019-12-20 08:19:23.000,12,2019-12-20 08:21:13.104,0.25,-90,-60,-180,150,1
11721,1,0,91.265,0,-90,1,0.25,2,3,0.0,0.0,3,45.0,30.0,3,0.8009999999999999,0.0,91.571,0.13,1,2019-12-20 14:00:14.000,225,2019-12-20 14:01:45.265,0.25,90,90,-180,-180,1
11722,2,0,93.111,0,-90,1,0.25,2,3,0.0,0.0,3,45.0,30.0,3,0.701,1.0,93.411,0.0,0,2019-12-20 14:00:14.000,225,2019-12-20 14:01:47.111,0.25,-90,90,-180,0,1
11723,6,0,115.034,0,-90,1,0.25,2,9,0.0,0.0,9,45.0,30.0,9,0.901,1.0,115.249,0.17,1,2019-12-20 14:00:14.000,225,2019-12-20 14:02:09.034,0.25,-90,-90,0,0,1
11724,7,0,121.947,0,-90,1,0.25,2,9,0.0,0.0,9,45.0,30.0,9,0.8009999999999999,1.0,122.263,0.17,1,2019-12-20 14:00:14.000,225,2019-12-20 14:02:15.947,0.25,-90,-90,0,0,1
11725,8,0,126.832,0,-90,1,0.25,2,3,0.0,0.0,3,45.0,30.0,3,0.7509999999999999,0.0,127.161,0.13,1,2019-12-20 14:00:14.000,225,2019-12-20 14:02:20.832,0.25,90,90,-180,-180,1
11726,9,0,132.575,0,-90,1,0.25,2,3,0.0,0.0,3,45.0,30.0,3,0.851,0.0,132.838,0.13,1,2019-12-20 14:00:14.000,225,2019-12-20 14:02:26.575,0.25,90,90,-180,-180,1
11727,10,0,135.60399999999998,0,-90,1,0.25,2,3,0.0,0.0,3,45.0,30.0,3,0.701,0.0,136.236,0.13,1,2019-12-20 14:00:14.000,225,2019-12-20 14:02:29.604,0.25,90,90,-180,-180,1
11728,11,0,139.224,0,-90,1,0.25,2,9,0.0,0.0,9,45.0,30.0,9,0.7509999999999999,1.0,139.481,0.17,1,2019-12-20 14:00:14.000,225,2019-12-20 14:02:33.224,0.25,-90,-90,0,0,1
11729,12,0,143.493,0,-90,1,0.25,2,3,0.0,0.0,3,45.0,30.0,3,0.851,0.0,143.795,0.13,1,2019-12-20 14:00:14.000,225,2019-12-20 14:02:37.493,0.25,90,90,-180,-180,1
11730,13,0,148.57399999999996,0,-90,1,0.25,2,9,0.0,0.0,9,45.0,30.0,9,0.701,1.0,149.067,0.17,1,2019-12-20 14:00:14.000,225,2019-12-20 14:02:42.574,0.25,-90,-90,0,0,1
11942,1,0,32.522,0,0,1,0.25,2,3,0.0,0.0,12,45.0,30.0,3,0.851,1.0,33.321,0.0,0,2020-01-13 09:12:00.000,11,2020-01-13 09:12:32.522,0.25,-90,-180,-180,-90,1
11943,3,0,50.557,0,0,1,0.25,2,3,0.0,0.0,12,45.0,30.0,3,0.701,0.0,50.916,0.13,1,2020-01-13 09:12:00.000,11,2020-01-13 09:12:50.557,0.25,90,-180,-180,90,1
11944,4,0,54.785,0,0,1,0.25,2,3,0.0,0.0,12,45.0,30.0,3,0.7509999999999999,0.0,55.309,0.13,1,2020-01-13 09:12:00.000,11,2020-01-13 09:12:54.785,0.25,90,-180,-180,90,1
11945,5,0,65.638,0,0,1,0.25,2,3,0.0,0.0,12,45.0,30.0,3,0.901,0.0,66.14399999999999,0.13,1,2020-01-13 09:12:00.000,11,2020-01-13 09:13:05.638,0.25,90,-180,-180,90,1
11946,6,0,69.618,0,0,1,0.25,2,3,0.0,0.0,12,45.0,30.0,3,0.701,1.0,70.449,0.0,0,2020-01-13 09:12:00.000,11,2020-01-13 09:13:09.618,0.25,-90,-180,-180,-90,1
11947,8,0,92.642,0,0,1,0.25,2,3,0.0,0.0,12,45.0,30.0,3,0.901,0.0,93.067,0.13,1,2020-01-13 09:12:00.000,11,2020-01-13 09:13:32.642,0.25,90,-180,-180,90,1
11948,9,0,95.96,0,0,1,0.25,2,3,0.0,0.0,12,45.0,30.0,3,0.851,0.0,96.566,0.13,1,2020-01-13 09:12:00.000,11,2020-01-13 09:13:35.960,0.25,90,-180,-180,90,1
11949,10,0,100.373,0,0,1,0.25,2,9,0.0,0.0,6,45.0,30.0,9,0.8009999999999999,0.0,100.951,0.0,0,2020-01-13 09:12:00.000,11,2020-01-13 09:13:40.373,0.25,90,0,0,90,1
11950,12,0,116.17,0,0,1,0.25,2,9,0.0,0.0,6,45.0,30.0,9,0.901,1.0,116.684,0.17,1,2020-01-13 09:12:00.000,11,2020-01-13 09:13:56.170,0.25,-90,0,0,-90,1
11951,13,0,120.887,0,0,1,0.25,2,9,0.0,0.0,6,45.0,30.0,9,0.8009999999999999,1.0,121.102,0.17,1,2020-01-13 09:12:00.000,11,2020-01-13 09:14:00.887,0.25,-90,0,0,-90,1
12454,1,0,50.826,0,-60,1,0.25,2,3,0.0,0.0,2,45.0,30.0,3,0.851,1.0,51.44,0.0,0,2020-01-15 08:59:39.000,148,2020-01-15 09:00:29.826,0.25,-90,120,-180,-30,1
12455,3,0,62.275,0,-60,1,0.25,2,9,0.0,0.0,8,45.0,30.0,9,0.7509999999999999,1.0,62.43,0.17,1,2020-01-15 08:59:39.000,148,2020-01-15 09:00:41.275,0.25,-90,-60,0,-30,1
12456,4,0,66.791,0,-60,1,0.25,2,3,0.0,0.0,2,45.0,30.0,3,0.8009999999999999,0.0,67.14,0.13,1,2020-01-15 08:59:39.000,148,2020-01-15 09:00:45.791,0.25,90,120,-180,150,1
12457,5,0,69.82600000000001,0,-60,1,0.25,2,9,0.0,0.0,8,45.0,30.0,9,0.701,0.0,70.434,0.0,0,2020-01-15 08:59:39.000,148,2020-01-15 09:00:48.826,0.25,90,-60,0,150,1
12458,7,0,81.421,0,-60,1,0.25,2,3,0.0,0.0,2,45.0,30.0,3,0.8009999999999999,0.0,81.89699999999998,0.13,1,2020-01-15 08:59:39.000,148,2020-01-15 09:01:00.421,0.25,90,120,-180,150,1
12459,8,0,105.799,0,-60,1,0.25,2,9,0.0,0.0,8,45.0,30.0,9,0.901,1.0,105.959,0.17,1,2020-01-15 08:59:39.000,148,2020-01-15 09:01:24.799,0.25,-90,-60,0,-30,1
12460,9,0,110.813,0,-60,1,0.25,2,3,0.0,0.0,2,45.0,30.0,3,0.851,0.0,111.151,0.13,1,2020-01-15 08:59:39.000,148,2020-01-15 09:01:29.813,0.25,90,120,-180,150,1
12461,10,0,113.963,0,-60,1,0.25,2,3,0.0,0.0,2,45.0,30.0,3,0.701,0.0,114.545,0.13,1,2020-01-15 08:59:39.000,148,2020-01-15 09:01:32.963,0.25,90,120,-180,150,1
12462,11,0,118.321,0,-60,1,0.25,2,3,0.0,0.0,2,45.0,30.0,3,0.7509999999999999,0.0,118.94,0.13,1,2020-01-15 08:59:39.000,148,2020-01-15 09:01:37.321,0.25,90,120,-180,150,1
12463,12,0,126.778,0,-60,1,0.25,2,3,0.0,0.0,2,45.0,30.0,3,0.851,0.0,127.351,0.13,1,2020-01-15 08:59:39.000,148,2020-01-15 09:01:45.778,0.25,90,120,-180,150,1
12639,1,0,39.537,0,150,1,0.25,2,3,0.0,0.0,7,45.0,30.0,3,0.851,0.0,40.28,0.13,1,2020-01-15 14:48:02.000,59,2020-01-15 14:48:41.537,0.25,90,-30,-180,-60,1
12640,2,0,45.124,0,150,1,0.25,2,3,0.0,0.0,7,45.0,30.0,3,0.8009999999999999,1.0,46.154,0.0,0,2020-01-15 14:48:02.000,59,2020-01-15 14:48:47.124,0.25,-90,-30,-180,120,1
12641,5,0,73.512,0,150,1,0.25,2,3,0.0,0.0,7,45.0,30.0,3,0.901,0.0,74.42399999999998,0.13,1,2020-01-15 14:48:02.000,59,2020-01-15 14:49:15.512,0.25,90,-30,-180,-60,1
12642,6,0,78.471,0,150,1,0.25,2,3,0.0,0.0,7,45.0,30.0,3,0.901,0.0,79.28,0.13,1,2020-01-15 14:48:02.000,59,2020-01-15 14:49:20.471,0.25,90,-30,-180,-60,1
12643,7,0,82.47200000000002,0,150,1,0.25,2,3,0.0,0.0,7,45.0,30.0,3,0.701,1.0,82.986,0.0,0,2020-01-15 14:48:02.000,59,2020-01-15 14:49:24.472,0.25,-90,-30,-180,120,1
12644,9,0,92.71,0,150,1,0.25,2,9,0.0,0.0,1,45.0,30.0,9,0.8009999999999999,1.0,93.049,0.17,1,2020-01-15 14:48:02.000,59,2020-01-15 14:49:34.710,0.25,-90,150,0,120,1
12645,10,0,97.458,0,150,1,0.25,2,9,0.0,0.0,1,45.0,30.0,9,0.851,1.0,97.817,0.17,1,2020-01-15 14:48:02.000,59,2020-01-15 14:49:39.458,0.25,-90,150,0,120,1
12646,11,0,102.779,0,150,1,0.25,2,9,0.0,0.0,1,45.0,30.0,9,0.901,1.0,103.11,0.17,1,2020-01-15 14:48:02.000,59,2020-01-15 14:49:44.779,0.25,-90,150,0,120,1
12647,12,0,108.002,0,150,1,0.25,2,3,0.0,0.0,7,45.0,30.0,3,0.701,0.0,108.854,0.13,1,2020-01-15 14:48:02.000,59,2020-01-15 14:49:50.002,0.25,90,-30,-180,-60,1
12648,13,0,112.825,0,150,1,0.25,2,3,0.0,0.0,7,45.0,30.0,3,0.7509999999999999,0.0,113.4,0.13,1,2020-01-15 14:48:02.000,59,2020-01-15 14:49:54.825,0.25,90,-30,-180,-60,1
12809,1,0,38.857,0,-120,1,0.25,2,3,0.0,0.0,4,45.0,30.0,3,0.701,0.0,41.489,0.13,1,2020-01-16 08:46:42.000,102,2020-01-16 08:47:20.857,0.25,90,60,-180,-150,1
12810,2,0,51.249,0,-120,1,0.25,2,3,0.0,0.0,4,45.0,30.0,3,0.851,1.0,51.604,0.0,0,2020-01-16 08:46:42.000,102,2020-01-16 08:47:33.249,0.25,-90,60,-180,30,1
12811,4,0,73.196,0,-120,1,0.25,2,9,0.0,0.0,10,45.0,30.0,9,0.8009999999999999,0.0,73.749,0.0,0,2020-01-16 08:46:42.000,102,2020-01-16 08:47:55.196,0.25,90,-120,0,-150,1
12812,6,0,83.794,0,-120,1,0.25,2,9,0.0,0.0,10,45.0,30.0,9,0.701,1.0,84.352,0.17,1,2020-01-16 08:46:42.000,102,2020-01-16 08:48:05.794,0.25,-90,-120,0,30,1
12813,7,0,92.467,0,-120,1,0.25,2,9,0.0,0.0,10,45.0,30.0,9,0.901,0.0,92.878,0.0,0,2020-01-16 08:46:42.000,102,2020-01-16 08:48:14.467,0.25,90,-120,0,-150,1
12814,10,0,106.518,0,-120,1,0.25,2,9,0.0,0.0,10,45.0,30.0,9,0.7509999999999999,1.0,106.963,0.17,1,2020-01-16 08:46:42.000,102,2020-01-16 08:48:28.518,0.25,-90,-120,0,30,1
12815,11,0,111.245,0,-120,1,0.25,2,9,0.0,0.0,10,45.0,30.0,9,0.701,1.0,111.735,0.17,1,2020-01-16 08:46:42.000,102,2020-01-16 08:48:33.245,0.25,-90,-120,0,30,1
12816,12,0,117.791,0,-120,1,0.25,2,9,0.0,0.0,10,45.0,30.0,9,0.901,0.0,118.148,0.0,0,2020-01-16 08:46:42.000,102,2020-01-16 08:48:39.791,0.25,90,-120,0,-150,1
12817,14,0,131.595,0,-120,1,0.25,2,3,0.0,0.0,4,45.0,30.0,3,0.7509999999999999,1.0,132.06,0.0,0,2020-01-16 08:46:42.000,102,2020-01-16 08:48:53.595,0.25,-90,60,-180,30,1
12818,16,0,152.119,0,-120,1,0.25,2,3,0.0,0.0,4,45.0,30.0,3,0.7509999999999999,0.0,153.069,0.13,1,2020-01-16 08:46:42.000,102,2020-01-16 08:49:14.119,0.25,90,60,-180,-150,1
12908,1,0,59.701,0,-150,1,0.25,2,3,0.0,0.0,5,45.0,30.0,3,0.701,0.0,60.941,0.13,1,2020-01-16 15:03:50.000,183,2020-01-16 15:04:49.701,0.25,90,30,-180,-120,1
12909,2,0,74.21600000000002,0,-150,1,0.25,2,3,0.0,0.0,5,45.0,30.0,3,0.901,0.0,74.449,0.13,1,2020-01-16 15:03:50.000,183,2020-01-16 15:05:04.216,0.25,90,30,-180,-120,1
12910,3,0,78.42,0,-150,1,0.25,2,3,0.0,0.0,5,45.0,30.0,3,0.8009999999999999,0.0,79.13600000000002,0.13,1,2020-01-16 15:03:50.000,183,2020-01-16 15:05:08.420,0.25,90,30,-180,-120,1
12911,4,0,82.51799999999999,0,-150,1,0.25,2,9,0.0,0.0,11,45.0,30.0,9,0.851,1.0,82.81,0.17,1,2020-01-16 15:03:50.000,183,2020-01-16 15:05:12.518,0.25,-90,-150,0,60,1
12912,5,0,86.59100000000002,0,-150,1,0.25,2,9,0.0,0.0,11,45.0,30.0,9,0.7509999999999999,1.0,86.89299999999999,0.17,1,2020-01-16 15:03:50.000,183,2020-01-16 15:05:16.591,0.25,-90,-150,0,60,1
12913,6,0,91.663,0,-150,1,0.25,2,3,0.0,0.0,5,45.0,30.0,3,0.8009999999999999,0.0,92.245,0.13,1,2020-01-16 15:03:50.000,183,2020-01-16 15:05:21.663,0.25,90,30,-180,-120,1
12914,7,0,95.317,0,-150,1,0.25,2,3,0.0,0.0,5,45.0,30.0,3,0.7509999999999999,1.0,95.562,0.0,0,2020-01-16 15:03:50.000,183,2020-01-16 15:05:25.317,0.25,-90,30,-180,60,1
12915,10,0,133.19899999999998,0,-150,1,0.25,2,3,0.0,0.0,5,45.0,30.0,3,0.901,0.0,133.635,0.13,1,2020-01-16 15:03:50.000,183,2020-01-16 15:06:03.199,0.25,90,30,-180,-120,1
12916,11,0,136.916,0,-150,1,0.25,2,9,0.0,0.0,11,45.0,30.0,9,0.7509999999999999,1.0,137.257,0.17,1,2020-01-16 15:03:50.000,183,2020-01-16 15:06:06.916,0.25,-90,-150,0,60,1
12917,12,0,141.909,0,-150,1,0.25,2,3,0.0,0.0,5,45.0,30.0,3,0.701,0.0,142.44899999999996,0.13,1,2020-01-16 15:03:50.000,183,2020-01-16 15:06:11.909,0.25,90,30,-180,-120,1
13432,1,0,58.352,0,-30,1,0.25,2,3,0.0,0.0,1,45.0,30.0,3,0.851,0.0,59.228,0.13,1,2020-02-05 08:50:19.000,128,2020-02-05 08:51:17.352,0.25,90,150,-180,120,1
13433,2,0,62.469,0,-30,1,0.25,2,3,0.0,0.0,1,45.0,30.0,3,0.8009999999999999,1.0,70.51100000000002,0.0,0,2020-02-05 08:50:19.000,128,2020-02-05 08:51:21.469,0.25,-90,150,-180,-60,1
13434,4,0,78.298,0,-30,1,0.25,2,9,0.0,0.0,7,45.0,30.0,9,0.901,1.0,78.76100000000002,0.17,1,2020-02-05 08:50:19.000,128,2020-02-05 08:51:37.298,0.25,-90,-30,0,-60,1
13435,5,0,83.53299999999999,0,-30,1,0.25,2,9,0.0,0.0,7,45.0,30.0,9,0.701,1.0,84.09200000000001,0.17,1,2020-02-05 08:50:19.000,128,2020-02-05 08:51:42.533,0.25,-90,-30,0,-60,1
13436,6,0,88.36399999999998,0,-30,1,0.25,2,9,0.0,0.0,7,45.0,30.0,9,0.8009999999999999,1.0,88.95200000000001,0.17,1,2020-02-05 08:50:19.000,128,2020-02-05 08:51:47.364,0.25,-90,-30,0,-60,1
13437,7,0,94.291,0,-30,1,0.25,2,9,0.0,0.0,7,45.0,30.0,9,0.851,1.0,94.873,0.17,1,2020-02-05 08:50:19.000,128,2020-02-05 08:51:53.291,0.25,-90,-30,0,-60,1
13438,8,0,99.326,0,-30,1,0.25,2,3,0.0,0.0,1,45.0,30.0,3,0.901,0.0,100.005,0.13,1,2020-02-05 08:50:19.000,128,2020-02-05 08:51:58.326,0.25,90,150,-180,120,1
13439,9,0,102.238,0,-30,1,0.25,2,3,0.0,0.0,1,45.0,30.0,3,0.701,1.0,103.236,0.0,0,2020-02-05 08:50:19.000,128,2020-02-05 08:52:01.238,0.25,-90,150,-180,-60,1
13440,11,0,109.687,0,-30,1,0.25,2,3,0.0,0.0,1,45.0,30.0,3,0.851,1.0,110.623,0.0,0,2020-02-05 08:50:19.000,128,2020-02-05 08:52:08.687,0.25,-90,150,-180,-60,1
13441,13,0,131.952,0,-30,1,0.25,2,9,0.0,0.0,7,45.0,30.0,9,0.7509999999999999,1.0,132.571,0.17,1,2020-02-05 08:50:19.000,128,2020-02-05 08:52:30.952,0.25,-90,-30,0,-60,1
13700,1,0,31.399,0,-120,1,0.25,2,3,0.0,0.0,4,45.0,30.0,3,0.701,1.0,32.07,0.0,0,2020-02-06 08:53:01.000,156,2020-02-06 08:53:32.399,0.25,-90,60,-180,30,1
13701,4,0,57.402,0,-120,1,0.25,2,9,0.0,0.0,10,45.0,30.0,9,0.901,1.0,58.492,0.17,1,2020-02-06 08:53:01.000,156,2020-02-06 08:53:58.402,0.25,-90,-120,0,30,1
13702,5,0,63.062,0,-120,1,0.25,2,9,0.0,0.0,10,45.0,30.0,9,0.8009999999999999,0.0,63.481,0.0,0,2020-02-06 08:53:01.000,156,2020-02-06 08:54:04.062,0.25,90,-120,0,-150,1
13703,7,0,96.716,0,-120,1,0.25,2,3,0.0,0.0,4,45.0,30.0,3,0.701,0.0,97.543,0.13,1,2020-02-06 08:53:01.000,156,2020-02-06 08:54:37.716,0.25,90,60,-180,-150,1
13704,8,0,100.242,0,-120,1,0.25,2,9,0.0,0.0,10,45.0,30.0,9,0.8009999999999999,1.0,100.492,0.17,1,2020-02-06 08:53:01.000,156,2020-02-06 08:54:41.242,0.25,-90,-120,0,30,1
13705,9,0,106.205,0,-120,1,0.25,2,3,0.0,0.0,4,45.0,30.0,3,0.7509999999999999,1.0,106.98,0.0,0,2020-02-06 08:53:01.000,156,2020-02-06 08:54:47.205,0.25,-90,60,-180,30,1
13706,11,0,113.685,0,-120,1,0.25,2,3,0.0,0.0,4,45.0,30.0,3,0.701,0.0,114.487,0.13,1,2020-02-06 08:53:01.000,156,2020-02-06 08:54:54.685,0.25,90,60,-180,-150,1
13707,12,0,119.529,0,-120,1,0.25,2,3,0.0,0.0,4,45.0,30.0,3,0.901,1.0,119.874,0.0,0,2020-02-06 08:53:01.000,156,2020-02-06 08:55:00.529,0.25,-90,60,-180,30,1
13708,14,0,128.67,0,-120,1,0.25,2,3,0.0,0.0,4,45.0,30.0,3,0.7509999999999999,0.0,129.167,0.13,1,2020-02-06 08:53:01.000,156,2020-02-06 08:55:09.670,0.25,90,60,-180,-150,1
13709,15,0,135.493,0,-120,1,0.25,2,3,0.0,0.0,4,45.0,30.0,3,0.851,0.0,136.131,0.13,1,2020-02-06 08:53:01.000,156,2020-02-06 08:55:16.493,0.25,90,60,-180,-150,1
13962,1,0,26.457,0,-90,1,0.25,2,9,0.0,0.0,9,45.0,30.0,9,0.701,1.0,27.222,0.17,1,2020-02-07 08:38:22.000,69,2020-02-07 08:38:48.457,0.25,-90,-90,0,0,1
13963,2,0,59.274,0,-90,1,0.25,2,9,0.0,0.0,9,45.0,30.0,9,0.851,1.0,59.654,0.17,1,2020-02-07 08:38:22.000,69,2020-02-07 08:39:21.274,0.25,-90,-90,0,0,1
13964,3,0,66.472,0,-90,1,0.25,2,9,0.0,0.0,9,45.0,30.0,9,0.901,1.0,66.665,0.17,1,2020-02-07 08:38:22.000,69,2020-02-07 08:39:28.472,0.25,-90,-90,0,0,1
13965,4,0,70.94800000000002,0,-90,1,0.25,2,3,0.0,0.0,3,45.0,30.0,3,0.8009999999999999,1.0,71.30199999999998,0.0,0,2020-02-07 08:38:22.000,69,2020-02-07 08:39:32.948,0.25,-90,90,-180,0,1
13966,6,0,87.73,0,-90,1,0.25,2,9,0.0,0.0,9,45.0,30.0,9,0.901,0.0,87.98299999999998,0.0,0,2020-02-07 08:38:22.000,69,2020-02-07 08:39:49.730,0.25,90,-90,0,-180,1
13967,9,0,102.303,0,-90,1,0.25,2,3,0.0,0.0,3,45.0,30.0,3,0.701,0.0,103.037,0.13,1,2020-02-07 08:38:22.000,69,2020-02-07 08:40:04.303,0.25,90,90,-180,-180,1
13968,10,0,104.958,0,-90,1,0.25,2,9,0.0,0.0,9,45.0,30.0,9,0.7509999999999999,1.0,105.252,0.17,1,2020-02-07 08:38:22.000,69,2020-02-07 08:40:06.958,0.25,-90,-90,0,0,1
13969,11,0,109.561,0,-90,1,0.25,2,3,0.0,0.0,3,45.0,30.0,3,0.851,0.0,110.274,0.13,1,2020-02-07 08:38:22.000,69,2020-02-07 08:40:11.561,0.25,90,90,-180,-180,1
13970,12,0,115.019,0,-90,1,0.25,2,3,0.0,0.0,3,45.0,30.0,3,0.8009999999999999,1.0,115.462,0.0,0,2020-02-07 08:38:22.000,69,2020-02-07 08:40:17.019,0.25,-90,90,-180,0,1
13971,15,0,148.57299999999995,0,-90,1,0.25,2,9,0.0,0.0,9,45.0,30.0,9,0.7509999999999999,1.0,149.423,0.17,1,2020-02-07 08:38:22.000,69,2020-02-07 08:40:50.573,0.25,-90,-90,0,0,1
14011,1,0,27.398000000000003,0,120,1,0.25,2,9,0.0,0.0,2,45.0,30.0,9,0.7509999999999999,1.0,28.082,0.17,1,2020-02-07 14:14:11.000,126,2020-02-07 14:14:38.398,0.25,-90,120,0,150,1
14012,2,0,33.292,0,120,1,0.25,2,9,0.0,0.0,2,45.0,30.0,9,0.901,1.0,33.789,0.17,1,2020-02-07 14:14:11.000,126,2020-02-07 14:14:44.292,0.25,-90,120,0,150,1
14013,3,0,78.604,0,120,1,0.25,2,9,0.0,0.0,2,45.0,30.0,9,0.8009999999999999,1.0,78.89,0.17,1,2020-02-07 14:14:11.000,126,2020-02-07 14:15:29.604,0.25,-90,120,0,150,1
14014,4,0,83.62899999999998,0,120,1,0.25,2,9,0.0,0.0,2,45.0,30.0,9,0.701,1.0,84.056,0.17,1,2020-02-07 14:14:11.000,126,2020-02-07 14:15:34.629,0.25,-90,120,0,150,1
14015,5,0,88.281,0,120,1,0.25,2,3,0.0,0.0,8,45.0,30.0,3,0.851,1.0,88.98200000000001,0.0,0,2020-02-07 14:14:11.000,126,2020-02-07 14:15:39.281,0.25,-90,-60,-180,150,1
14016,7,0,94.923,0,120,1,0.25,2,3,0.0,0.0,8,45.0,30.0,3,0.701,1.0,95.154,0.0,0,2020-02-07 14:14:11.000,126,2020-02-07 14:15:45.923,0.25,-90,-60,-180,150,1
14017,9,0,124.052,0,120,1,0.25,2,9,0.0,0.0,2,45.0,30.0,9,0.901,1.0,124.298,0.17,1,2020-02-07 14:14:11.000,126,2020-02-07 14:16:15.052,0.25,-90,120,0,150,1
14018,10,0,128.914,0,120,1,0.25,2,3,0.0,0.0,8,45.0,30.0,3,0.7509999999999999,0.0,129.43200000000002,0.13,1,2020-02-07 14:14:11.000,126,2020-02-07 14:16:19.914,0.25,90,-60,-180,-30,1
14019,11,0,130.91899999999998,0,120,1,0.25,2,9,0.0,0.0,2,45.0,30.0,9,0.851,1.0,131.592,0.17,1,2020-02-07 14:14:11.000,126,2020-02-07 14:16:21.919,0.25,-90,120,0,150,1
14020,12,0,142.918,0,120,1,0.25,2,3,0.0,0.0,8,45.0,30.0,3,0.901,1.0,143.458,0.0,0,2020-02-07 14:14:11.000,126,2020-02-07 14:16:33.918,0.25,-90,-60,-180,150,1
14564,1,0,50.01600000000001,1,180,1,0.25,2,9,0.0,0.0,12,45.0,30.0,9,0.601,0.0,54.574,0.0,0,2020-02-18 14:31:20.000,175,2020-02-18 14:32:10.016,0.25,90,-180,0,-90,1
14565,3,0,65.743,0,180,1,0.25,2,3,0.0,0.0,6,45.0,30.0,3,0.551,0.0,66.529,0.15,1,2020-02-18 14:31:20.000,175,2020-02-18 14:32:25.743,0.25,90,0,-180,-90,1
14566,4,0,67.623,0,180,1,0.25,2,3,0.0,0.0,6,45.0,30.0,3,0.501,1.0,68.819,0.0,0,2020-02-18 14:31:20.000,175,2020-02-18 14:32:27.623,0.25,-90,0,-180,90,1
14567,6,0,83.164,0,180,1,0.25,2,9,0.0,0.0,12,45.0,30.0,9,0.501,1.0,85.242,0.15,1,2020-02-18 14:31:20.000,175,2020-02-18 14:32:43.164,0.25,-90,-180,0,90,1
14568,7,0,92.264,0,180,1,0.25,2,3,0.0,0.0,6,45.0,30.0,3,0.526,0.0,93.365,0.15,1,2020-02-18 14:31:20.000,175,2020-02-18 14:32:52.264,0.25,90,0,-180,-90,1
14569,8,0,97.845,0,180,1,0.25,2,3,0.0,0.0,6,45.0,30.0,3,0.5760000000000001,0.0,98.529,0.15,1,2020-02-18 14:31:20.000,175,2020-02-18 14:32:57.845,0.25,90,0,-180,-90,1
14570,9,0,104.445,1,180,1,0.25,2,3,0.0,0.0,6,45.0,30.0,3,0.601,0.0,107.552,0.15,1,2020-02-18 14:31:20.000,175,2020-02-18 14:33:04.445,0.25,90,0,-180,-90,1
14571,10,0,115.558,0,180,1,0.25,2,9,0.0,0.0,12,45.0,30.0,9,0.551,1.0,117.32,0.15,1,2020-02-18 14:31:20.000,175,2020-02-18 14:33:15.558,0.25,-90,-180,0,90,1
14572,11,0,120.668,0,180,1,0.25,2,3,0.0,0.0,6,45.0,30.0,3,0.551,0.0,121.455,0.15,1,2020-02-18 14:31:20.000,175,2020-02-18 14:33:20.668,0.25,90,0,-180,-90,1
14573,12,0,128.342,0,180,1,0.25,2,3,0.0,0.0,6,45.0,30.0,3,0.601,0.0,129.899,0.15,1,2020-02-18 14:31:20.000,175,2020-02-18 14:33:28.342,0.25,90,0,-180,-90,1
15018,1,0,35.046,0,-90,1,0.25,2,3,0.0,0.0,3,45.0,30.0,3,0.501,0.0,35.55300000000001,0.15,1,2020-02-20 07:23:18.000,9,2020-02-20 07:23:53.046,0.25,90,90,-180,-180,1
15019,2,0,60.292,0,-90,1,0.25,2,3,0.0,0.0,3,45.0,30.0,3,0.601,0.0,61.089,0.15,1,2020-02-20 07:23:18.000,9,2020-02-20 07:24:18.292,0.25,90,90,-180,-180,1
15020,3,0,65.26899999999999,0,-90,1,0.25,2,3,0.0,0.0,3,45.0,30.0,3,0.5760000000000001,0.0,65.682,0.15,1,2020-02-20 07:23:18.000,9,2020-02-20 07:24:23.269,0.25,90,90,-180,-180,1
15021,4,0,69.279,0,-90,1,0.25,2,9,0.0,0.0,9,45.0,30.0,9,0.526,1.0,70.062,0.15,1,2020-02-20 07:23:18.000,9,2020-02-20 07:24:27.279,0.25,-90,-90,0,0,1
15022,5,0,73.794,0,-90,1,0.25,2,3,0.0,0.0,3,45.0,30.0,3,0.551,0.0,74.226,0.15,1,2020-02-20 07:23:18.000,9,2020-02-20 07:24:31.794,0.25,90,90,-180,-180,1
15023,6,0,78.07300000000002,0,-90,1,0.25,2,3,0.0,0.0,3,45.0,30.0,3,0.551,0.0,78.723,0.15,1,2020-02-20 07:23:18.000,9,2020-02-20 07:24:36.073,0.25,90,90,-180,-180,1
15024,7,0,82.67399999999998,0,-90,1,0.25,2,3,0.0,0.0,3,45.0,30.0,3,0.501,0.0,83.175,0.15,1,2020-02-20 07:23:18.000,9,2020-02-20 07:24:40.674,0.25,90,90,-180,-180,1
15025,8,0,87.21,0,-90,1,0.25,2,3,0.0,0.0,3,45.0,30.0,3,0.5760000000000001,1.0,87.992,0.0,0,2020-02-20 07:23:18.000,9,2020-02-20 07:24:45.210,0.25,-90,90,-180,0,1
15026,11,0,124.372,0,-90,1,0.25,2,9,0.0,0.0,9,45.0,30.0,9,0.5760000000000001,0.0,124.986,0.0,0,2020-02-20 07:23:18.000,9,2020-02-20 07:25:22.372,0.25,90,-90,0,-180,1
15027,13,0,137.76,0,-90,1,0.25,2,9,0.0,0.0,9,45.0,30.0,9,0.526,0.0,138.19899999999998,0.0,0,2020-02-20 07:23:18.000,9,2020-02-20 07:25:35.760,0.25,90,-90,0,-180,1
15171,1,0,79.24600000000002,0,90,1,0.25,2,3,0.0,0.0,9,45.0,30.0,3,0.5760000000000001,0.0,80.223,0.15,1,2020-02-20 14:10:23.000,20,2020-02-20 14:11:42.246,0.25,90,-90,-180,0,1
15172,2,0,82.76100000000002,0,90,1,0.25,2,9,0.0,0.0,3,45.0,30.0,9,0.551,1.0,82.99,0.15,1,2020-02-20 14:10:23.000,20,2020-02-20 14:11:45.761,0.25,-90,90,0,-180,1
15173,3,0,84.67399999999998,0,90,1,0.25,2,9,0.0,0.0,3,45.0,30.0,9,0.601,1.0,85.243,0.15,1,2020-02-20 14:10:23.000,20,2020-02-20 14:11:47.674,0.25,-90,90,0,-180,1
15174,4,0,92.428,0,90,1,0.25,2,9,0.0,0.0,3,45.0,30.0,9,0.501,0.0,93.578,0.0,0,2020-02-20 14:10:23.000,20,2020-02-20 14:11:55.428,0.25,90,90,0,0,1
15175,6,0,132.655,0,90,1,0.25,2,9,0.0,0.0,3,45.0,30.0,9,0.601,1.0,132.937,0.15,1,2020-02-20 14:10:23.000,20,2020-02-20 14:12:35.655,0.25,-90,90,0,-180,1
15176,7,0,136.80700000000002,0,90,1,0.25,2,9,0.0,0.0,3,45.0,30.0,9,0.551,1.0,137.996,0.15,1,2020-02-20 14:10:23.000,20,2020-02-20 14:12:39.807,0.25,-90,90,0,-180,1
15177,8,0,141.319,0,90,1,0.25,2,9,0.0,0.0,3,45.0,30.0,9,0.501,1.0,141.941,0.15,1,2020-02-20 14:10:23.000,20,2020-02-20 14:12:44.319,0.25,-90,90,0,-180,1
15178,9,0,149.047,0,90,1,0.25,2,9,0.0,0.0,3,45.0,30.0,9,0.5760000000000001,1.0,149.46200000000005,0.15,1,2020-02-20 14:10:23.000,20,2020-02-20 14:12:52.047,0.25,-90,90,0,-180,1
15179,10,0,153.166,0,90,1,0.25,2,3,0.0,0.0,9,45.0,30.0,3,0.526,0.0,154.04,0.15,1,2020-02-20 14:10:23.000,20,2020-02-20 14:12:56.166,0.25,90,-90,-180,0,1
15180,11,0,156.244,0,90,1,0.25,2,3,0.0,0.0,9,45.0,30.0,3,0.551,0.0,156.844,0.15,1,2020-02-20 14:10:23.000,20,2020-02-20 14:12:59.244,0.25,90,-90,-180,0,1
15379,1,0,12.992,0,-150,1,0.25,2,9,0.0,0.0,11,45.0,30.0,9,0.526,0.0,14.018,0.0,0,2020-02-21 08:36:02.000,44,2020-02-21 08:36:14.992,0.25,90,-150,0,-120,1
15380,3,0,22.574,0,-150,1,0.25,2,3,0.0,0.0,5,45.0,30.0,3,0.551,0.0,23.118,0.15,1,2020-02-21 08:36:02.000,44,2020-02-21 08:36:24.574,0.25,90,30,-180,-120,1
15381,4,0,27.463,0,-150,1,0.25,2,9,0.0,0.0,11,45.0,30.0,9,0.501,1.0,27.737,0.15,1,2020-02-21 08:36:02.000,44,2020-02-21 08:36:29.463,0.25,-90,-150,0,60,1
15382,5,0,31.81,0,-150,1,0.25,2,9,0.0,0.0,11,45.0,30.0,9,0.5760000000000001,1.0,32.216,0.15,1,2020-02-21 08:36:02.000,44,2020-02-21 08:36:33.810,0.25,-90,-150,0,60,1
15383,6,0,40.826,0,-150,1,0.25,2,3,0.0,0.0,5,45.0,30.0,3,0.551,0.0,41.37300000000001,0.15,1,2020-02-21 08:36:02.000,44,2020-02-21 08:36:42.826,0.25,90,30,-180,-120,1
15384,7,0,48.96100000000001,1,-150,1,0.25,2,3,0.0,0.0,5,45.0,30.0,3,0.526,0.0,51.709,0.15,1,2020-02-21 08:36:02.000,44,2020-02-21 08:36:50.961,0.25,90,30,-180,-120,1
15385,8,0,56.569,0,-150,1,0.25,2,3,0.0,0.0,5,45.0,30.0,3,0.5760000000000001,0.0,58.14,0.15,1,2020-02-21 08:36:02.000,44,2020-02-21 08:36:58.569,0.25,90,30,-180,-120,1
15386,9,0,66.494,0,-150,1,0.25,2,3,0.0,0.0,5,45.0,30.0,3,0.501,1.0,67.817,0.0,0,2020-02-21 08:36:02.000,44,2020-02-21 08:37:08.494,0.25,-90,30,-180,60,1
15387,12,0,88.366,0,-150,1,0.25,2,9,0.0,0.0,11,45.0,30.0,9,0.526,1.0,89.125,0.15,1,2020-02-21 08:36:02.000,44,2020-02-21 08:37:30.366,0.25,-90,-150,0,60,1
15388,13,0,94.985,0,-150,1,0.25,2,9,0.0,0.0,11,45.0,30.0,9,0.501,1.0,95.329,0.15,1,2020-02-21 08:36:02.000,44,2020-02-21 08:37:36.985,0.25,-90,-150,0,60,1
15583,1,0,29.378,0,60,1,0.25,2,3,0.0,0.0,10,45.0,30.0,3,0.501,0.0,31.652,0.15,1,2020-02-21 14:07:49.000,70,2020-02-21 14:08:18.378,0.25,90,-120,-180,30,1
15584,2,0,34.408,0,60,1,0.25,2,3,0.0,0.0,10,45.0,30.0,3,0.5760000000000001,1.0,34.6,0.0,0,2020-02-21 14:07:49.000,70,2020-02-21 14:08:23.408,0.25,-90,-120,-180,-150,1
15585,5,0,55.528,0,60,1,0.25,2,9,0.0,0.0,4,45.0,30.0,9,0.526,0.0,57.42,0.0,0,2020-02-21 14:07:49.000,70,2020-02-21 14:08:44.528,0.25,90,60,0,30,1
15586,9,0,82.652,0,60,1,0.25,2,3,0.0,0.0,10,45.0,30.0,3,0.5760000000000001,0.0,83.573,0.15,1,2020-02-21 14:07:49.000,70,2020-02-21 14:09:11.652,0.25,90,-120,-180,30,1
15587,10,0,87.65700000000002,0,60,1,0.25,2,3,0.0,0.0,10,45.0,30.0,3,0.501,0.0,88.041,0.15,1,2020-02-21 14:07:49.000,70,2020-02-21 14:09:16.657,0.25,90,-120,-180,30,1
15588,11,0,93.88,0,60,1,0.25,2,9,0.0,0.0,4,45.0,30.0,9,0.601,0.0,94.653,0.0,0,2020-02-21 14:07:49.000,70,2020-02-21 14:09:22.880,0.25,90,60,0,30,1
15589,13,0,120.181,0,60,1,0.25,2,9,0.0,0.0,4,45.0,30.0,9,0.5760000000000001,1.0,120.636,0.15,1,2020-02-21 14:07:49.000,70,2020-02-21 14:09:49.181,0.25,-90,60,0,-150,1
15590,14,0,124.781,0,60,1,0.25,2,3,0.0,0.0,10,45.0,30.0,3,0.551,0.0,125.299,0.15,1,2020-02-21 14:07:49.000,70,2020-02-21 14:09:53.781,0.25,90,-120,-180,30,1
15591,15,0,130.217,0,60,1,0.25,2,9,0.0,0.0,4,45.0,30.0,9,0.526,1.0,131.107,0.15,1,2020-02-21 14:07:49.000,70,2020-02-21 14:09:59.217,0.25,-90,60,0,-150,1
15592,16,0,138.819,0,60,1,0.25,2,3,0.0,0.0,10,45.0,30.0,3,0.601,0.0,139.16,0.15,1,2020-02-21 14:07:49.000,70,2020-02-21 14:10:07.819,0.25,90,-120,-180,30,1
15724,1,0,13.92,0,0,1,0.25,2,9,0.0,0.0,6,45.0,30.0,9,0.551,1.0,14.663,0.15,1,2020-03-02 08:34:41.000,58,2020-03-02 08:34:54.920,0.25,-90,0,0,-90,1
15725,2,0,16.392,0,0,1,0.25,2,9,0.0,0.0,6,45.0,30.0,9,0.601,0.0,17.026,0.0,0,2020-03-02 08:34:41.000,58,2020-03-02 08:34:57.392,0.25,90,0,0,90,1
15726,4,0,50.159,0,0,1,0.25,2,3,0.0,0.0,12,45.0,30.0,3,0.526,0.0,50.99800000000001,0.15,1,2020-03-02 08:34:41.000,58,2020-03-02 08:35:31.159,0.25,90,-180,-180,90,1
15727,5,0,65.413,1,0,1,0.25,2,3,0.0,0.0,12,45.0,30.0,3,0.5760000000000001,0.0,68.084,0.15,1,2020-03-02 08:34:41.000,58,2020-03-02 08:35:46.413,0.25,90,-180,-180,90,1
15728,6,0,73.375,0,0,1,0.25,2,9,0.0,0.0,6,45.0,30.0,9,0.601,1.0,73.96600000000002,0.15,1,2020-03-02 08:34:41.000,58,2020-03-02 08:35:54.375,0.25,-90,0,0,-90,1
15729,7,0,79.351,0,0,1,0.25,2,9,0.0,0.0,6,45.0,30.0,9,0.551,1.0,79.87899999999998,0.15,1,2020-03-02 08:34:41.000,58,2020-03-02 08:36:00.351,0.25,-90,0,0,-90,1
15730,8,0,82.58,0,0,1,0.25,2,3,0.0,0.0,12,45.0,30.0,3,0.526,0.0,83.155,0.15,1,2020-03-02 08:34:41.000,58,2020-03-02 08:36:03.580,0.25,90,-180,-180,90,1
15731,9,0,86.54299999999998,0,0,1,0.25,2,3,0.0,0.0,12,45.0,30.0,3,0.501,0.0,88.104,0.15,1,2020-03-02 08:34:41.000,58,2020-03-02 08:36:07.543,0.25,90,-180,-180,90,1
15732,10,0,100.674,0,0,1,0.25,2,9,0.0,0.0,6,45.0,30.0,9,0.5760000000000001,1.0,101.373,0.15,1,2020-03-02 08:34:41.000,58,2020-03-02 08:36:21.674,0.25,-90,0,0,-90,1
15733,11,0,105.017,0,0,1,0.25,2,3,0.0,0.0,12,45.0,30.0,3,0.601,0.0,105.675,0.15,1,2020-03-02 08:34:41.000,58,2020-03-02 08:36:26.017,0.25,90,-180,-180,90,1
15922,1,0,59.648,0,-90,1,0.25,2,9,0.0,0.0,9,45.0,30.0,9,0.601,1.0,60.15600000000001,0.15,1,2020-03-03 08:06:06.000,51,2020-03-03 08:07:05.648,0.25,-90,-90,0,0,1
15923,2,0,66.559,0,-90,1,0.25,2,9,0.0,0.0,9,45.0,30.0,9,0.526,1.0,67.107,0.15,1,2020-03-03 08:06:06.000,51,2020-03-03 08:07:12.559,0.25,-90,-90,0,0,1
15924,3,0,70.658,1,-90,1,0.25,2,9,0.0,0.0,9,45.0,30.0,9,0.5760000000000001,1.0,70.852,0.15,1,2020-03-03 08:06:06.000,51,2020-03-03 08:07:16.658,0.25,-90,-90,0,0,1
15925,4,0,75.189,1,-90,1,0.25,2,3,0.0,0.0,3,45.0,30.0,3,0.501,1.0,75.78699999999998,0.0,0,2020-03-03 08:06:06.000,51,2020-03-03 08:07:21.189,0.25,-90,90,-180,0,1
15926,6,0,89.18700000000003,0,-90,1,0.25,2,3,0.0,0.0,3,45.0,30.0,3,0.5760000000000001,0.0,89.87299999999998,0.15,1,2020-03-03 08:06:06.000,51,2020-03-03 08:07:35.187,0.25,90,90,-180,-180,1
15927,7,0,93.98,0,-90,1,0.25,2,9,0.0,0.0,9,45.0,30.0,9,0.526,1.0,94.298,0.15,1,2020-03-03 08:06:06.000,51,2020-03-03 08:07:39.980,0.25,-90,-90,0,0,1
15928,8,0,102.066,0,-90,1,0.25,2,9,0.0,0.0,9,45.0,30.0,9,0.601,1.0,102.379,0.15,1,2020-03-03 08:06:06.000,51,2020-03-03 08:07:48.066,0.25,-90,-90,0,0,1
15929,9,0,105.246,0,-90,1,0.25,2,3,0.0,0.0,3,45.0,30.0,3,0.501,0.0,105.677,0.15,1,2020-03-03 08:06:06.000,51,2020-03-03 08:07:51.246,0.25,90,90,-180,-180,1
15930,10,0,110.763,0,-90,1,0.25,2,9,0.0,0.0,9,45.0,30.0,9,0.551,1.0,110.9,0.15,1,2020-03-03 08:06:06.000,51,2020-03-03 08:07:56.763,0.25,-90,-90,0,0,1
15931,11,0,121.754,0,-90,1,0.25,2,9,0.0,0.0,9,45.0,30.0,9,0.5760000000000001,1.0,122.132,0.15,1,2020-03-03 08:06:06.000,51,2020-03-03 08:08:07.754,0.25,-90,-90,0,0,1
16020,1,0,46.657,0,-60,1,0.25,2,3,0.0,0.0,2,45.0,30.0,3,0.501,0.0,47.507,0.15,1,2020-03-03 13:59:31.000,21,2020-03-03 14:00:17.657,0.25,90,120,-180,150,1
16021,2,0,55.206,0,-60,1,0.25,2,9,0.0,0.0,8,45.0,30.0,9,0.5760000000000001,1.0,55.7,0.15,1,2020-03-03 13:59:31.000,21,2020-03-03 14:00:26.206,0.25,-90,-60,0,-30,1
16022,3,0,63.24,0,-60,1,0.25,2,9,0.0,0.0,8,45.0,30.0,9,0.551,1.0,64.971,0.15,1,2020-03-03 13:59:31.000,21,2020-03-03 14:00:34.240,0.25,-90,-60,0,-30,1
16023,4,0,91.992,0,-60,1,0.25,2,3,0.0,0.0,2,45.0,30.0,3,0.526,0.0,93.219,0.15,1,2020-03-03 13:59:31.000,21,2020-03-03 14:01:02.992,0.25,90,120,-180,150,1
16024,5,0,103.029,0,-60,1,0.25,2,9,0.0,0.0,8,45.0,30.0,9,0.601,1.0,103.263,0.15,1,2020-03-03 13:59:31.000,21,2020-03-03 14:01:14.029,0.25,-90,-60,0,-30,1
16025,6,0,108.641,0,-60,1,0.25,2,3,0.0,0.0,2,45.0,30.0,3,0.501,0.0,109.005,0.15,1,2020-03-03 13:59:31.000,21,2020-03-03 14:01:19.641,0.25,90,120,-180,150,1
16026,7,0,113.181,0,-60,1,0.25,2,3,0.0,0.0,2,45.0,30.0,3,0.551,0.0,113.548,0.15,1,2020-03-03 13:59:31.000,21,2020-03-03 14:01:24.181,0.25,90,120,-180,150,1
16027,8,0,117.69,0,-60,1,0.25,2,3,0.0,0.0,2,45.0,30.0,3,0.601,0.0,118.206,0.15,1,2020-03-03 13:59:31.000,21,2020-03-03 14:01:28.690,0.25,90,120,-180,150,1
16028,9,0,122.671,0,-60,1,0.25,2,9,0.0,0.0,8,45.0,30.0,9,0.526,1.0,122.906,0.15,1,2020-03-03 13:59:31.000,21,2020-03-03 14:01:33.671,0.25,-90,-60,0,-30,1
16029,10,0,127.561,0,-60,1,0.25,2,3,0.0,0.0,2,45.0,30.0,3,0.5760000000000001,0.0,127.917,0.15,1,2020-03-03 13:59:31.000,21,2020-03-03 14:01:38.561,0.25,90,120,-180,150,1
16188,1,0,31.19,0,30,1,0.25,2,3,0.0,0.0,11,45.0,30.0,3,0.526,1.0,32.553000000000004,0.0,0,2020-03-04 07:19:40.000,215,2020-03-04 07:20:11.190,0.25,-90,-150,-180,-120,1
16189,3,0,58.716,0,30,1,0.25,2,9,0.0,0.0,5,45.0,30.0,9,0.501,1.0,59.243,0.15,1,2020-03-04 07:19:40.000,215,2020-03-04 07:20:38.716,0.25,-90,30,0,-120,1
16190,4,0,65.531,0,30,1,0.25,2,3,0.0,0.0,11,45.0,30.0,3,0.551,0.0,66.47,0.15,1,2020-03-04 07:19:40.000,215,2020-03-04 07:20:45.531,0.25,90,-150,-180,60,1
16191,5,0,72.312,0,30,1,0.25,2,9,0.0,0.0,5,45.0,30.0,9,0.601,1.0,72.783,0.15,1,2020-03-04 07:19:40.000,215,2020-03-04 07:20:52.312,0.25,-90,30,0,-120,1
16192,6,0,76.236,0,30,1,0.25,2,9,0.0,0.0,5,45.0,30.0,9,0.601,1.0,76.527,0.15,1,2020-03-04 07:19:40.000,215,2020-03-04 07:20:56.236,0.25,-90,30,0,-120,1
16193,7,0,83.56,0,30,1,0.25,2,3,0.0,0.0,11,45.0,30.0,3,0.551,1.0,84.145,0.0,0,2020-03-04 07:19:40.000,215,2020-03-04 07:21:03.560,0.25,-90,-150,-180,-120,1
16194,9,0,103.987,0,30,1,0.25,2,9,0.0,0.0,5,45.0,30.0,9,0.501,1.0,104.58,0.15,1,2020-03-04 07:19:40.000,215,2020-03-04 07:21:23.987,0.25,-90,30,0,-120,1
16195,10,0,107.853,0,30,1,0.25,2,9,0.0,0.0,5,45.0,30.0,9,0.526,1.0,108.187,0.15,1,2020-03-04 07:19:40.000,215,2020-03-04 07:21:27.853,0.25,-90,30,0,-120,1
16196,11,0,111.895,0,30,1,0.25,2,3,0.0,0.0,11,45.0,30.0,3,0.526,1.0,112.512,0.0,0,2020-03-04 07:19:40.000,215,2020-03-04 07:21:31.895,0.25,-90,-150,-180,-120,1
16197,13,0,125.195,0,30,1,0.25,2,3,0.0,0.0,11,45.0,30.0,3,0.5760000000000001,1.0,126.831,0.0,0,2020-03-04 07:19:40.000,215,2020-03-04 07:21:45.195,0.25,-90,-150,-180,-120,1
16489,1,0,48.577,0,-120,1,0.25,2,9,0.0,0.0,10,45.0,30.0,9,0.551,0.0,48.871,0.0,0,2020-03-05 08:52:12.000,57,2020-03-05 08:53:00.577,0.25,90,-120,0,-150,1
16490,3,0,64.78,0,-120,1,0.25,2,9,0.0,0.0,10,45.0,30.0,9,0.501,0.0,65.595,0.0,0,2020-03-05 08:52:12.000,57,2020-03-05 08:53:16.780,0.25,90,-120,0,-150,1
16491,5,0,78.042,1,-120,1,0.25,2,3,0.0,0.0,4,45.0,30.0,3,0.5760000000000001,1.0,79.905,0.0,0,2020-03-05 08:52:12.000,57,2020-03-05 08:53:30.042,0.25,-90,60,-180,30,1
16492,7,0,93.132,0,-120,1,0.25,2,3,0.0,0.0,4,45.0,30.0,3,0.551,0.0,94.085,0.15,1,2020-03-05 08:52:12.000,57,2020-03-05 08:53:45.132,0.25,90,60,-180,-150,1
16493,8,0,97.901,0,-120,1,0.25,2,9,0.0,0.0,10,45.0,30.0,9,0.526,1.0,98.741,0.15,1,2020-03-05 08:52:12.000,57,2020-03-05 08:53:49.901,0.25,-90,-120,0,30,1
16494,9,0,102.192,0,-120,1,0.25,2,9,0.0,0.0,10,45.0,30.0,9,0.501,1.0,102.578,0.15,1,2020-03-05 08:52:12.000,57,2020-03-05 08:53:54.192,0.25,-90,-120,0,30,1
16495,10,0,106.052,0,-120,1,0.25,2,3,0.0,0.0,4,45.0,30.0,3,0.5760000000000001,0.0,106.366,0.15,1,2020-03-05 08:52:12.000,57,2020-03-05 08:53:58.052,0.25,90,60,-180,-150,1
16496,11,0,109.799,0,-120,1,0.25,2,3,0.0,0.0,4,45.0,30.0,3,0.601,1.0,110.498,0.0,0,2020-03-05 08:52:12.000,57,2020-03-05 08:54:01.799,0.25,-90,60,-180,30,1
16497,13,0,120.431,0,-120,1,0.25,2,9,0.0,0.0,10,45.0,30.0,9,0.501,0.0,121.064,0.0,0,2020-03-05 08:52:12.000,57,2020-03-05 08:54:12.431,0.25,90,-120,0,-150,1
16498,15,0,130.69799999999998,0,-120,1,0.25,2,3,0.0,0.0,4,45.0,30.0,3,0.526,1.0,131.38,0.0,0,2020-03-05 08:52:12.000,57,2020-03-05 08:54:22.698,0.25,-90,60,-180,30,1
16653,1,0,17.053,0,90,1,0.25,2,3,0.0,0.0,9,45.0,30.0,3,0.501,0.0,17.817,0.15,1,2020-03-05 15:08:21.000,114,2020-03-05 15:08:38.053,0.25,90,-90,-180,0,1
16654,2,0,24.767,1,90,1,0.25,2,9,0.0,0.0,3,45.0,30.0,9,0.5760000000000001,0.0,26.092,0.0,0,2020-03-05 15:08:21.000,114,2020-03-05 15:08:45.767,0.25,90,90,0,0,1
16655,5,0,41.581,0,90,1,0.25,2,3,0.0,0.0,9,45.0,30.0,3,0.601,0.0,42.34,0.15,1,2020-03-05 15:08:21.000,114,2020-03-05 15:09:02.581,0.25,90,-90,-180,0,1
16656,6,0,46.937,0,90,1,0.25,2,3,0.0,0.0,9,45.0,30.0,3,0.5760000000000001,0.0,47.302,0.15,1,2020-03-05 15:08:21.000,114,2020-03-05 15:09:07.937,0.25,90,-90,-180,0,1
16657,7,0,53.643,0,90,1,0.25,2,9,0.0,0.0,3,45.0,30.0,9,0.601,0.0,53.878,0.0,0,2020-03-05 15:08:21.000,114,2020-03-05 15:09:14.643,0.25,90,90,0,0,1
16658,9,0,63.224,0,90,1,0.25,2,3,0.0,0.0,9,45.0,30.0,3,0.551,0.0,64.327,0.15,1,2020-03-05 15:08:21.000,114,2020-03-05 15:09:24.224,0.25,90,-90,-180,0,1
16659,10,0,70.619,1,90,1,0.25,2,3,0.0,0.0,9,45.0,30.0,3,0.526,0.0,73.13600000000002,0.15,1,2020-03-05 15:08:21.000,114,2020-03-05 15:09:31.619,0.25,90,-90,-180,0,1
16660,11,0,77.329,0,90,1,0.25,2,9,0.0,0.0,3,45.0,30.0,9,0.601,0.0,79.032,0.0,0,2020-03-05 15:08:21.000,114,2020-03-05 15:09:38.329,0.25,90,90,0,0,1
16661,13,0,87.447,0,90,1,0.25,2,9,0.0,0.0,3,45.0,30.0,9,0.526,1.0,87.795,0.15,1,2020-03-05 15:08:21.000,114,2020-03-05 15:09:48.447,0.25,-90,90,0,-180,1
16662,14,0,91.218,0,90,1,0.25,2,9,0.0,0.0,3,45.0,30.0,9,0.551,1.0,91.598,0.15,1,2020-03-05 15:08:21.000,114,2020-03-05 15:09:52.218,0.25,-90,90,0,-180,1
16824,1,0,45.428,0,150,1,0.25,2,9,0.0,0.0,1,45.0,30.0,9,0.551,1.0,45.887,0.15,1,2020-03-06 08:39:27.000,221,2020-03-06 08:40:12.428,0.25,-90,150,0,120,1
16825,2,0,52.025,0,150,1,0.25,2,9,0.0,0.0,1,45.0,30.0,9,0.601,1.0,52.661,0.15,1,2020-03-06 08:39:27.000,221,2020-03-06 08:40:19.025,0.25,-90,150,0,120,1
16826,3,0,56.357,0,150,1,0.25,2,3,0.0,0.0,7,45.0,30.0,3,0.501,1.0,56.9,0.0,0,2020-03-06 08:39:27.000,221,2020-03-06 08:40:23.357,0.25,-90,-30,-180,120,1
16827,5,0,73.82,1,150,1,0.25,2,3,0.0,0.0,7,45.0,30.0,3,0.5760000000000001,0.0,76.125,0.15,1,2020-03-06 08:39:27.000,221,2020-03-06 08:40:40.820,0.25,90,-30,-180,-60,1
16828,6,0,84.133,0,150,1,0.25,2,9,0.0,0.0,1,45.0,30.0,9,0.601,0.0,85.01,0.0,0,2020-03-06 08:39:27.000,221,2020-03-06 08:40:51.133,0.25,90,150,0,-60,1
16829,9,0,99.026,0,150,1,0.25,2,9,0.0,0.0,1,45.0,30.0,9,0.501,1.0,99.441,0.15,1,2020-03-06 08:39:27.000,221,2020-03-06 08:41:06.026,0.25,-90,150,0,120,1
16830,10,0,105.107,0,150,1,0.25,2,3,0.0,0.0,7,45.0,30.0,3,0.5760000000000001,1.0,105.777,0.0,0,2020-03-06 08:39:27.000,221,2020-03-06 08:41:12.107,0.25,-90,-30,-180,120,1
16831,12,0,115.546,0,150,1,0.25,2,3,0.0,0.0,7,45.0,30.0,3,0.5760000000000001,0.0,116.035,0.15,1,2020-03-06 08:39:27.000,221,2020-03-06 08:41:22.546,0.25,90,-30,-180,-60,1
16832,13,0,119.574,0,150,1,0.25,2,9,0.0,0.0,1,45.0,30.0,9,0.501,1.0,120.0,0.15,1,2020-03-06 08:39:27.000,221,2020-03-06 08:41:26.574,0.25,-90,150,0,120,1
16833,14,0,123.964,0,150,1,0.25,2,3,0.0,0.0,7,45.0,30.0,3,0.551,0.0,124.416,0.15,1,2020-03-06 08:39:27.000,221,2020-03-06 08:41:30.964,0.25,90,-30,-180,-60,1
