Trial	CorrectionTrial	StartTime	CenterReward	CenterSpoutRotation	nStimReps	Duration	Modality	LED_Location	LED_trial_V	LED_bgnd_V	Speaker_Location	Speaker_trial_V	Speaker_bgnd_V	TargetSpout	HoldTime	Response	RespTime	ValveTime	Correct	CenterPixelVal	
1	0	101.782	0	60	1	0.250	2	3	0.0	1.0	12	45.0	20.000	3	0.601	3	102.932	0.120	1	255	
2	0	114.811	0	60	1	0.250	2	9	0.0	1.0	6	45.0	20.000	9	0.488	9	117.231	0.130	1	255	
3	0	122.796	0	60	1	0.250	2	9	0.0	1.0	6	45.0	20.000	9	0.526	9	124.727	0.130	1	255	
4	0	138.117	1	60	1	0.250	2	9	0.0	1.0	6	45.0	20.000	9	0.451	3	145.369	0.000	0	255	
5	1	151.427	0	60	1	0.250	2	9	0.0	1.0	6	45.0	20.000	9	0.451	9	153.248	0.130	1	255	
6	0	169.278	0	60	1	0.250	2	9	0.0	1.0	6	45.0	20.000	9	0.564	9	171.042	0.130	1	255	
7	0	181.733	0	60	1	0.250	2	3	0.0	1.0	12	45.0	20.000	3	0.488	3	183.693	0.120	1	255	
8	0	187.565	0	60	1	0.250	2	3	0.0	1.0	12	45.0	20.000	3	0.451	3	189.287	0.120	1	255	
9	0	193.343	0	60	1	0.250	2	3	0.0	1.0	12	45.0	20.000	3	0.601	3	195.332	0.120	1	255	
10	0	199.220	0	60	1	0.250	2	9	0.0	1.0	6	45.0	20.000	9	0.564	9	201.160	0.130	1	255	
11	0	209.254	0	60	1	0.250	2	3	0.0	1.0	12	45.0	20.000	3	0.526	3	211.270	0.120	1	255	
12	0	215.517	0	60	1	0.250	2	9	0.0	1.0	6	45.0	20.000	9	0.488	9	217.770	0.130	1	255	
13	0	264.924	1	60	1	0.250	2	3	0.0	1.0	12	45.0	20.000	3	0.564	3	272.158	0.120	1	255	
14	0	278.021	0	60	1	0.250	2	3	0.0	1.0	12	45.0	20.000	3	0.526	3	281.361	0.120	1	255	
15	0	285.133	0	60	1	0.250	2	3	0.0	1.0	12	45.0	20.000	3	0.601	3	286.938	0.120	1	255	
16	0	291.421	0	60	1	0.250	2	3	0.0	1.0	12	45.0	20.000	3	0.451	3	293.894	0.120	1	255	
17	0	297.732	0	60	1	0.250	2	9	0.0	1.0	6	45.0	20.000	9	0.564	9	299.630	0.130	1	255	
18	0	306.060	0	60	1	0.250	2	9	0.0	1.0	6	45.0	20.000	9	0.601	3	308.510	0.000	0	255	
19	1	315.258	0	60	1	0.250	2	9	0.0	1.0	6	45.0	20.000	9	0.601	9	317.046	0.130	1	255	
20	0	331.437	0	60	1	0.250	2	9	0.0	1.0	6	45.0	20.000	9	0.451	9	333.444	0.135	1	255	
21	0	344.126	0	60	1	0.250	2	3	0.0	1.0	12	45.0	20.000	3	0.526	9	346.738	0.000	0	255	
22	1	357.490	0	60	1	0.250	2	3	0.0	1.0	12	45.0	20.000	3	0.526	3	359.097	0.120	1	255	
23	0	362.876	0	60	1	0.250	2	9	0.0	1.0	6	45.0	20.000	9	0.488	9	367.800	0.135	1	255	
24	0	381.508	0	60	1	0.250	2	3	0.0	1.0	12	45.0	20.000	3	0.488	3	383.247	0.120	1	255	
25	0	386.711	0	60	1	0.250	2	9	0.0	1.0	4	45.0	20.000	9	0.451	3	389.706	0.000	0	255	
26	0	393.436	0	60	1	0.250	2	3	0.0	1.0	12	45.0	20.000	3	0.601	3	395.314	0.120	1	255	
27	0	398.789	0	60	1	0.250	2	3	0.0	1.0	12	45.0	20.000	3	0.526	3	401.073	0.120	1	255	
28	0	404.918	0	60	1	0.250	2	3	0.0	1.0	12	45.0	20.000	3	0.564	3	406.830	0.120	1	255	
29	0	421.328	0	60	1	0.250	2	9	0.0	1.0	6	45.0	20.000	9	0.488	9	423.325	0.135	1	255	
30	0	431.276	0	60	1	0.250	2	9	0.0	1.0	5	45.0	20.000	9	0.451	9	433.006	0.135	1	255	
31	0	442.273	0	60	1	0.250	2	3	0.0	1.0	12	45.0	20.000	3	0.564	3	443.902	0.120	1	255	
32	0	447.071	0	60	1	0.250	2	9	0.0	1.0	7	45.0	20.000	9	0.526	9	448.716	0.135	1	255	
33	0	478.785	0	60	1	0.250	2	3	0.0	1.0	12	45.0	20.000	3	0.601	3	481.079	0.120	1	255	
34	0	490.498	0	60	1	0.250	2	9	0.0	1.0	6	45.0	20.000	9	0.488	9	492.224	0.135	1	255	
35	0	499.358	0	60	1	0.250	2	3	0.0	1.0	7	45.0	20.000	3	0.451	9	501.031	0.000	0	255	
36	0	538.003	0	60	1	0.250	2	9	0.0	1.0	6	45.0	20.000	9	0.526	3	540.772	0.000	0	255	
37	1	554.224	0	60	1	0.250	2	9	0.0	1.0	6	45.0	20.000	9	0.526	9	555.587	0.135	1	255	
38	0	563.636	0	60	1	0.250	2	9	0.0	1.0	6	45.0	20.000	9	0.601	9	565.355	0.135	1	255	
39	0	614.656	0	60	1	0.250	2	9	0.0	1.0	6	45.0	20.000	9	0.564	9	616.973	0.135	1	255	
40	0	626.307	0	60	1	0.250	2	3	0.0	1.0	12	45.0	20.000	3	0.601	9	628.456	0.000	0	255	
41	1	671.594	0	60	1	0.250	2	3	0.0	1.0	12	45.0	20.000	3	0.601	3	673.847	0.120	1	255	
42	0	686.664	0	60	1	0.250	2	3	0.0	1.0	12	45.0	20.000	3	0.526	9	688.213	0.000	0	255	
43	1	701.791	0	60	1	0.250	2	3	0.0	1.0	12	45.0	20.000	3	0.526	3	704.967	0.120	1	255	
44	0	709.162	0	60	1	0.250	2	9	0.0	1.0	6	45.0	20.000	9	0.488	9	710.836	0.135	1	255	
45	0	737.104	0	60	1	0.250	2	3	0.0	1.0	12	45.0	20.000	3	0.451	3	738.864	0.120	1	255	
46	0	742.310	0	60	1	0.250	2	9	0.0	1.0	6	45.0	20.000	9	0.564	9	743.727	0.135	1	255	
47	0	750.737	0	60	1	0.250	2	9	0.0	1.0	6	45.0	20.000	9	0.601	9	752.293	0.135	1	255	
48	0	762.192	0	60	1	0.250	2	9	0.0	1.0	6	45.0	20.000	9	0.451	9	763.229	0.135	1	255	
49	0	771.083	0	60	1	0.250	2	3	0.0	1.0	12	45.0	20.000	3	0.488	3	772.868	0.120	1	255	
50	0	776.272	0	60	1	0.250	2	9	0.0	1.0	6	45.0	20.000	9	0.526	9	777.645	0.135	1	255	
51	0	805.570	0	60	1	0.250	2	9	0.0	1.0	6	45.0	20.000	9	0.564	9	808.599	0.135	1	255	
52	0	825.161	0	60	1	0.250	2	3	0.0	1.0	12	45.0	20.000	3	0.526	3	828.418	0.120	1	255	
53	0	832.302	0	60	1	0.250	2	3	0.0	1.0	12	45.0	20.000	3	0.601	3	834.421	0.120	1	255	
54	0	846.138	0	60	1	0.250	2	9	0.0	1.0	6	45.0	20.000	9	0.451	9	847.823	0.135	1	255	
55	0	858.499	0	60	1	0.250	2	3	0.0	1.0	1	45.0	20.000	3	0.488	9	860.927	0.000	0	255	
56	0	886.100	0	60	1	0.250	2	3	0.0	1.0	12	45.0	20.000	3	0.564	9	888.450	0.000	0	255	
57	1	895.137	0	60	1	0.250	2	3	0.0	1.0	12	45.0	20.000	3	0.564	3	897.301	0.120	1	255	
58	0	901.238	0	60	1	0.250	2	3	0.0	1.0	12	45.0	20.000	3	0.564	3	903.481	0.120	1	255	
59	0	907.209	0	60	1	0.250	2	3	0.0	1.0	11	45.0	20.000	3	0.488	3	909.615	0.120	1	255	
60	0	928.372	0	60	1	0.250	2	9	0.0	1.0	4	45.0	20.000	9	0.451	9	929.789	0.135	1	255	
61	0	938.498	0	60	1	0.250	2	3	0.0	1.0	12	45.0	20.000	3	0.526	9	940.232	0.000	0	255	
