Trial	CorrectionTrial	StartTime	CenterReward	CenterSpoutRotation	nStimReps	Duration	Modality	LED_Location	LED_trial_V	LED_bgnd_V	Speaker_Location	Speaker_trial_V	Speaker_bgnd_V	TargetSpout	HoldTime	Response	RespTime	ValveTime	Correct	CenterPixelVal	
1	0	52.573	0	-30	1	0.250	2	9	0.0	0.0	11	48.0	30.000	9	0.501	9	54.441	0.180	1	255	
2	0	73.345	1	-30	1	0.250	2	9	0.0	0.0	11	48.0	30.000	9	0.476	9	82.198	0.180	1	255	
3	0	117.720	0	-30	1	0.250	2	9	0.0	0.0	11	48.0	30.000	9	0.551	9	119.461	0.180	1	255	
4	0	139.626	0	-30	1	0.250	2	9	0.0	0.0	11	48.0	30.000	9	0.526	3	142.909	0.000	0	255	
5	1	149.327	0	-30	1	0.250	2	9	0.0	0.0	11	48.0	30.000	9	0.526	3	151.231	0.000	0	255	
6	1	155.651	0	-30	1	0.250	2	9	0.0	0.0	11	48.0	30.000	9	0.526	9	157.056	0.180	1	255	
7	0	176.005	0	-30	1	0.250	2	9	0.0	0.0	11	48.0	30.000	9	0.451	9	178.459	0.180	1	255	
8	0	201.670	0	-30	1	0.250	2	3	0.0	0.0	5	48.0	30.000	3	0.451	3	204.361	0.120	1	255	
9	0	210.073	0	-30	1	0.250	2	9	0.0	0.0	11	48.0	30.000	9	0.476	9	212.951	0.180	1	255	
10	0	229.536	0	-30	1	0.250	2	9	0.0	0.0	11	48.0	30.000	9	0.526	9	231.051	0.180	1	255	
11	0	248.621	0	-30	1	0.250	2	9	0.0	0.0	11	48.0	30.000	9	0.551	9	250.306	0.180	1	255	
12	0	268.258	0	-30	1	0.250	2	3	0.0	0.0	5	48.0	30.000	3	0.501	3	270.341	0.120	1	255	
13	0	293.516	0	-30	1	0.250	2	3	0.0	0.0	5	48.0	30.000	3	0.451	9	296.815	0.000	0	255	
14	1	301.886	0	-30	1	0.250	2	3	0.0	0.0	5	48.0	30.000	3	0.451	3	303.826	0.120	1	255	
15	0	309.332	0	-30	1	0.250	2	3	0.0	0.0	5	48.0	30.000	3	0.476	3	311.662	0.120	1	255	
16	0	318.328	0	-30	1	0.250	2	3	0.0	0.0	5	48.0	30.000	3	0.501	3	320.050	0.120	1	255	
17	0	326.310	0	-30	1	0.250	2	3	0.0	0.0	5	48.0	30.000	3	0.551	9	328.887	0.000	0	255	
18	1	333.695	1	-30	1	0.250	2	3	0.0	0.0	5	48.0	30.000	3	0.551	3	342.107	0.120	1	255	
19	0	347.446	0	-30	1	0.250	2	3	0.0	0.0	5	48.0	30.000	3	0.526	3	350.156	0.120	1	255	
20	0	357.172	0	-30	1	0.250	2	9	0.0	0.0	11	48.0	30.000	9	0.476	9	359.830	0.180	1	255	
21	0	384.819	0	-30	1	0.250	2	3	0.0	0.0	5	48.0	30.000	3	0.526	3	387.357	0.125	1	255	
22	0	394.373	1	-30	1	0.250	2	3	0.0	0.0	5	48.0	30.000	3	0.451	3	403.130	0.125	1	255	
23	0	408.599	0	-30	1	0.250	2	3	0.0	0.0	5	48.0	30.000	3	0.501	3	410.748	0.125	1	255	
24	0	418.893	0	-30	1	0.250	2	9	0.0	0.0	11	48.0	30.000	9	0.551	3	421.619	0.000	0	255	
25	1	442.688	0	-30	1	0.250	2	9	0.0	0.0	11	48.0	30.000	9	0.551	9	444.602	0.180	1	255	
26	0	461.130	0	-30	1	0.250	2	9	0.0	0.0	11	48.0	30.000	9	0.551	9	462.976	0.180	1	255	
27	0	482.635	0	-30	1	0.250	2	9	0.0	0.0	11	48.0	30.000	9	0.476	9	485.172	0.180	1	255	
28	0	501.831	0	-30	1	0.250	2	9	0.0	0.0	11	48.0	30.000	9	0.526	9	503.847	0.180	1	255	
29	0	522.523	0	-30	1	0.250	2	9	0.0	0.0	11	48.0	30.000	9	0.451	9	524.387	0.180	1	255	
30	0	544.125	0	-30	1	0.250	2	9	0.0	0.0	11	48.0	30.000	9	0.501	9	546.389	0.180	1	255	
31	0	564.853	0	-30	1	0.250	2	3	0.0	0.0	5	48.0	30.000	3	0.476	3	566.924	0.125	1	255	
32	0	572.887	0	-30	1	0.250	2	9	0.0	0.0	11	48.0	30.000	9	0.501	3	574.632	0.000	0	255	
33	1	579.453	0	-30	1	0.250	2	9	0.0	0.0	11	48.0	30.000	9	0.501	9	581.059	0.180	1	255	
34	0	598.147	0	-30	1	0.250	2	9	0.0	0.0	11	48.0	30.000	9	0.551	9	599.933	0.180	1	255	
35	0	618.057	0	-30	1	0.250	2	9	0.0	0.0	11	48.0	30.000	9	0.526	9	621.278	0.180	1	255	
36	0	636.754	0	-30	1	0.250	2	9	0.0	0.0	11	48.0	30.000	9	0.451	9	639.009	0.180	1	255	
37	0	666.920	0	-30	1	0.250	2	3	0.0	0.0	5	48.0	30.000	3	0.551	3	669.014	0.125	1	255	
38	0	690.573	1	-30	1	0.250	2	3	0.0	0.0	5	48.0	30.000	3	0.526	3	699.123	0.125	1	255	
39	0	706.753	1	-30	1	0.250	2	3	0.0	0.0	5	48.0	30.000	3	0.476	9	715.138	0.000	0	255	
40	1	722.051	1	-30	1	0.250	2	3	0.0	0.0	5	48.0	30.000	3	0.476	9	730.172	0.000	0	255	
41	1	735.587	0	-30	1	0.250	2	3	0.0	0.0	5	48.0	30.000	3	0.476	3	739.268	0.125	1	255	
42	0	743.670	0	-30	1	0.250	2	3	0.0	0.0	5	48.0	30.000	3	0.451	3	747.183	0.125	1	255	
43	0	754.036	0	-30	1	0.250	2	3	0.0	0.0	5	48.0	30.000	3	0.501	3	756.070	0.125	1	255	
44	0	760.443	0	-30	1	0.250	2	9	0.0	0.0	11	48.0	30.000	9	0.451	9	763.073	0.180	1	255	
45	0	780.528	0	-30	1	0.250	2	3	0.0	0.0	5	48.0	30.000	3	0.526	9	782.711	0.000	0	255	
46	1	790.909	0	-30	1	0.250	2	3	0.0	0.0	5	48.0	30.000	3	0.526	3	793.622	0.125	1	255	
47	0	799.378	0	-30	1	0.250	2	3	0.0	0.0	5	48.0	30.000	3	0.501	3	801.879	0.125	1	255	
48	0	807.540	0	-30	1	0.250	2	3	0.0	0.0	5	48.0	30.000	3	0.476	3	810.901	0.125	1	255	
49	0	816.600	0	-30	1	0.250	2	3	0.0	0.0	5	48.0	30.000	3	0.551	9	825.959	0.000	0	255	
50	1	832.608	0	-30	1	0.250	2	3	0.0	0.0	5	48.0	30.000	3	0.551	3	834.186	0.125	1	255	
51	0	839.300	0	-30	1	0.250	2	3	0.0	0.0	5	48.0	30.000	3	0.526	3	841.393	0.125	1	255	
52	0	849.100	0	-30	1	0.250	2	9	0.0	0.0	11	48.0	30.000	9	0.501	3	851.773	0.000	0	255	
53	1	872.862	0	-30	1	0.250	2	9	0.0	0.0	11	48.0	30.000	9	0.501	9	875.059	0.180	1	255	
54	0	897.354	0	-30	1	0.250	2	3	0.0	0.0	5	48.0	30.000	3	0.451	3	899.742	0.130	1	255	
55	0	905.274	0	-30	1	0.250	2	3	0.0	0.0	5	48.0	30.000	3	0.551	3	906.994	0.130	1	255	
56	0	915.177	0	-30	1	0.250	2	3	0.0	0.0	5	48.0	30.000	3	0.476	3	917.807	0.130	1	255	
57	0	925.180	0	-30	1	0.250	2	3	0.0	0.0	5	48.0	30.000	3	0.451	3	927.262	0.130	1	255	
58	0	935.992	0	-30	1	0.250	2	9	0.0	0.0	11	48.0	30.000	9	0.476	9	938.390	0.180	1	255	
59	0	958.263	0	-30	1	0.250	2	9	0.0	0.0	11	48.0	30.000	9	0.551	9	960.121	0.180	1	255	
60	0	978.104	0	-30	1	0.250	2	3	0.0	0.0	5	48.0	30.000	3	0.501	3	980.389	0.130	1	255	
61	0	986.635	0	-30	1	0.250	2	9	0.0	0.0	11	48.0	30.000	9	0.526	3	992.837	0.000	0	255	
62	1	1028.761	0	-30	1	0.250	2	9	0.0	0.0	11	48.0	30.000	9	0.526	9	1039.112	0.180	1	255	
63	0	1059.200	0	-30	1	0.250	2	9	0.0	0.0	11	48.0	30.000	9	0.551	9	1062.000	0.180	1	255	
64	0	1078.843	1	-30	1	0.250	2	3	0.0	0.0	5	48.0	30.000	3	0.451	9	1088.784	0.000	0	255	
65	1	1092.487	0	-30	1	0.250	2	3	0.0	0.0	5	48.0	30.000	3	0.451	3	1095.737	0.130	1	255	
66	0	1100.150	0	-30	1	0.250	2	9	0.0	0.0	11	48.0	30.000	9	0.501	3	1102.102	0.000	0	255	
67	1	1109.974	1	-30	1	0.250	2	9	0.0	0.0	11	48.0	30.000	9	0.501	9	1116.861	0.180	1	255	
68	0	1139.067	0	-30	1	0.250	2	9	0.0	0.0	11	48.0	30.000	9	0.526	9	1141.981	0.180	1	255	
69	0	1162.803	1	-30	1	0.250	2	9	0.0	0.0	11	48.0	30.000	9	0.476	9	1173.240	0.180	1	255	
70	0	1196.163	0	-30	1	0.250	2	9	0.0	0.0	11	48.0	30.000	9	0.551	9	1197.667	0.180	1	255	
71	0	1225.178	0	-30	1	0.250	2	3	0.0	0.0	5	48.0	30.000	3	0.451	9	1229.888	0.000	0	255	
72	1	1235.215	0	-30	1	0.250	2	3	0.0	0.0	5	48.0	30.000	3	0.451	3	1237.303	0.130	1	255	
73	0	1242.838	0	-30	1	0.250	2	3	0.0	0.0	5	48.0	30.000	3	0.501	3	1245.285	0.130	1	255	
74	0	1250.404	0	-30	1	0.250	2	9	0.0	0.0	11	48.0	30.000	9	0.526	3	1252.281	0.000	0	255	
75	1	1263.446	0	-30	1	0.250	2	9	0.0	0.0	11	48.0	30.000	9	0.526	9	1265.220	0.180	1	255	
76	0	1275.562	0	-30	1	0.250	2	3	0.0	0.0	5	48.0	30.000	3	0.476	3	1279.249	0.130	1	255	
77	0	1285.482	0	-30	1	0.250	2	9	0.0	0.0	11	48.0	30.000	9	0.551	3	1287.634	0.000	0	255	
78	1	1295.776	0	-30	1	0.250	2	9	0.0	0.0	11	48.0	30.000	9	0.551	3	1298.198	0.000	0	255	
79	1	1303.206	0	-30	1	0.250	2	9	0.0	0.0	11	48.0	30.000	9	0.551	9	1305.201	0.180	1	255	
80	0	1328.160	0	-30	1	0.250	2	3	0.0	0.0	5	48.0	30.000	3	0.501	3	1330.165	0.130	1	255	
81	0	1334.581	1	-30	1	0.250	2	3	0.0	0.0	5	48.0	30.000	3	0.451	3	1342.721	0.130	1	255	
82	0	1351.163	0	-30	1	0.250	2	3	0.0	0.0	5	48.0	30.000	3	0.526	9	1353.813	0.000	0	255	
83	1	1358.902	0	-30	1	0.250	2	3	0.0	0.0	5	48.0	30.000	3	0.526	3	1360.736	0.130	1	255	
84	0	1365.149	0	-30	1	0.250	2	3	0.0	0.0	5	48.0	30.000	3	0.476	3	1368.644	0.130	1	255	
85	0	1374.719	0	-30	1	0.250	2	3	0.0	0.0	5	48.0	30.000	3	0.451	3	1378.495	0.130	1	255	
86	0	1385.695	0	-30	1	0.250	2	3	0.0	0.0	5	48.0	30.000	3	0.551	3	1387.577	0.130	1	255	
87	0	1407.749	0	-30	1	0.250	2	9	0.0	0.0	11	48.0	30.000	9	0.476	9	1416.396	0.180	1	255	
88	0	1433.252	0	-30	1	0.250	2	3	0.0	0.0	5	48.0	30.000	3	0.501	3	1435.767	0.130	1	255	
89	0	1442.489	0	-30	1	0.250	2	3	0.0	0.0	5	48.0	30.000	3	0.526	3	1445.212	0.130	1	255	
90	0	1450.048	0	-30	1	0.250	2	3	0.0	0.0	5	48.0	30.000	3	0.551	9	1452.959	0.000	0	255	
91	1	1480.685	0	-30	1	0.250	2	3	0.0	0.0	5	48.0	30.000	3	0.551	9	1485.023	0.000	0	255	
92	1	1489.944	0	-30	1	0.250	2	3	0.0	0.0	5	48.0	30.000	3	0.551	3	1491.527	0.130	1	255	
93	0	1497.673	0	-30	1	0.250	2	9	0.0	0.0	11	48.0	30.000	9	0.526	3	1500.770	0.000	0	255	
94	1	1509.236	0	-30	1	0.250	2	9	0.0	0.0	11	48.0	30.000	9	0.526	9	1511.142	0.180	1	255	
95	0	1529.816	0	-30	1	0.250	2	9	0.0	0.0	11	48.0	30.000	9	0.476	9	1531.859	0.180	1	255	
96	0	1553.271	0	-30	1	0.250	2	9	0.0	0.0	11	48.0	30.000	9	0.501	9	1555.267	0.180	1	255	
97	0	1573.324	1	-30	1	0.250	2	9	0.0	0.0	11	48.0	30.000	9	0.451	3	1582.354	0.000	0	255	
98	1	1587.025	0	-30	1	0.250	2	9	0.0	0.0	11	48.0	30.000	9	0.451	9	1590.251	0.180	1	255	
99	0	1608.454	0	-30	1	0.250	2	9	0.0	0.0	11	48.0	30.000	9	0.551	9	1610.577	0.180	1	255	
100	0	1628.618	0	-30	1	0.250	2	9	0.0	0.0	11	48.0	30.000	9	0.476	9	1633.005	0.180	1	255	
101	0	1651.923	0	-30	1	0.250	2	3	0.0	0.0	5	48.0	30.000	3	0.451	3	1654.211	0.125	1	255	
102	0	1658.665	0	-30	1	0.250	2	9	0.0	0.0	11	48.0	30.000	9	0.526	9	1661.332	0.180	1	255	
103	0	1691.009	0	-30	1	0.250	2	9	0.0	0.0	11	48.0	30.000	9	0.501	9	1693.137	0.180	1	255	
104	0	1718.083	0	-30	1	0.250	2	3	0.0	0.0	5	48.0	30.000	3	0.451	3	1719.963	0.125	1	255	
105	0	1725.726	0	-30	1	0.250	2	3	0.0	0.0	5	48.0	30.000	3	0.476	3	1727.606	0.125	1	255	
