Trial	CorrectionTrial	StartTime	CenterReward	CenterSpoutRotation	nStimReps	Duration	Modality	LED Location	LED_trial_V	LED_bgnd_V	Speaker Location	Speaker_trial_V	Speaker_bgnd_V	TargetSpout	HoldTime	Response	RespTime	ValveTime	Correct	
1	0	110.053	0	0	1	0.250	2	9	0.0	1.0	6	45.0	30.000	9	0.451	3	112.039	0.000	0	
2	1	116.696	0	0	1	0.250	2	9	0.0	1.0	6	45.0	30.000	9	0.301	9	118.813	0.250	1	
3	0	129.814	1	0	1	0.250	2	9	0.0	1.0	6	45.0	30.000	9	0.501	9	131.158	0.250	1	
4	0	142.225	1	0	1	0.250	2	3	0.0	1.0	12	45.0	30.000	3	0.401	9	144.777	0.000	0	
5	1	150.668	1	0	1	0.250	2	3	0.0	1.0	12	45.0	30.000	3	0.351	3	153.496	0.150	1	
6	0	159.206	1	0	1	0.250	2	9	0.0	1.0	6	45.0	30.000	9	0.351	9	161.071	0.250	1	
7	0	171.424	1	0	1	0.250	2	9	0.0	1.0	6	45.0	30.000	9	0.501	9	173.857	0.250	1	
8	0	184.497	1	0	1	0.250	2	3	0.0	1.0	12	45.0	30.000	3	0.401	9	186.316	0.000	0	
9	1	193.117	1	0	1	0.250	2	3	0.0	1.0	12	45.0	30.000	3	0.451	3	197.342	0.150	1	
10	0	206.934	1	0	1	0.250	2	3	0.0	1.0	12	45.0	30.000	3	0.301	3	208.288	0.150	1	
11	0	214.144	1	0	1	0.250	2	9	0.0	1.0	6	45.0	30.000	9	0.501	9	215.998	0.250	1	
12	0	225.250	1	0	1	0.250	2	3	0.0	1.0	12	45.0	30.000	3	0.451	3	226.578	0.150	1	
13	0	232.134	1	0	1	0.250	2	9	0.0	1.0	6	45.0	30.000	9	0.301	9	233.678	0.250	1	
14	0	243.772	1	0	1	0.250	2	3	0.0	1.0	12	45.0	30.000	3	0.401	9	245.023	0.000	0	
15	1	251.926	1	0	1	0.250	2	3	0.0	1.0	12	45.0	30.000	3	0.351	9	253.637	0.000	0	
16	1	258.972	1	0	1	0.250	2	3	0.0	1.0	12	45.0	30.000	3	0.401	3	260.920	0.150	1	
17	0	267.377	1	0	1	0.250	2	3	0.0	1.0	12	45.0	30.000	3	0.451	3	268.382	0.150	1	
18	0	274.094	1	0	1	0.250	2	9	0.0	1.0	6	45.0	30.000	9	0.501	3	276.140	0.000	0	
19	1	279.851	1	0	1	0.250	2	9	0.0	1.0	6	45.0	30.000	9	0.351	9	281.801	0.250	1	
20	0	290.189	1	0	1	0.250	2	3	0.0	1.0	12	45.0	30.000	3	0.301	9	291.707	0.000	0	
21	1	296.269	1	0	1	0.250	2	3	0.0	1.0	12	45.0	30.000	3	0.401	3	297.883	0.150	1	
22	0	312.334	1	0	1	0.250	2	3	0.0	1.0	12	45.0	30.000	3	0.501	3	313.282	0.150	1	
23	0	320.077	1	0	1	0.250	2	9	0.0	1.0	6	45.0	30.000	9	0.351	3	321.812	0.000	0	
24	1	324.651	1	0	1	0.250	2	9	0.0	1.0	6	45.0	30.000	9	0.301	3	327.070	0.000	0	
25	1	329.684	1	0	1	0.250	2	9	0.0	1.0	6	45.0	30.000	9	0.451	3	330.921	0.000	0	
26	1	333.339	1	0	1	0.250	2	9	0.0	1.0	6	45.0	30.000	9	0.351	3	338.108	0.000	0	
27	1	341.857	1	0	1	0.250	2	9	0.0	1.0	6	45.0	30.000	9	0.451	9	343.872	0.250	1	
28	0	354.694	1	0	1	0.250	2	9	0.0	1.0	6	45.0	30.000	9	0.401	9	356.195	0.250	1	
29	0	368.826	1	0	1	0.250	2	3	0.0	1.0	12	45.0	30.000	3	0.501	9	370.477	0.000	0	
30	1	375.546	1	0	1	0.250	2	3	0.0	1.0	12	45.0	30.000	3	0.301	3	378.329	0.150	1	
31	0	384.025	1	0	1	0.250	2	9	0.0	1.0	6	45.0	30.000	9	0.351	9	386.073	0.250	1	
32	0	395.742	1	0	1	0.250	2	3	0.0	1.0	12	45.0	30.000	3	0.401	9	397.105	0.000	0	
33	1	403.166	1	0	1	0.250	2	3	0.0	1.0	12	45.0	30.000	3	0.301	9	407.756	0.000	0	
34	1	412.911	1	0	1	0.250	2	3	0.0	1.0	12	45.0	30.000	3	0.501	3	416.664	0.150	1	
35	0	423.526	1	0	1	0.250	2	3	0.0	1.0	12	45.0	30.000	3	0.451	3	424.556	0.150	1	
36	0	431.371	1	0	1	0.250	2	9	0.0	1.0	6	45.0	30.000	9	0.501	9	435.388	0.250	1	
37	0	445.700	1	0	1	0.250	2	3	0.0	1.0	12	45.0	30.000	3	0.351	9	451.867	0.000	0	
38	1	458.964	1	0	1	0.250	2	3	0.0	1.0	12	45.0	30.000	3	0.301	3	461.333	0.150	1	
39	0	475.084	1	0	1	0.250	2	3	0.0	1.0	12	45.0	30.000	3	0.451	3	478.324	0.150	1	
40	0	483.815	1	0	1	0.250	2	3	0.0	1.0	12	45.0	30.000	3	0.401	3	485.530	0.150	1	
41	0	492.047	1	0	1	0.250	2	9	0.0	1.0	6	45.0	30.000	9	0.351	9	494.236	0.250	1	
42	0	504.128	1	0	1	0.250	2	3	0.0	1.0	12	45.0	30.000	3	0.401	9	506.361	0.000	0	
43	1	512.859	1	0	1	0.250	2	3	0.0	1.0	12	45.0	30.000	3	0.501	9	517.032	0.000	0	
44	1	522.531	1	0	1	0.250	2	3	0.0	1.0	12	45.0	30.000	3	0.451	3	524.768	0.150	1	
45	0	549.862	1	0	1	0.250	2	3	0.0	1.0	12	45.0	30.000	3	0.301	3	556.690	0.150	1	
46	0	562.239	1	0	1	0.250	2	9	0.0	1.0	6	45.0	30.000	9	0.351	3	563.859	0.000	0	
47	1	566.671	1	0	1	0.250	2	9	0.0	1.0	6	45.0	30.000	9	0.501	3	570.287	0.000	0	
48	1	576.888	1	0	1	0.250	2	9	0.0	1.0	6	45.0	30.000	9	0.401	9	579.537	0.250	1	
49	0	588.365	1	0	1	0.250	2	9	0.0	1.0	6	45.0	30.000	9	0.301	9	591.958	0.250	1	
50	0	604.146	1	0	1	0.250	2	9	0.0	1.0	6	45.0	30.000	9	0.451	9	605.548	0.250	1	
51	0	622.944	1	0	1	0.250	2	3	0.0	1.0	12	45.0	30.000	3	0.451	9	624.570	0.000	0	
52	1	630.023	1	0	1	0.250	2	3	0.0	1.0	12	45.0	30.000	3	0.501	3	631.787	0.150	1	
53	0	637.975	1	0	1	0.250	2	9	0.0	1.0	6	45.0	30.000	9	0.401	9	639.564	0.250	1	
54	0	649.870	1	0	1	0.250	2	9	0.0	1.0	6	45.0	30.000	9	0.301	9	651.749	0.250	1	
55	0	663.266	1	0	1	0.250	2	9	0.0	1.0	6	45.0	30.000	9	0.351	9	664.783	0.250	1	
56	0	680.723	1	0	1	0.250	2	3	0.0	1.0	12	45.0	30.000	3	0.401	9	682.136	0.000	0	
57	1	688.263	1	0	1	0.250	2	3	0.0	1.0	12	45.0	30.000	3	0.501	3	689.582	0.150	1	
58	0	704.460	1	0	1	0.250	2	9	0.0	1.0	6	45.0	30.000	9	0.351	9	707.962	0.250	1	
59	0	718.088	1	0	1	0.250	2	9	0.0	1.0	6	45.0	30.000	9	0.451	9	719.389	0.250	1	
60	0	730.462	1	0	1	0.250	2	3	0.0	1.0	12	45.0	30.000	3	0.301	9	735.277	0.000	0	
61	1	740.970	1	0	1	0.250	2	3	0.0	1.0	12	45.0	30.000	3	0.501	3	742.986	0.150	1	
62	0	758.465	1	0	1	0.250	2	3	0.0	1.0	12	45.0	30.000	3	0.301	3	763.416	0.150	1	
63	0	771.170	1	0	1	0.250	2	9	0.0	1.0	6	45.0	30.000	9	0.451	9	774.148	0.250	1	
64	0	782.514	1	0	1	0.250	2	9	0.0	1.0	6	45.0	30.000	9	0.401	9	784.544	0.250	1	
65	0	796.416	1	0	1	0.250	2	3	0.0	1.0	12	45.0	30.000	3	0.351	9	798.695	0.000	0	
66	1	803.150	1	0	1	0.250	2	3	0.0	1.0	12	45.0	30.000	3	0.501	9	807.764	0.000	0	
67	1	812.676	1	0	1	0.250	2	3	0.0	1.0	12	45.0	30.000	3	0.301	3	814.946	0.150	1	
68	0	822.154	1	0	1	0.250	2	9	0.0	1.0	6	45.0	30.000	9	0.401	9	825.128	0.250	1	
69	0	836.708	1	0	1	0.250	2	3	0.0	1.0	12	45.0	30.000	3	0.451	3	840.649	0.150	1	
70	0	846.683	1	0	1	0.250	2	9	0.0	1.0	6	45.0	30.000	9	0.351	3	848.662	0.000	0	
71	1	856.663	1	0	1	0.250	2	9	0.0	1.0	6	45.0	30.000	9	0.451	3	858.796	0.000	0	
72	1	887.426	1	0	1	0.250	2	9	0.0	1.0	6	45.0	30.000	9	0.401	3	889.649	0.000	0	
73	1	895.304	1	0	1	0.250	2	9	0.0	1.0	6	45.0	30.000	9	0.301	3	897.163	0.000	0	
74	1	900.786	1	0	1	0.250	2	9	0.0	1.0	6	45.0	30.000	9	0.351	3	903.512	0.000	0	
75	1	908.241	1	0	1	0.250	2	9	0.0	1.0	6	45.0	30.000	9	0.501	3	909.600	0.000	0	
76	1	915.601	1	0	1	0.250	2	9	0.0	1.0	6	45.0	30.000	9	0.401	9	917.270	0.250	1	
77	0	924.367	1	0	1	0.250	2	9	0.0	1.0	6	45.0	30.000	9	0.451	3	926.496	0.000	0	
78	1	929.860	1	0	1	0.250	2	9	0.0	1.0	6	45.0	30.000	9	0.301	3	931.043	0.000	0	
79	1	934.690	1	0	1	0.250	2	9	0.0	1.0	6	45.0	30.000	9	0.351	3	935.920	0.000	0	
80	1	939.202	1	0	1	0.250	2	9	0.0	1.0	6	45.0	30.000	9	0.501	3	940.449	0.000	0	
81	1	943.790	1	0	1	0.250	2	9	0.0	1.0	6	45.0	30.000	9	0.451	3	945.760	0.000	0	
82	1	950.800	1	0	1	0.250	2	9	0.0	1.0	6	45.0	30.000	9	0.301	9	952.108	0.250	1	
83	0	964.785	1	0	1	0.250	2	3	0.0	1.0	12	45.0	30.000	3	0.401	3	966.307	0.150	1	
84	0	979.931	1	0	1	0.250	2	3	0.0	1.0	12	45.0	30.000	3	0.501	3	984.466	0.150	1	
85	0	990.299	1	0	1	0.250	2	9	0.0	1.0	6	45.0	30.000	9	0.351	3	992.172	0.000	0	
86	1	994.969	1	0	1	0.250	2	9	0.0	1.0	6	45.0	30.000	9	0.501	9	997.131	0.250	1	
87	0	1006.961	1	0	1	0.250	2	3	0.0	1.0	12	45.0	30.000	3	0.451	3	1008.719	0.150	1	
88	0	1018.640	1	0	1	0.250	2	3	0.0	1.0	12	45.0	30.000	3	0.301	9	1024.989	0.000	0	
89	1	1030.571	1	0	1	0.250	2	3	0.0	1.0	12	45.0	30.000	3	0.351	9	1032.446	0.000	0	
90	1	1036.499	1	0	1	0.250	2	3	0.0	1.0	12	45.0	30.000	3	0.401	3	1038.178	0.150	1	
91	0	1043.887	1	0	1	0.250	2	9	0.0	1.0	6	45.0	30.000	9	0.301	9	1045.997	0.250	1	
92	0	1054.094	1	0	1	0.250	2	3	0.0	1.0	12	45.0	30.000	3	0.451	9	1055.610	0.000	0	
93	1	1059.575	1	0	1	0.250	2	3	0.0	1.0	12	45.0	30.000	3	0.401	3	1061.036	0.150	1	
94	0	1067.145	1	0	1	0.250	2	9	0.0	1.0	6	45.0	30.000	9	0.351	9	1069.933	0.250	1	
95	0	1080.873	1	0	1	0.250	2	3	0.0	1.0	12	45.0	30.000	3	0.501	9	1082.440	0.000	0	
96	1	1086.588	1	0	1	0.250	2	3	0.0	1.0	12	45.0	30.000	3	0.451	3	1088.020	0.150	1	
97	0	1099.088	1	0	1	0.250	2	3	0.0	1.0	12	45.0	30.000	3	0.401	3	1105.031	0.150	1	
98	0	1112.478	1	0	1	0.250	2	9	0.0	1.0	6	45.0	30.000	9	0.351	9	1115.536	0.250	1	
99	0	1130.011	1	0	1	0.250	2	9	0.0	1.0	6	45.0	30.000	9	0.301	9	1132.480	0.250	1	
100	0	1150.923	1	0	1	0.250	2	3	0.0	1.0	12	45.0	30.000	3	0.501	9	1157.607	0.000	0	
101	1	1161.960	1	0	1	0.250	2	3	0.0	1.0	12	45.0	30.000	3	0.501	3	1163.688	0.150	1	
102	0	1168.786	1	0	1	0.250	2	9	0.0	1.0	6	45.0	30.000	9	0.451	9	1171.031	0.250	1	
103	0	1178.839	1	0	1	0.250	2	9	0.0	1.0	6	45.0	30.000	9	0.351	3	1179.951	0.000	0	
104	1	1184.367	1	0	1	0.250	2	9	0.0	1.0	6	45.0	30.000	9	0.301	9	1188.269	0.250	1	
105	0	1195.529	1	0	1	0.250	2	9	0.0	1.0	6	45.0	30.000	9	0.401	9	1197.586	0.250	1	
106	0	1208.207	1	0	1	0.250	2	9	0.0	1.0	6	45.0	30.000	9	0.451	9	1210.077	0.250	1	
107	0	1216.097	1	0	1	0.250	2	3	0.0	1.0	12	45.0	30.000	3	0.501	3	1221.073	0.150	1	
108	0	1225.210	1	0	1	0.250	2	3	0.0	1.0	12	45.0	30.000	3	0.301	3	1226.473	0.150	1	
109	0	1232.837	1	0	1	0.250	2	3	0.0	1.0	12	45.0	30.000	3	0.351	3	1234.327	0.150	1	
110	0	1240.073	1	0	1	0.250	2	9	0.0	1.0	6	45.0	30.000	9	0.401	9	1243.635	0.250	1	
111	0	1251.341	1	0	1	0.250	2	9	0.0	1.0	6	45.0	30.000	9	0.451	9	1252.894	0.250	1	
112	0	1259.637	1	0	1	0.250	2	9	0.0	1.0	6	45.0	30.000	9	0.401	9	1261.382	0.250	1	
113	0	1268.995	1	0	1	0.250	2	3	0.0	1.0	12	45.0	30.000	3	0.301	9	1271.235	0.000	0	
114	1	1278.725	1	0	1	0.250	2	3	0.0	1.0	12	45.0	30.000	3	0.351	3	1282.765	0.150	1	
115	0	1288.936	1	0	1	0.250	2	3	0.0	1.0	12	45.0	30.000	3	0.501	3	1290.225	0.150	1	
116	0	1294.731	1	0	1	0.250	2	3	0.0	1.0	12	45.0	30.000	3	0.351	3	1296.018	0.150	1	
117	0	1300.370	1	0	1	0.250	2	3	0.0	1.0	12	45.0	30.000	3	0.301	9	1301.753	0.000	0	
