Trial	CorrectionTrial	StartTime	CenterReward	CenterSpoutRotation	nStimReps	Duration	Modality	LED Location	LED_trial_V	LED_bgnd_V	Speaker Location	Speaker_trial_V	Speaker_bgnd_V	TargetSpout	HoldTime	Response	RespTime	ValveTime	Correct	
1	0	29.648	0	0	1	0.250	2	9	0.0	1.0	6	45.0	30.000	9	0.351	3	31.413	0.000	0	
2	1	41.812	0	0	1	0.250	2	9	0.0	1.0	6	45.0	30.000	9	0.301	9	44.195	0.250	1	
3	0	54.126	0	0	1	0.250	2	9	0.0	1.0	6	45.0	30.000	9	0.451	9	55.943	0.250	1	
4	0	65.679	0	0	1	0.250	2	3	0.0	1.0	12	45.0	30.000	3	0.501	3	67.260	0.150	1	
5	0	73.352	0	0	1	0.250	2	3	0.0	1.0	12	45.0	30.000	3	0.401	3	74.118	0.150	1	
6	0	86.900	0	0	1	0.250	2	9	0.0	1.0	6	45.0	30.000	9	0.451	9	88.071	0.250	1	
7	0	97.033	0	0	1	0.250	2	9	0.0	1.0	6	45.0	30.000	9	0.501	9	98.219	0.250	1	
8	0	111.853	0	0	1	0.250	2	3	0.0	1.0	12	45.0	30.000	3	0.351	9	113.889	0.000	0	
9	1	120.057	0	0	1	0.250	2	3	0.0	1.0	12	45.0	30.000	3	0.301	3	121.538	0.150	1	
10	0	133.664	0	0	1	0.250	2	3	0.0	1.0	12	45.0	30.000	3	0.401	3	134.901	0.150	1	
11	0	140.556	1	0	1	0.250	2	9	0.0	1.0	6	45.0	30.000	9	0.351	9	141.895	0.250	1	
12	0	150.673	1	0	1	0.250	2	9	0.0	1.0	6	45.0	30.000	9	0.501	9	153.227	0.250	1	
13	0	162.248	1	0	1	0.250	2	3	0.0	1.0	12	45.0	30.000	3	0.301	3	164.920	0.150	1	
14	0	170.493	1	0	1	0.250	2	3	0.0	1.0	12	45.0	30.000	3	0.451	3	171.543	0.150	1	
15	0	177.001	1	0	1	0.250	2	9	0.0	1.0	6	45.0	30.000	9	0.401	3	178.611	0.000	0	
16	1	183.642	1	0	1	0.250	2	9	0.0	1.0	6	45.0	30.000	9	0.451	3	184.811	0.000	0	
17	1	190.094	1	0	1	0.250	2	9	0.0	1.0	6	45.0	30.000	9	0.401	9	192.056	0.250	1	
18	0	201.151	1	0	1	0.250	2	9	0.0	1.0	6	45.0	30.000	9	0.501	9	202.210	0.250	1	
19	0	211.550	1	0	1	0.250	2	3	0.0	1.0	12	45.0	30.000	3	0.301	9	213.028	0.000	0	
20	1	218.873	1	0	1	0.250	2	3	0.0	1.0	12	45.0	30.000	3	0.351	3	220.217	0.150	1	
21	0	229.306	1	0	1	0.250	2	3	0.0	1.0	12	45.0	30.000	3	0.351	3	230.697	0.150	1	
22	0	236.199	1	0	1	0.250	2	9	0.0	1.0	6	45.0	30.000	9	0.301	9	237.798	0.250	1	
23	0	245.901	1	0	1	0.250	2	9	0.0	1.0	6	45.0	30.000	9	0.451	9	248.967	0.250	1	
24	0	260.395	1	0	1	0.250	2	3	0.0	1.0	12	45.0	30.000	3	0.501	9	262.063	0.000	0	
25	1	268.480	1	0	1	0.250	2	3	0.0	1.0	12	45.0	30.000	3	0.401	3	270.499	0.150	1	
26	0	280.869	1	0	1	0.250	2	3	0.0	1.0	12	45.0	30.000	3	0.301	3	281.995	0.150	1	
27	0	287.939	1	0	1	0.250	2	3	0.0	1.0	12	45.0	30.000	3	0.351	3	289.257	0.150	1	
28	0	301.559	1	0	1	0.250	2	9	0.0	1.0	6	45.0	30.000	9	0.451	9	303.338	0.250	1	
29	0	310.896	1	0	1	0.250	2	9	0.0	1.0	6	45.0	30.000	9	0.401	3	312.516	0.000	0	
30	1	318.043	1	0	1	0.250	2	9	0.0	1.0	6	45.0	30.000	9	0.501	9	320.233	0.250	1	
31	0	333.774	1	0	1	0.250	2	3	0.0	1.0	12	45.0	30.000	3	0.401	9	335.280	0.000	0	
32	1	340.008	1	0	1	0.250	2	3	0.0	1.0	12	45.0	30.000	3	0.301	3	341.810	0.150	1	
33	0	358.232	1	0	1	0.250	2	3	0.0	1.0	12	45.0	30.000	3	0.451	3	359.711	0.150	1	
34	0	365.638	1	0	1	0.250	2	3	0.0	1.0	12	45.0	30.000	3	0.501	3	366.563	0.150	1	
35	0	373.812	1	0	1	0.250	2	9	0.0	1.0	6	45.0	30.000	9	0.351	3	376.123	0.000	0	
36	1	384.746	1	0	1	0.250	2	9	0.0	1.0	6	45.0	30.000	9	0.301	9	387.527	0.250	1	
37	0	397.963	1	0	1	0.250	2	9	0.0	1.0	6	45.0	30.000	9	0.451	9	399.176	0.250	1	
38	0	408.619	1	0	1	0.250	2	9	0.0	1.0	6	45.0	30.000	9	0.501	9	410.065	0.250	1	
39	0	420.692	1	0	1	0.250	2	3	0.0	1.0	12	45.0	30.000	3	0.401	9	423.020	0.000	0	
40	1	429.651	1	0	1	0.250	2	3	0.0	1.0	12	45.0	30.000	3	0.351	3	431.332	0.150	1	
41	0	437.694	1	0	1	0.250	2	9	0.0	1.0	6	45.0	30.000	9	0.401	9	439.470	0.250	1	
42	0	450.399	1	0	1	0.250	2	3	0.0	1.0	12	45.0	30.000	3	0.301	9	453.324	0.000	0	
43	1	459.690	1	0	1	0.250	2	3	0.0	1.0	12	45.0	30.000	3	0.501	3	462.398	0.150	1	
44	0	478.023	1	0	1	0.250	2	3	0.0	1.0	12	45.0	30.000	3	0.351	3	479.217	0.150	1	
45	0	485.600	1	0	1	0.250	2	9	0.0	1.0	6	45.0	30.000	9	0.451	9	486.965	0.250	1	
46	0	496.724	1	0	1	0.250	2	9	0.0	1.0	6	45.0	30.000	9	0.301	9	498.079	0.250	1	
47	0	508.418	1	0	1	0.250	2	9	0.0	1.0	6	45.0	30.000	9	0.351	9	509.832	0.250	1	
48	0	523.540	1	0	1	0.250	2	3	0.0	1.0	12	45.0	30.000	3	0.401	9	525.223	0.000	0	
49	1	531.740	1	0	1	0.250	2	3	0.0	1.0	12	45.0	30.000	3	0.451	3	533.081	0.150	1	
50	0	549.869	1	0	1	0.250	2	3	0.0	1.0	12	45.0	30.000	3	0.501	3	550.882	0.150	1	
51	0	556.760	1	0	1	0.250	2	3	0.0	1.0	12	45.0	30.000	3	0.351	3	557.820	0.150	1	
52	0	563.749	1	0	1	0.250	2	9	0.0	1.0	6	45.0	30.000	9	0.401	9	565.013	0.250	1	
53	0	575.658	1	0	1	0.250	2	3	0.0	1.0	12	45.0	30.000	3	0.451	9	577.302	0.000	0	
54	1	582.917	1	0	1	0.250	2	3	0.0	1.0	12	45.0	30.000	3	0.501	3	584.237	0.150	1	
55	0	590.108	1	0	1	0.250	2	3	0.0	1.0	12	45.0	30.000	3	0.301	9	592.031	0.000	0	
56	1	596.584	1	0	1	0.250	2	3	0.0	1.0	12	45.0	30.000	3	0.351	9	598.726	0.000	0	
57	1	602.728	1	0	1	0.250	2	3	0.0	1.0	12	45.0	30.000	3	0.501	9	606.507	0.000	0	
58	1	610.669	1	0	1	0.250	2	3	0.0	1.0	12	45.0	30.000	3	0.401	3	612.892	0.150	1	
59	0	618.570	1	0	1	0.250	2	3	0.0	1.0	12	45.0	30.000	3	0.301	3	619.913	0.150	1	
60	0	634.227	1	0	1	0.250	2	3	0.0	1.0	12	45.0	30.000	3	0.451	3	635.522	0.150	1	
61	0	640.775	1	0	1	0.250	2	3	0.0	1.0	12	45.0	30.000	3	0.501	3	642.231	0.150	1	
62	0	651.925	1	0	1	0.250	2	9	0.0	1.0	6	45.0	30.000	9	0.351	3	654.016	0.000	0	
63	1	663.551	1	0	1	0.250	2	9	0.0	1.0	6	45.0	30.000	9	0.451	9	666.052	0.250	1	
64	0	670.754	1	0	1	0.250	2	3	0.0	1.0	12	45.0	30.000	3	0.401	3	673.684	0.150	1	
65	0	678.714	1	0	1	0.250	2	3	0.0	1.0	12	45.0	30.000	3	0.301	3	680.450	0.150	1	
66	0	685.486	1	0	1	0.250	2	3	0.0	1.0	12	45.0	30.000	3	0.501	9	687.770	0.000	0	
67	1	690.471	1	0	1	0.250	2	3	0.0	1.0	12	45.0	30.000	3	0.351	3	692.118	0.150	1	
68	0	699.733	1	0	1	0.250	2	3	0.0	1.0	12	45.0	30.000	3	0.301	3	700.916	0.150	1	
69	0	711.860	1	0	1	0.250	2	9	0.0	1.0	6	45.0	30.000	9	0.401	9	717.497	0.250	1	
70	0	726.370	1	0	1	0.250	2	9	0.0	1.0	6	45.0	30.000	9	0.451	9	728.114	0.250	1	
71	0	735.561	1	0	1	0.250	2	9	0.0	1.0	6	45.0	30.000	9	0.501	9	736.989	0.250	1	
72	0	743.833	1	0	1	0.250	2	9	0.0	1.0	6	45.0	30.000	9	0.451	9	745.254	0.250	1	
73	0	752.071	1	0	1	0.250	2	9	0.0	1.0	6	45.0	30.000	9	0.351	9	753.513	0.250	1	
74	0	760.749	1	0	1	0.250	2	3	0.0	1.0	12	45.0	30.000	3	0.401	9	763.086	0.000	0	
75	1	766.097	1	0	1	0.250	2	3	0.0	1.0	12	45.0	30.000	3	0.301	3	767.727	0.150	1	
76	0	772.456	1	0	1	0.250	2	9	0.0	1.0	6	45.0	30.000	9	0.401	9	774.107	0.250	1	
77	0	778.675	1	0	1	0.250	2	9	0.0	1.0	6	45.0	30.000	9	0.451	9	780.433	0.250	1	
78	0	787.492	1	0	1	0.250	2	9	0.0	1.0	6	45.0	30.000	9	0.501	9	789.173	0.250	1	
79	0	795.654	1	0	1	0.250	2	9	0.0	1.0	6	45.0	30.000	9	0.301	9	801.071	0.250	1	
80	0	808.166	1	0	1	0.250	2	3	0.0	1.0	12	45.0	30.000	3	0.351	9	812.151	0.000	0	
81	1	815.212	1	0	1	0.250	2	3	0.0	1.0	12	45.0	30.000	3	0.301	3	817.199	0.150	1	
82	0	822.079	1	0	1	0.250	2	9	0.0	1.0	6	45.0	30.000	9	0.451	9	823.341	0.250	1	
