Trial	CorrectionTrial	StartTime	CenterReward	CenterSpoutRotation	nStimReps	Duration	Modality	LED_Location	LED_trial_V	LED_bgnd_V	Speaker_Location	Speaker_trial_V	Speaker_bgnd_V	TargetSpout	HoldTime	Response	RespTime	ValveTime	Correct	CenterPixelVal	
1	0	44.746	0	-30	1	0.250	2	9	0.0	0.0	11	48.0	30.000	9	0.451	9	47.411	0.180	1	255	
2	0	51.648	0	-30	1	0.250	2	3	0.0	0.0	5	48.0	30.000	3	0.501	3	54.285	0.120	1	255	
3	0	65.940	0	-30	1	0.250	2	3	0.0	0.0	5	48.0	30.000	3	0.476	3	68.539	0.120	1	255	
4	0	77.519	1	-30	1	0.250	2	9	0.0	0.0	11	48.0	30.000	9	0.551	3	87.019	0.000	0	255	
5	1	94.272	0	-30	1	0.250	2	9	0.0	0.0	11	48.0	30.000	9	0.551	9	96.111	0.180	1	255	
6	0	120.419	0	-30	1	0.250	2	3	0.0	0.0	5	48.0	30.000	3	0.526	3	122.400	0.120	1	255	
7	0	127.481	0	-30	1	0.250	2	3	0.0	0.0	5	48.0	30.000	3	0.551	3	130.639	0.120	1	255	
8	0	135.706	0	-30	1	0.250	2	3	0.0	0.0	5	48.0	30.000	3	0.501	3	137.443	0.120	1	255	
9	0	142.995	1	-30	1	0.250	2	3	0.0	0.0	5	48.0	30.000	3	0.451	9	150.298	0.000	0	255	
10	1	159.720	0	-30	1	0.250	2	3	0.0	0.0	5	48.0	30.000	3	0.451	9	161.944	0.000	0	255	
11	1	173.560	0	-30	1	0.250	2	3	0.0	0.0	5	48.0	30.000	3	0.451	3	175.661	0.120	1	255	
12	0	189.994	0	-30	1	0.250	2	9	0.0	0.0	11	48.0	30.000	9	0.476	9	191.572	0.180	1	255	
13	0	210.146	0	-30	1	0.250	2	9	0.0	0.0	11	48.0	30.000	9	0.526	9	211.754	0.180	1	255	
14	0	229.711	0	-30	1	0.250	2	3	0.0	0.0	5	48.0	30.000	3	0.526	3	231.925	0.120	1	255	
15	0	237.447	0	-30	1	0.250	2	9	0.0	0.0	11	48.0	30.000	9	0.551	9	239.971	0.180	1	255	
16	0	257.642	0	-30	1	0.250	2	9	0.0	0.0	11	48.0	30.000	9	0.501	9	259.297	0.180	1	255	
17	0	280.487	0	-30	1	0.250	2	3	0.0	0.0	5	48.0	30.000	3	0.451	3	282.489	0.120	1	255	
18	0	287.074	0	-30	1	0.250	2	9	0.0	0.0	11	48.0	30.000	9	0.476	3	288.773	0.000	0	255	
19	1	294.113	0	-30	1	0.250	2	9	0.0	0.0	11	48.0	30.000	9	0.476	9	295.749	0.180	1	255	
20	0	316.214	0	-30	1	0.250	2	9	0.0	0.0	11	48.0	30.000	9	0.476	9	317.975	0.180	1	255	
21	0	334.693	0	-30	1	0.250	2	9	0.0	0.0	11	48.0	30.000	9	0.551	9	336.550	0.180	1	255	
22	0	359.054	0	-30	1	0.250	2	9	0.0	0.0	11	48.0	30.000	9	0.501	9	360.807	0.180	1	255	
23	0	379.620	0	-30	1	0.250	2	3	0.0	0.0	5	48.0	30.000	3	0.451	3	381.830	0.120	1	255	
24	0	387.132	0	-30	1	0.250	2	3	0.0	0.0	5	48.0	30.000	3	0.526	3	388.863	0.120	1	255	
25	0	395.930	0	-30	1	0.250	2	9	0.0	0.0	11	48.0	30.000	9	0.476	9	397.925	0.180	1	255	
26	0	412.510	0	-30	1	0.250	2	9	0.0	0.0	11	48.0	30.000	9	0.501	9	414.147	0.180	1	255	
27	0	434.906	0	-30	1	0.250	2	9	0.0	0.0	11	48.0	30.000	9	0.451	9	436.682	0.180	1	255	
28	0	454.118	0	-30	1	0.250	2	9	0.0	0.0	11	48.0	30.000	9	0.526	9	456.746	0.180	1	255	
29	0	475.645	0	-30	1	0.250	2	9	0.0	0.0	11	48.0	30.000	9	0.551	9	477.311	0.180	1	255	
30	0	495.859	1	-30	1	0.250	2	9	0.0	0.0	11	48.0	30.000	9	0.451	9	502.654	0.180	1	255	
31	0	521.712	0	-30	1	0.250	2	3	0.0	0.0	5	48.0	30.000	3	0.476	3	523.779	0.120	1	255	
32	0	528.382	0	-30	1	0.250	2	3	0.0	0.0	5	48.0	30.000	3	0.526	3	530.811	0.120	1	255	
33	0	536.571	0	-30	1	0.250	2	3	0.0	0.0	5	48.0	30.000	3	0.551	3	539.196	0.120	1	255	
34	0	547.086	0	-30	1	0.250	2	3	0.0	0.0	5	48.0	30.000	3	0.501	3	548.804	0.120	1	255	
35	0	554.469	0	-30	1	0.250	2	3	0.0	0.0	5	48.0	30.000	3	0.476	3	557.306	0.120	1	255	
36	0	561.910	0	-30	1	0.250	2	3	0.0	0.0	5	48.0	30.000	3	0.451	3	564.296	0.120	1	255	
37	0	569.705	0	-30	1	0.250	2	3	0.0	0.0	5	48.0	30.000	3	0.501	9	571.657	0.000	0	255	
38	1	575.864	0	-30	1	0.250	2	3	0.0	0.0	5	48.0	30.000	3	0.501	3	577.751	0.120	1	255	
39	0	582.428	0	-30	1	0.250	2	3	0.0	0.0	5	48.0	30.000	3	0.551	3	584.883	0.120	1	255	
40	0	589.384	0	-30	1	0.250	2	3	0.0	0.0	5	48.0	30.000	3	0.526	3	591.404	0.120	1	255	
41	0	599.888	0	-30	1	0.250	2	3	0.0	0.0	5	48.0	30.000	3	0.501	3	602.342	0.120	1	255	
42	0	608.957	0	-30	1	0.250	2	9	0.0	0.0	11	48.0	30.000	9	0.476	3	611.096	0.000	0	255	
43	1	619.175	0	-30	1	0.250	2	9	0.0	0.0	11	48.0	30.000	9	0.476	9	621.273	0.180	1	255	
44	0	637.070	0	-30	1	0.250	2	9	0.0	0.0	11	48.0	30.000	9	0.526	9	639.657	0.180	1	255	
45	0	656.756	0	-30	1	0.250	2	9	0.0	0.0	11	48.0	30.000	9	0.551	9	658.586	0.180	1	255	
46	0	678.658	0	-30	1	0.250	2	9	0.0	0.0	11	48.0	30.000	9	0.451	9	680.597	0.180	1	255	
47	0	702.511	0	-30	1	0.250	2	9	0.0	0.0	11	48.0	30.000	9	0.476	9	705.011	0.180	1	255	
48	0	725.409	0	-30	1	0.250	2	3	0.0	0.0	5	48.0	30.000	3	0.526	3	727.542	0.120	1	255	
49	0	732.096	0	-30	1	0.250	2	9	0.0	0.0	11	48.0	30.000	9	0.551	3	734.150	0.000	0	255	
50	1	739.378	0	-30	1	0.250	2	9	0.0	0.0	11	48.0	30.000	9	0.551	9	741.357	0.180	1	255	
51	0	759.317	0	-30	1	0.250	2	9	0.0	0.0	11	48.0	30.000	9	0.501	9	761.342	0.180	1	255	
52	0	781.503	0	-30	1	0.250	2	3	0.0	0.0	5	48.0	30.000	3	0.451	3	783.835	0.120	1	255	
53	0	789.020	0	-30	1	0.250	2	9	0.0	0.0	11	48.0	30.000	9	0.501	9	791.722	0.180	1	255	
54	0	810.403	0	-30	1	0.250	2	3	0.0	0.0	5	48.0	30.000	3	0.476	3	812.590	0.120	1	255	
55	0	819.538	0	-30	1	0.250	2	3	0.0	0.0	5	48.0	30.000	3	0.526	3	821.200	0.120	1	255	
56	0	827.997	0	-30	1	0.250	2	9	0.0	0.0	11	48.0	30.000	9	0.551	9	830.819	0.180	1	255	
57	0	847.026	0	-30	1	0.250	2	9	0.0	0.0	11	48.0	30.000	9	0.451	9	848.918	0.180	1	255	
58	0	867.340	0	-30	1	0.250	2	3	0.0	0.0	5	48.0	30.000	3	0.551	3	869.589	0.120	1	255	
59	0	876.653	0	-30	1	0.250	2	9	0.0	0.0	11	48.0	30.000	9	0.451	3	878.975	0.000	0	255	
60	1	884.472	0	-30	1	0.250	2	9	0.0	0.0	11	48.0	30.000	9	0.451	9	886.697	0.180	1	255	
61	0	923.147	0	-30	1	0.250	2	3	0.0	0.0	5	48.0	30.000	3	0.526	3	927.666	0.120	1	255	
62	0	936.123	0	-30	1	0.250	2	3	0.0	0.0	5	48.0	30.000	3	0.501	3	939.773	0.120	1	255	
63	0	954.608	0	-30	1	0.250	2	9	0.0	0.0	11	48.0	30.000	9	0.476	9	956.895	0.180	1	255	
64	0	973.440	0	-30	1	0.250	2	3	0.0	0.0	5	48.0	30.000	3	0.551	3	975.573	0.120	1	255	
65	0	983.231	1	-30	1	0.250	2	9	0.0	0.0	11	48.0	30.000	9	0.451	3	990.762	0.000	0	255	
66	1	1005.970	0	-30	1	0.250	2	9	0.0	0.0	11	48.0	30.000	9	0.451	9	1008.151	0.180	1	255	
67	0	1026.099	0	-30	1	0.250	2	9	0.0	0.0	11	48.0	30.000	9	0.501	9	1030.529	0.180	1	255	
68	0	1047.956	0	-30	1	0.250	2	3	0.0	0.0	5	48.0	30.000	3	0.526	3	1050.207	0.120	1	255	
69	0	1055.936	0	-30	1	0.250	2	3	0.0	0.0	5	48.0	30.000	3	0.476	3	1059.422	0.120	1	255	
70	0	1066.081	0	-30	1	0.250	2	9	0.0	0.0	11	48.0	30.000	9	0.476	9	1069.481	0.180	1	255	
71	0	1085.451	0	-30	1	0.250	2	3	0.0	0.0	5	48.0	30.000	3	0.526	3	1087.974	0.120	1	255	
72	0	1094.172	0	-30	1	0.250	2	3	0.0	0.0	5	48.0	30.000	3	0.501	3	1097.346	0.120	1	255	
73	0	1103.121	0	-30	1	0.250	2	3	0.0	0.0	5	48.0	30.000	3	0.551	3	1105.954	0.120	1	255	
74	0	1114.435	0	-30	1	0.250	2	9	0.0	0.0	11	48.0	30.000	9	0.451	9	1116.993	0.180	1	255	
75	0	1134.875	0	-30	1	0.250	2	3	0.0	0.0	5	48.0	30.000	3	0.526	3	1138.182	0.120	1	255	
76	0	1145.469	0	-30	1	0.250	2	9	0.0	0.0	11	48.0	30.000	9	0.451	9	1148.499	0.180	1	255	
77	0	1164.408	0	-30	1	0.250	2	9	0.0	0.0	11	48.0	30.000	9	0.501	9	1166.197	0.180	1	255	
78	0	1184.782	0	-30	1	0.250	2	9	0.0	0.0	11	48.0	30.000	9	0.476	9	1187.268	0.180	1	255	
79	0	1205.577	0	-30	1	0.250	2	9	0.0	0.0	11	48.0	30.000	9	0.551	9	1207.850	0.180	1	255	
80	0	1224.785	0	-30	1	0.250	2	3	0.0	0.0	5	48.0	30.000	3	0.551	3	1226.850	0.120	1	255	
81	0	1233.347	0	-30	1	0.250	2	9	0.0	0.0	11	48.0	30.000	9	0.526	3	1235.257	0.000	0	255	
82	1	1240.528	0	-30	1	0.250	2	9	0.0	0.0	11	48.0	30.000	9	0.526	9	1242.887	0.180	1	255	
83	0	1260.678	1	-30	1	0.250	2	9	0.0	0.0	11	48.0	30.000	9	0.501	9	1268.760	0.180	1	255	
84	0	1287.919	0	-30	1	0.250	2	9	0.0	0.0	11	48.0	30.000	9	0.451	9	1290.983	0.180	1	255	
85	0	1308.891	0	-30	1	0.250	2	3	0.0	0.0	5	48.0	30.000	3	0.476	3	1311.115	0.120	1	255	
86	0	1316.068	0	-30	1	0.250	2	9	0.0	0.0	11	48.0	30.000	9	0.476	3	1318.072	0.000	0	255	
87	1	1326.453	0	-30	1	0.250	2	9	0.0	0.0	11	48.0	30.000	9	0.476	9	1328.433	0.180	1	255	
88	0	1347.734	0	-30	1	0.250	2	3	0.0	0.0	5	48.0	30.000	3	0.451	3	1349.781	0.120	1	255	
89	0	1356.345	0	-30	1	0.250	2	3	0.0	0.0	5	48.0	30.000	3	0.526	3	1358.319	0.120	1	255	
90	0	1363.757	0	-30	1	0.250	2	3	0.0	0.0	5	48.0	30.000	3	0.551	3	1365.789	0.120	1	255	
91	0	1375.870	0	-30	1	0.250	2	3	0.0	0.0	5	48.0	30.000	3	0.501	3	1378.741	0.120	1	255	
92	0	1388.642	0	-30	1	0.250	2	9	0.0	0.0	11	48.0	30.000	9	0.526	9	1390.642	0.180	1	255	
93	0	1404.990	0	-30	1	0.250	2	3	0.0	0.0	5	48.0	30.000	3	0.451	3	1407.131	0.120	1	255	
94	0	1412.719	0	-30	1	0.250	2	9	0.0	0.0	11	48.0	30.000	9	0.476	3	1415.569	0.000	0	255	
