Trial	CorrectionTrial	StartTime	CenterReward	CenterSpoutRotation	nStimReps	Duration	Modality	LED_Location	LED_trial_V	LED_bgnd_V	Speaker_Location	Speaker_trial_V	Speaker_bgnd_V	TargetSpout	HoldTime	Response	RespTime	ValveTime	Correct	CenterPixelVal	
1	0	19.400	0	-30	1	0.250	2	3	0.0	0.0	5	48.0	30.000	3	0.551	3	21.264	0.120	1	255	
2	0	31.184	0	-30	1	0.250	2	3	0.0	0.0	5	48.0	30.000	3	0.526	3	32.553	0.120	1	255	
3	0	43.617	0	-30	1	0.250	2	3	0.0	0.0	5	48.0	30.000	3	0.476	9	45.232	0.000	0	255	
4	1	52.011	0	-30	1	0.250	2	3	0.0	0.0	5	48.0	30.000	3	0.476	3	55.219	0.120	1	255	
5	0	61.882	0	-30	1	0.250	2	3	0.0	0.0	5	48.0	30.000	3	0.501	3	63.859	0.120	1	255	
6	0	71.504	0	-30	1	0.250	2	9	0.0	0.0	11	48.0	30.000	9	0.451	3	73.779	0.000	0	255	
7	1	78.955	0	-30	1	0.250	2	9	0.0	0.0	11	48.0	30.000	9	0.451	9	80.450	0.180	1	255	
8	0	101.594	0	-30	1	0.250	2	9	0.0	0.0	11	48.0	30.000	9	0.451	9	103.274	0.180	1	255	
9	0	146.521	0	-30	1	0.250	2	9	0.0	0.0	11	48.0	30.000	9	0.526	9	147.921	0.180	1	255	
10	0	167.259	0	-30	1	0.250	2	9	0.0	0.0	11	48.0	30.000	9	0.501	9	168.880	0.180	1	255	
11	0	184.754	0	-30	1	0.250	2	3	0.0	0.0	5	48.0	30.000	3	0.551	3	186.810	0.120	1	255	
12	0	193.270	0	-30	1	0.250	2	9	0.0	0.0	11	48.0	30.000	9	0.476	9	195.694	0.180	1	255	
13	0	211.557	0	-30	1	0.250	2	9	0.0	0.0	11	48.0	30.000	9	0.526	9	213.508	0.180	1	255	
14	0	230.978	0	-30	1	0.250	2	9	0.0	0.0	11	48.0	30.000	9	0.451	9	233.587	0.180	1	255	
15	0	250.451	0	-30	1	0.250	2	9	0.0	0.0	11	48.0	30.000	9	0.501	9	252.637	0.180	1	255	
16	0	269.620	0	-30	1	0.250	2	9	0.0	0.0	11	48.0	30.000	9	0.551	9	271.362	0.180	1	255	
17	0	287.676	1	-30	1	0.250	2	3	0.0	0.0	5	48.0	30.000	3	0.476	3	297.964	0.120	1	255	
18	0	305.068	0	-30	1	0.250	2	3	0.0	0.0	5	48.0	30.000	3	0.526	3	307.292	0.120	1	255	
19	0	313.201	0	-30	1	0.250	2	3	0.0	0.0	5	48.0	30.000	3	0.501	3	315.674	0.120	1	255	
20	0	323.469	0	-30	1	0.250	2	3	0.0	0.0	5	48.0	30.000	3	0.476	3	325.364	0.120	1	255	
21	0	330.726	0	-30	1	0.250	2	9	0.0	0.0	11	48.0	30.000	9	0.551	3	332.613	0.000	0	255	
22	1	337.748	0	-30	1	0.250	2	9	0.0	0.0	11	48.0	30.000	9	0.551	9	340.510	0.180	1	255	
23	0	357.862	0	-30	1	0.250	2	3	0.0	0.0	5	48.0	30.000	3	0.451	9	359.726	0.000	0	255	
24	1	370.242	1	-30	1	0.250	2	3	0.0	0.0	5	48.0	30.000	3	0.451	3	377.673	0.120	1	255	
25	0	384.332	0	-30	1	0.250	2	9	0.0	0.0	11	48.0	30.000	9	0.476	9	386.790	0.180	1	255	
26	0	402.413	0	-30	1	0.250	2	3	0.0	0.0	5	48.0	30.000	3	0.451	3	404.529	0.120	1	255	
27	0	409.689	0	-30	1	0.250	2	3	0.0	0.0	5	48.0	30.000	3	0.526	3	411.499	0.120	1	255	
28	0	416.364	0	-30	1	0.250	2	9	0.0	0.0	11	48.0	30.000	9	0.551	9	418.918	0.180	1	255	
29	0	434.601	0	-30	1	0.250	2	3	0.0	0.0	5	48.0	30.000	3	0.501	9	436.577	0.000	0	255	
30	1	442.397	0	-30	1	0.250	2	3	0.0	0.0	5	48.0	30.000	3	0.501	3	444.226	0.120	1	255	
31	0	448.915	0	-30	1	0.250	2	3	0.0	0.0	5	48.0	30.000	3	0.501	3	451.753	0.120	1	255	
32	0	456.833	0	-30	1	0.250	2	9	0.0	0.0	11	48.0	30.000	9	0.476	9	460.338	0.180	1	255	
33	0	477.234	0	-30	1	0.250	2	9	0.0	0.0	11	48.0	30.000	9	0.551	9	478.896	0.180	1	255	
34	0	495.551	1	-30	1	0.250	2	3	0.0	0.0	5	48.0	30.000	3	0.451	3	502.906	0.120	1	255	
35	0	508.223	0	-30	1	0.250	2	9	0.0	0.0	11	48.0	30.000	9	0.526	3	510.443	0.000	0	255	
36	1	515.961	0	-30	1	0.250	2	9	0.0	0.0	11	48.0	30.000	9	0.526	9	517.903	0.180	1	255	
37	0	534.737	0	-30	1	0.250	2	3	0.0	0.0	5	48.0	30.000	3	0.451	3	537.168	0.120	1	255	
38	0	542.050	0	-30	1	0.250	2	9	0.0	0.0	11	48.0	30.000	9	0.551	3	544.133	0.000	0	255	
39	1	550.390	0	-30	1	0.250	2	9	0.0	0.0	11	48.0	30.000	9	0.551	3	553.175	0.000	0	255	
40	1	565.381	0	-30	1	0.250	2	9	0.0	0.0	11	48.0	30.000	9	0.551	9	568.326	0.180	1	255	
41	0	585.175	0	-30	1	0.250	2	9	0.0	0.0	11	48.0	30.000	9	0.526	9	587.510	0.180	1	255	
42	0	607.279	0	-30	1	0.250	2	3	0.0	0.0	5	48.0	30.000	3	0.501	9	609.587	0.000	0	255	
43	1	613.861	0	-30	1	0.250	2	3	0.0	0.0	5	48.0	30.000	3	0.501	3	616.099	0.120	1	255	
44	0	620.684	0	-30	1	0.250	2	9	0.0	0.0	11	48.0	30.000	9	0.476	3	623.315	0.000	0	255	
45	1	628.485	0	-30	1	0.250	2	9	0.0	0.0	11	48.0	30.000	9	0.476	9	630.364	0.180	1	255	
46	0	654.990	0	-30	1	0.250	2	9	0.0	0.0	11	48.0	30.000	9	0.526	9	657.352	0.180	1	255	
47	0	672.593	0	-30	1	0.250	2	3	0.0	0.0	5	48.0	30.000	3	0.476	3	674.809	0.120	1	255	
48	0	679.715	0	-30	1	0.250	2	3	0.0	0.0	5	48.0	30.000	3	0.551	3	681.701	0.120	1	255	
49	0	689.004	0	-30	1	0.250	2	9	0.0	0.0	11	48.0	30.000	9	0.451	3	692.232	0.000	0	255	
50	1	696.992	0	-30	1	0.250	2	9	0.0	0.0	11	48.0	30.000	9	0.451	9	698.780	0.180	1	255	
51	0	718.755	0	-30	1	0.250	2	3	0.0	0.0	5	48.0	30.000	3	0.501	9	721.017	0.000	0	255	
52	1	735.031	0	-30	1	0.250	2	3	0.0	0.0	5	48.0	30.000	3	0.501	3	736.943	0.120	1	255	
53	0	743.562	0	-30	1	0.250	2	3	0.0	0.0	5	48.0	30.000	3	0.526	3	745.726	0.120	1	255	
54	0	755.407	0	-30	1	0.250	2	3	0.0	0.0	5	48.0	30.000	3	0.551	3	757.324	0.120	1	255	
55	0	761.967	0	-30	1	0.250	2	9	0.0	0.0	11	48.0	30.000	9	0.476	9	764.410	0.180	1	255	
56	0	778.600	0	-30	1	0.250	2	9	0.0	0.0	11	48.0	30.000	9	0.451	9	780.625	0.180	1	255	
57	0	798.799	0	-30	1	0.250	2	9	0.0	0.0	11	48.0	30.000	9	0.501	9	800.886	0.180	1	255	
58	0	823.015	0	-30	1	0.250	2	3	0.0	0.0	5	48.0	30.000	3	0.451	3	825.213	0.120	1	255	
59	0	830.808	0	-30	1	0.250	2	9	0.0	0.0	11	48.0	30.000	9	0.501	3	832.489	0.000	0	255	
60	1	838.398	0	-30	1	0.250	2	9	0.0	0.0	11	48.0	30.000	9	0.501	9	840.464	0.180	1	255	
61	0	858.982	0	-30	1	0.250	2	9	0.0	0.0	11	48.0	30.000	9	0.476	9	860.997	0.180	1	255	
62	0	886.997	0	-30	1	0.250	2	3	0.0	0.0	5	48.0	30.000	3	0.526	3	888.973	0.120	1	255	
63	0	897.517	0	-30	1	0.250	2	9	0.0	0.0	11	48.0	30.000	9	0.551	3	899.664	0.000	0	255	
64	1	905.629	0	-30	1	0.250	2	9	0.0	0.0	11	48.0	30.000	9	0.551	9	907.521	0.180	1	255	
65	0	929.144	0	-30	1	0.250	2	9	0.0	0.0	11	48.0	30.000	9	0.526	9	931.120	0.180	1	255	
66	0	949.159	0	-30	1	0.250	2	9	0.0	0.0	11	48.0	30.000	9	0.551	9	951.879	0.180	1	255	
67	0	971.296	0	-30	1	0.250	2	3	0.0	0.0	5	48.0	30.000	3	0.476	3	973.443	0.120	1	255	
68	0	980.167	0	-30	1	0.250	2	3	0.0	0.0	5	48.0	30.000	3	0.451	3	983.038	0.120	1	255	
69	0	990.429	0	-30	1	0.250	2	3	0.0	0.0	5	48.0	30.000	3	0.501	3	992.010	0.120	1	255	
70	0	998.750	0	-30	1	0.250	2	9	0.0	0.0	11	48.0	30.000	9	0.476	9	1001.147	0.180	1	255	
71	0	1017.667	0	-30	1	0.250	2	3	0.0	0.0	5	48.0	30.000	3	0.551	3	1019.624	0.120	1	255	
72	0	1024.588	0	-30	1	0.250	2	3	0.0	0.0	5	48.0	30.000	3	0.501	3	1027.071	0.120	1	255	
73	0	1036.047	0	-30	1	0.250	2	9	0.0	0.0	11	48.0	30.000	9	0.451	9	1038.474	0.180	1	255	
74	0	1053.129	0	-30	1	0.250	2	3	0.0	0.0	5	48.0	30.000	3	0.526	3	1055.136	0.120	1	255	
75	0	1061.379	0	-30	1	0.250	2	9	0.0	0.0	11	48.0	30.000	9	0.501	9	1064.468	0.180	1	255	
76	0	1082.317	0	-30	1	0.250	2	9	0.0	0.0	11	48.0	30.000	9	0.476	9	1084.238	0.180	1	255	
77	0	1103.897	0	-30	1	0.250	2	9	0.0	0.0	11	48.0	30.000	9	0.551	9	1105.900	0.180	1	255	
78	0	1133.754	0	-30	1	0.250	2	3	0.0	0.0	5	48.0	30.000	3	0.526	3	1135.825	0.120	1	255	
79	0	1143.271	0	-30	1	0.250	2	3	0.0	0.0	5	48.0	30.000	3	0.451	3	1145.609	0.120	1	255	
80	0	1156.878	0	-30	1	0.250	2	3	0.0	0.0	5	48.0	30.000	3	0.501	3	1158.422	0.120	1	255	
81	0	1165.888	0	-30	1	0.250	2	3	0.0	0.0	5	48.0	30.000	3	0.451	3	1168.102	0.120	1	255	
82	0	1174.934	0	-30	1	0.250	2	3	0.0	0.0	5	48.0	30.000	3	0.551	9	1177.324	0.000	0	255	
83	1	1182.806	0	-30	1	0.250	2	3	0.0	0.0	5	48.0	30.000	3	0.551	3	1184.540	0.120	1	255	
84	0	1189.619	0	-30	1	0.250	2	3	0.0	0.0	5	48.0	30.000	3	0.476	3	1192.331	0.120	1	255	
85	0	1197.780	0	-30	1	0.250	2	3	0.0	0.0	5	48.0	30.000	3	0.526	3	1200.094	0.120	1	255	
86	0	1207.279	0	-30	1	0.250	2	3	0.0	0.0	5	48.0	30.000	3	0.476	3	1209.358	0.120	1	255	
87	0	1225.474	0	-30	1	0.250	2	3	0.0	0.0	5	48.0	30.000	3	0.501	3	1227.182	0.120	1	255	
88	0	1231.563	0	-30	1	0.250	2	3	0.0	0.0	5	48.0	30.000	3	0.526	9	1233.893	0.000	0	255	
89	1	1238.550	0	-30	1	0.250	2	3	0.0	0.0	5	48.0	30.000	3	0.526	3	1240.374	0.120	1	255	
90	0	1257.274	0	-30	1	0.250	2	9	0.0	0.0	11	48.0	30.000	9	0.451	3	1258.994	0.000	0	255	
91	1	1264.004	0	-30	1	0.250	2	9	0.0	0.0	11	48.0	30.000	9	0.451	9	1266.016	0.180	1	255	
92	0	1285.510	0	-30	1	0.250	2	9	0.0	0.0	11	48.0	30.000	9	0.551	9	1287.885	0.180	1	255	
93	0	1305.202	0	-30	1	0.250	2	9	0.0	0.0	11	48.0	30.000	9	0.501	9	1307.144	0.180	1	255	
94	0	1326.941	0	-30	1	0.250	2	9	0.0	0.0	11	48.0	30.000	9	0.451	9	1329.821	0.180	1	255	
95	0	1359.008	0	-30	1	0.250	2	9	0.0	0.0	11	48.0	30.000	9	0.476	9	1361.553	0.180	1	255	
96	0	1380.779	0	-30	1	0.250	2	9	0.0	0.0	11	48.0	30.000	9	0.551	9	1382.787	0.180	1	255	
97	0	1398.852	0	-30	1	0.250	2	9	0.0	0.0	11	48.0	30.000	9	0.526	9	1400.991	0.180	1	255	
98	0	1417.995	0	-30	1	0.250	2	3	0.0	0.0	5	48.0	30.000	3	0.526	3	1419.913	0.120	1	255	
99	0	1426.252	0	-30	1	0.250	2	9	0.0	0.0	11	48.0	30.000	9	0.476	3	1428.085	0.000	0	255	
100	1	1433.963	0	-30	1	0.250	2	9	0.0	0.0	11	48.0	30.000	9	0.476	9	1437.013	0.180	1	255	
101	0	1453.800	0	-30	1	0.250	2	3	0.0	0.0	5	48.0	30.000	3	0.451	3	1455.748	0.120	1	255	
102	0	1461.277	1	-30	1	0.250	2	9	0.0	0.0	11	48.0	30.000	9	0.501	3	1468.694	0.000	0	255	
103	1	1477.784	0	-30	1	0.250	2	9	0.0	0.0	11	48.0	30.000	9	0.501	9	1479.580	0.180	1	255	
