Trial	CorrectionTrial	StartTime	CenterReward	CenterSpoutRotation	nStimReps	Duration	Modality	LED_Location	LED_trial_V	LED_bgnd_V	Speaker_Location	Speaker_trial_V	Speaker_bgnd_V	TargetSpout	HoldTime	Response	RespTime	ValveTime	Correct	CenterPixelVal	
1	0	24.641	0	150	1	0.250	2	9	0.0	0.5	6	45.0	30.000	9	0.576	3	27.097	0.000	0	255	
2	1	31.082	0	150	1	0.250	2	9	0.0	0.5	6	45.0	30.000	9	0.576	9	32.162	0.150	1	255	
3	0	56.674	0	150	1	0.250	2	9	0.0	0.5	6	45.0	30.000	9	0.614	9	58.355	0.150	1	255	
4	0	87.958	0	150	1	0.250	2	9	0.0	0.5	6	45.0	30.000	9	0.538	3	89.621	0.000	0	255	
5	1	93.897	0	150	1	0.250	2	9	0.0	0.5	6	45.0	30.000	9	0.538	9	94.915	0.150	1	255	
6	0	115.911	0	150	1	0.250	2	9	0.0	0.5	6	45.0	30.000	9	0.651	3	117.287	0.000	0	255	
7	1	122.663	0	150	1	0.250	2	9	0.0	0.5	6	45.0	30.000	9	0.651	9	123.824	0.150	1	255	
8	0	148.321	0	150	1	0.250	2	3	0.0	0.5	12	45.0	30.000	3	0.501	3	150.051	0.130	1	255	
9	0	170.802	0	150	1	0.250	2	3	0.0	0.5	12	45.0	30.000	3	0.538	3	175.431	0.130	1	255	
10	0	200.903	0	150	1	0.250	2	3	0.0	0.5	12	45.0	30.000	3	0.576	3	204.963	0.130	1	255	
11	0	227.355	0	150	1	0.250	2	3	0.0	0.5	12	45.0	30.000	3	0.614	3	229.205	0.130	1	255	
12	0	239.369	0	150	1	0.250	2	9	0.0	0.5	6	45.0	30.000	9	0.651	9	240.504	0.150	1	255	
13	0	266.528	0	150	1	0.250	2	3	0.0	0.5	12	45.0	30.000	3	0.501	3	268.521	0.130	1	255	
14	0	292.921	0	150	1	0.250	2	3	0.0	0.5	12	45.0	30.000	3	0.538	3	296.646	0.130	1	255	
15	0	308.322	0	150	1	0.250	2	3	0.0	0.5	12	45.0	30.000	3	0.651	3	310.331	0.130	1	255	
16	0	329.711	0	150	1	0.250	2	3	0.0	0.5	8	45.0	30.000	3	0.576	3	333.045	0.130	1	255	
17	0	343.046	0	150	1	0.250	2	3	0.0	0.5	12	45.0	30.000	3	0.614	3	344.301	0.130	1	255	
18	0	393.312	0	150	1	0.250	2	9	0.0	0.5	6	45.0	30.000	9	0.501	9	396.691	0.150	1	255	
19	0	425.131	0	150	1	0.250	2	9	0.0	0.5	6	45.0	30.000	9	0.614	3	426.964	0.000	0	255	
20	1	431.933	0	150	1	0.250	2	9	0.0	0.5	6	45.0	30.000	9	0.614	9	432.815	0.180	1	255	
21	0	463.436	0	150	1	0.250	2	9	0.0	0.5	6	45.0	30.000	9	0.651	3	464.225	0.000	0	255	
22	1	502.069	0	150	1	0.250	2	9	0.0	0.5	6	45.0	30.000	9	0.651	9	505.168	0.190	1	255	
23	0	537.226	0	150	1	0.250	2	9	0.0	0.5	6	45.0	30.000	9	0.501	3	539.144	0.000	0	255	
24	1	559.465	0	150	1	0.250	2	9	0.0	0.5	6	45.0	30.000	9	0.501	3	561.342	0.000	0	255	
25	1	566.044	0	150	1	0.250	2	9	0.0	0.5	6	45.0	30.000	9	0.501	9	567.272	0.190	1	255	
26	0	590.085	0	150	1	0.250	2	3	0.0	0.5	12	45.0	30.000	3	0.538	3	591.835	0.115	1	255	
27	0	640.809	0	150	1	0.250	2	9	0.0	0.5	6	45.0	30.000	9	0.576	9	643.554	0.190	1	255	
28	0	680.603	0	150	1	0.250	2	9	0.0	0.5	6	45.0	30.000	9	0.501	3	682.390	0.000	0	255	
29	1	698.357	0	150	1	0.250	2	9	0.0	0.5	6	45.0	30.000	9	0.501	9	701.819	0.190	1	255	
30	0	726.354	0	150	1	0.250	2	9	0.0	0.5	6	45.0	30.000	9	0.651	9	727.969	0.190	1	255	
31	0	760.219	0	150	1	0.250	2	9	0.0	0.5	6	45.0	30.000	9	0.538	9	762.158	0.190	1	255	
32	0	793.007	0	150	1	0.250	2	9	0.0	0.5	6	45.0	30.000	9	0.576	9	794.844	0.190	1	255	
33	0	832.879	0	150	1	0.250	2	3	0.0	0.5	8	45.0	30.000	3	0.614	3	836.895	0.115	1	255	
34	0	845.389	0	150	1	0.250	2	9	0.0	0.5	6	45.0	30.000	9	0.614	9	846.848	0.190	1	255	
35	0	869.185	1	150	1	0.250	2	9	0.0	0.5	6	45.0	30.000	9	0.538	9	874.616	0.190	1	255	
36	0	894.001	0	150	1	0.250	2	3	0.0	0.5	12	45.0	30.000	3	0.501	9	895.146	0.000	0	255	
37	1	901.508	0	150	1	0.250	2	3	0.0	0.5	12	45.0	30.000	3	0.501	3	903.261	0.115	1	255	
38	0	928.273	0	150	1	0.250	2	9	0.0	0.5	6	45.0	30.000	9	0.651	9	929.755	0.190	1	255	
39	0	954.633	0	150	1	0.250	2	3	0.0	0.5	12	45.0	30.000	3	0.576	9	955.723	0.000	0	255	
40	1	965.517	0	150	1	0.250	2	3	0.0	0.5	12	45.0	30.000	3	0.576	9	966.704	0.000	0	255	
41	1	982.600	0	150	1	0.250	2	3	0.0	0.5	12	45.0	30.000	3	0.576	3	986.941	0.115	1	255	
42	0	1007.828	0	150	1	0.250	2	3	0.0	0.5	12	45.0	30.000	3	0.651	3	1011.759	0.125	1	255	
43	0	1018.193	0	150	1	0.250	2	3	0.0	0.5	2	45.0	30.000	3	0.614	3	1021.236	0.125	1	255	
44	0	1030.805	0	150	1	0.250	2	3	0.0	0.5	12	45.0	30.000	3	0.576	3	1032.343	0.125	1	255	
45	0	1039.292	0	150	1	0.250	2	3	0.0	0.5	8	45.0	30.000	3	0.538	3	1042.289	0.125	1	255	
46	0	1050.904	0	150	1	0.250	2	9	0.0	0.5	6	45.0	30.000	9	0.501	9	1054.929	0.190	1	255	
47	0	1104.539	0	150	1	0.250	2	3	0.0	0.5	12	45.0	30.000	3	0.576	3	1107.536	0.125	1	255	
48	0	1117.242	0	150	1	0.250	2	3	0.0	0.5	12	45.0	30.000	3	0.501	3	1119.905	0.125	1	255	
49	0	1146.333	0	150	1	0.250	2	9	0.0	0.5	6	45.0	30.000	9	0.651	9	1148.742	0.190	1	255	
50	0	1204.624	0	150	1	0.250	2	3	0.0	0.5	8	45.0	30.000	3	0.614	9	1208.268	0.000	0	255	
51	0	1230.760	0	150	1	0.250	2	9	0.0	0.5	6	45.0	30.000	9	0.538	9	1232.194	0.180	1	255	
52	0	1269.915	0	150	1	0.250	2	3	0.0	0.5	12	45.0	30.000	3	0.651	9	1273.933	0.000	0	255	
53	1	1283.890	0	150	1	0.250	2	3	0.0	0.5	12	45.0	30.000	3	0.651	9	1285.064	0.000	0	255	
54	1	1307.515	0	150	1	0.250	2	3	0.0	0.5	12	45.0	30.000	3	0.651	3	1311.912	0.125	1	255	
55	0	1333.364	0	150	1	0.250	2	9	0.0	0.5	6	45.0	30.000	9	0.614	9	1336.247	0.180	1	255	
56	0	1366.905	0	150	1	0.250	2	9	0.0	0.5	6	45.0	30.000	9	0.576	9	1368.567	0.180	1	255	
57	0	1389.387	0	150	1	0.250	2	9	0.0	0.5	6	45.0	30.000	9	0.501	3	1391.633	0.000	0	255	
58	1	1420.807	0	150	1	0.250	2	9	0.0	0.5	6	45.0	30.000	9	0.501	9	1424.245	0.180	1	255	
59	0	1451.960	0	150	1	0.250	2	3	0.0	0.5	12	45.0	30.000	3	0.538	9	1453.728	0.000	0	255	
60	1	1460.369	0	150	1	0.250	2	3	0.0	0.5	12	45.0	30.000	3	0.538	3	1461.456	0.125	1	255	
61	0	1488.001	0	150	1	0.250	2	9	0.0	0.5	6	45.0	30.000	9	0.614	9	1490.810	0.180	1	255	
62	0	1519.266	0	150	1	0.250	2	9	0.0	0.5	6	45.0	30.000	9	0.538	9	1520.372	0.180	1	255	
63	0	1575.135	0	150	1	0.250	2	9	0.0	0.5	6	45.0	30.000	9	0.501	9	1578.472	0.180	1	255	
64	0	1599.248	0	150	1	0.250	2	9	0.0	0.5	6	45.0	30.000	9	0.576	3	1600.849	0.000	0	255	
65	1	1613.665	0	150	1	0.250	2	9	0.0	0.5	6	45.0	30.000	9	0.576	9	1614.616	0.180	1	255	
66	0	1652.448	0	150	1	0.250	2	3	0.0	0.5	12	45.0	30.000	3	0.651	3	1653.846	0.125	1	255	
67	0	1685.320	0	150	1	0.250	2	9	0.0	0.5	6	45.0	30.000	9	0.538	9	1688.295	0.180	1	255	
68	0	1724.761	0	150	1	0.250	2	3	0.0	0.5	12	45.0	30.000	3	0.614	3	1727.711	0.125	1	255	
69	0	1735.922	0	150	1	0.250	2	3	0.0	0.5	12	45.0	30.000	3	0.501	9	1737.203	0.000	0	255	
70	1	1747.319	0	150	1	0.250	2	3	0.0	0.5	12	45.0	30.000	3	0.501	9	1748.277	0.000	0	255	
71	1	1755.144	0	150	1	0.250	2	3	0.0	0.5	12	45.0	30.000	3	0.501	3	1756.291	0.125	1	255	
