Trial,CorrectionTrial,StartTime,CenterReward,CenterSpoutRotation,nStimReps,Duration,Modality,LED Location,LED_trial_V,LED_bgnd_V,Speaker Location,Speaker_trial_V,Speaker_bgnd_V,TargetSpout,HoldTime,Response,RespTime,ValveTime,Correct,SessionDate,SessionID,StartDateTime,StimulusTotalDuration,response_angle_world,speaker_angle_world,speaker_angle_platform,response_angle_platform,not_probe
1,0,32.848,0,0,1,0.25,2,3,0.0,1.0,12,40.0,30.0,3,0.551,0.0,34.257,0.1,1,2019-02-12 09:13:27.000,15,2019-02-12 09:13:59.848,0.25,90,-180,-180,90,1
2,0,45.93899999999999,0,0,1,0.25,2,9,0.0,1.0,6,40.0,30.0,9,0.401,1.0,47.464,0.2,1,2019-02-12 09:13:27.000,15,2019-02-12 09:14:12.939,0.25,-90,0,0,-90,1
3,0,64.475,0,0,1,0.25,2,9,0.0,1.0,6,40.0,30.0,9,0.47600000000000003,1.0,66.002,0.2,1,2019-02-12 09:13:27.000,15,2019-02-12 09:14:31.475,0.25,-90,0,0,-90,1
4,0,83.68799999999999,0,0,1,0.25,2,3,0.0,1.0,12,40.0,30.0,3,0.626,0.0,85.771,0.1,1,2019-02-12 09:13:27.000,15,2019-02-12 09:14:50.688,0.25,90,-180,-180,90,1
5,0,100.868,0,0,1,0.25,2,3,0.0,1.0,12,40.0,30.0,3,0.701,0.0,102.755,0.1,1,2019-02-12 09:13:27.000,15,2019-02-12 09:15:07.868,0.25,90,-180,-180,90,1
6,0,119.553,0,0,1,0.25,2,3,0.0,1.0,12,40.0,30.0,3,0.626,1.0,121.898,0.0,0,2019-02-12 09:13:27.000,15,2019-02-12 09:15:26.553,0.25,-90,-180,-180,-90,1
9,0,152.709,0,0,1,0.25,2,9,0.0,1.0,6,40.0,30.0,9,0.47600000000000003,1.0,154.028,0.2,1,2019-02-12 09:13:27.000,15,2019-02-12 09:15:59.709,0.25,-90,0,0,-90,1
10,0,170.94799999999998,0,0,1,0.25,2,9,0.0,1.0,6,40.0,30.0,9,0.701,1.0,172.09599999999998,0.2,1,2019-02-12 09:13:27.000,15,2019-02-12 09:16:17.948,0.25,-90,0,0,-90,1
11,0,188.785,0,0,1,0.25,2,9,0.0,1.0,6,40.0,30.0,9,0.401,1.0,190.435,0.2,1,2019-02-12 09:13:27.000,15,2019-02-12 09:16:35.785,0.25,-90,0,0,-90,1
12,0,207.43900000000002,0,0,1,0.25,2,9,0.0,1.0,6,40.0,30.0,9,0.551,1.0,208.743,0.2,1,2019-02-12 09:13:27.000,15,2019-02-12 09:16:54.439,0.25,-90,0,0,-90,1
13,0,224.582,0,0,1,0.25,2,9,0.0,1.0,6,40.0,30.0,9,0.626,1.0,225.998,0.2,1,2019-02-12 09:13:27.000,15,2019-02-12 09:17:11.582,0.25,-90,0,0,-90,1
14,0,267.153,0,0,1,0.25,2,3,0.0,1.0,12,40.0,30.0,3,0.701,1.0,268.54,0.0,0,2019-02-12 09:13:27.000,15,2019-02-12 09:17:54.153,0.25,-90,-180,-180,-90,1
16,0,278.95799999999997,0,0,1,0.25,2,3,0.0,1.0,12,40.0,30.0,3,0.701,0.0,280.374,0.1,1,2019-02-12 09:13:27.000,15,2019-02-12 09:18:05.958,0.25,90,-180,-180,90,1
17,0,296.462,0,0,1,0.25,2,9,0.0,1.0,6,40.0,30.0,9,0.551,1.0,297.654,0.2,1,2019-02-12 09:13:27.000,15,2019-02-12 09:18:23.462,0.25,-90,0,0,-90,1
18,0,318.645,0,0,1,0.25,2,9,0.0,1.0,6,40.0,30.0,9,0.401,1.0,320.447,0.2,1,2019-02-12 09:13:27.000,15,2019-02-12 09:18:45.645,0.25,-90,0,0,-90,1
19,0,342.337,0,0,1,0.25,2,9,0.0,1.0,6,40.0,30.0,9,0.47600000000000003,1.0,343.914,0.2,1,2019-02-12 09:13:27.000,15,2019-02-12 09:19:09.337,0.25,-90,0,0,-90,1
20,0,360.36699999999996,0,0,1,0.25,2,3,0.0,1.0,12,40.0,30.0,3,0.626,0.0,362.524,0.1,1,2019-02-12 09:13:27.000,15,2019-02-12 09:19:27.367,0.25,90,-180,-180,90,1
21,0,369.10900000000004,0,0,1,0.25,2,3,0.0,1.0,12,40.0,30.0,3,0.626,0.0,370.727,0.1,1,2019-02-12 09:13:27.000,15,2019-02-12 09:19:36.109,0.25,90,-180,-180,90,1
22,0,377.259,0,0,1,0.25,2,3,0.0,1.0,12,40.0,30.0,3,0.701,0.0,378.91,0.1,1,2019-02-12 09:13:27.000,15,2019-02-12 09:19:44.259,0.25,90,-180,-180,90,1
23,0,396.57099999999997,0,0,1,0.25,2,3,0.0,1.0,12,40.0,30.0,3,0.47600000000000003,1.0,397.788,0.0,0,2019-02-12 09:13:27.000,15,2019-02-12 09:20:03.571,0.25,-90,-180,-180,-90,1
25,0,408.042,0,0,1,0.25,2,3,0.0,1.0,12,40.0,30.0,3,0.551,0.0,409.366,0.1,1,2019-02-12 09:13:27.000,15,2019-02-12 09:20:15.042,0.25,90,-180,-180,90,1
26,0,427.793,0,0,1,0.25,2,9,0.0,1.0,6,40.0,30.0,9,0.401,1.0,429.228,0.2,1,2019-02-12 09:13:27.000,15,2019-02-12 09:20:34.793,0.25,-90,0,0,-90,1
27,0,443.94300000000004,0,0,1,0.25,2,9,0.0,1.0,6,40.0,30.0,9,0.551,1.0,445.76300000000003,0.2,1,2019-02-12 09:13:27.000,15,2019-02-12 09:20:50.943,0.25,-90,0,0,-90,1
28,0,460.224,0,0,1,0.25,2,9,0.0,1.0,6,40.0,30.0,9,0.701,1.0,461.714,0.2,1,2019-02-12 09:13:27.000,15,2019-02-12 09:21:07.224,0.25,-90,0,0,-90,1
29,0,484.44800000000004,0,0,1,0.25,2,9,0.0,1.0,6,40.0,30.0,9,0.47600000000000003,1.0,486.19699999999995,0.2,1,2019-02-12 09:13:27.000,15,2019-02-12 09:21:31.448,0.25,-90,0,0,-90,1
30,0,509.29,0,0,1,0.25,2,3,0.0,1.0,12,40.0,30.0,3,0.626,0.0,510.779,0.1,1,2019-02-12 09:13:27.000,15,2019-02-12 09:21:56.290,0.25,90,-180,-180,90,1
31,0,517.929,0,0,1,0.25,2,9,0.0,1.0,6,40.0,30.0,9,0.47600000000000003,0.0,519.682,0.0,0,2019-02-12 09:13:27.000,15,2019-02-12 09:22:04.929,0.25,90,0,0,90,1
33,0,560.25,0,0,1,0.25,2,9,0.0,1.0,6,40.0,30.0,9,0.401,1.0,562.2719999999999,0.2,1,2019-02-12 09:13:27.000,15,2019-02-12 09:22:47.250,0.25,-90,0,0,-90,1
34,0,586.1519999999999,0,0,1,0.25,2,3,0.0,1.0,12,40.0,30.0,3,0.701,0.0,587.759,0.1,1,2019-02-12 09:13:27.000,15,2019-02-12 09:23:13.152,0.25,90,-180,-180,90,1
35,0,603.565,0,0,1,0.25,2,9,0.0,1.0,6,40.0,30.0,9,0.551,1.0,605.674,0.1,1,2019-02-12 09:13:27.000,15,2019-02-12 09:23:30.565,0.25,-90,0,0,-90,1
36,0,617.068,0,0,1,0.25,2,9,0.0,1.0,6,40.0,30.0,9,0.47600000000000003,1.0,618.47,0.2,1,2019-02-12 09:13:27.000,15,2019-02-12 09:23:44.068,0.25,-90,0,0,-90,1
37,0,634.232,0,0,1,0.25,2,3,0.0,1.0,12,40.0,30.0,3,0.551,0.0,636.3,0.1,1,2019-02-12 09:13:27.000,15,2019-02-12 09:24:01.232,0.25,90,-180,-180,90,1
38,0,642.905,1,0,1,0.25,2,3,0.0,1.0,12,40.0,30.0,3,0.626,0.0,647.5509999999999,0.1,1,2019-02-12 09:13:27.000,15,2019-02-12 09:24:09.905,0.25,90,-180,-180,90,1
39,0,666.4169999999999,0,0,1,0.25,2,3,0.0,1.0,12,40.0,30.0,3,0.701,1.0,667.951,0.0,0,2019-02-12 09:13:27.000,15,2019-02-12 09:24:33.417,0.25,-90,-180,-180,-90,1
44,0,723.95,0,0,1,0.25,2,3,0.0,1.0,12,40.0,30.0,3,0.47600000000000003,0.0,725.893,0.1,1,2019-02-12 09:13:27.000,15,2019-02-12 09:25:30.950,0.25,90,-180,-180,90,1
45,0,741.448,0,0,1,0.25,2,9,0.0,1.0,6,40.0,30.0,9,0.701,1.0,742.8689999999999,0.2,1,2019-02-12 09:13:27.000,15,2019-02-12 09:25:48.448,0.25,-90,0,0,-90,1
46,0,756.71,0,0,1,0.25,2,3,0.0,1.0,12,40.0,30.0,3,0.551,0.0,759.04,0.1,1,2019-02-12 09:13:27.000,15,2019-02-12 09:26:03.710,0.25,90,-180,-180,90,1
47,0,770.6110000000001,0,0,1,0.25,2,3,0.0,1.0,12,40.0,30.0,3,0.626,0.0,772.171,0.1,1,2019-02-12 09:13:27.000,15,2019-02-12 09:26:17.611,0.25,90,-180,-180,90,1
48,0,784.722,0,0,1,0.25,2,9,0.0,1.0,6,40.0,30.0,9,0.701,1.0,785.9860000000001,0.2,1,2019-02-12 09:13:27.000,15,2019-02-12 09:26:31.722,0.25,-90,0,0,-90,1
49,0,802.2660000000001,0,0,1,0.25,2,3,0.0,1.0,12,40.0,30.0,3,0.47600000000000003,0.0,804.71,0.1,1,2019-02-12 09:13:27.000,15,2019-02-12 09:26:49.266,0.25,90,-180,-180,90,1
50,0,811.6560000000001,0,0,1,0.25,2,3,0.0,1.0,12,40.0,30.0,3,0.401,0.0,813.278,0.1,1,2019-02-12 09:13:27.000,15,2019-02-12 09:26:58.656,0.25,90,-180,-180,90,1
51,0,820.201,0,0,1,0.25,2,9,0.0,1.0,6,40.0,30.0,9,0.551,1.0,822.789,0.2,1,2019-02-12 09:13:27.000,15,2019-02-12 09:27:07.201,0.25,-90,0,0,-90,1
52,0,838.462,0,0,1,0.25,2,3,0.0,1.0,12,40.0,30.0,3,0.626,0.0,840.706,0.1,1,2019-02-12 09:13:27.000,15,2019-02-12 09:27:25.462,0.25,90,-180,-180,90,1
1,0,22.141,0,0,1,0.25,2,3,0.0,1.0,12,40.0,30.0,3,0.551,1.0,23.901999999999997,0.0,0,2019-02-12 14:31:50.000,27,2019-02-12 14:32:12.141,0.25,-90,-180,-180,-90,1
3,0,38.196,0,0,1,0.25,2,3,0.0,1.0,12,40.0,30.0,3,0.401,0.0,40.041,0.1,1,2019-02-12 14:31:50.000,27,2019-02-12 14:32:28.196,0.25,90,-180,-180,90,1
4,0,46.516999999999996,0,0,1,0.25,2,9,0.0,1.0,6,40.0,30.0,9,0.626,1.0,48.503,0.2,1,2019-02-12 14:31:50.000,27,2019-02-12 14:32:36.517,0.25,-90,0,0,-90,1
5,0,64.778,0,0,1,0.25,2,9,0.0,1.0,6,40.0,30.0,9,0.701,1.0,66.125,0.2,1,2019-02-12 14:31:50.000,27,2019-02-12 14:32:54.778,0.25,-90,0,0,-90,1
6,0,82.265,0,0,1,0.25,2,3,0.0,1.0,12,40.0,30.0,3,0.626,1.0,83.86,0.0,0,2019-02-12 14:31:50.000,27,2019-02-12 14:33:12.265,0.25,-90,-180,-180,-90,1
8,0,99.837,0,0,1,0.25,2,3,0.0,1.0,12,40.0,30.0,3,0.47600000000000003,0.0,101.37,0.1,1,2019-02-12 14:31:50.000,27,2019-02-12 14:33:29.837,0.25,90,-180,-180,90,1
9,0,108.49600000000001,0,0,1,0.25,2,3,0.0,1.0,12,40.0,30.0,3,0.551,0.0,109.875,0.1,1,2019-02-12 14:31:50.000,27,2019-02-12 14:33:38.496,0.25,90,-180,-180,90,1
10,0,123.50200000000001,0,0,1,0.25,2,9,0.0,1.0,6,40.0,30.0,9,0.701,1.0,125.682,0.2,1,2019-02-12 14:31:50.000,27,2019-02-12 14:33:53.502,0.25,-90,0,0,-90,1
11,0,142.011,0,0,1,0.25,2,3,0.0,1.0,12,40.0,30.0,3,0.626,1.0,143.737,0.0,0,2019-02-12 14:31:50.000,27,2019-02-12 14:34:12.011,0.25,-90,-180,-180,-90,1
13,0,156.088,0,0,1,0.25,2,3,0.0,1.0,12,40.0,30.0,3,0.401,0.0,157.57,0.1,1,2019-02-12 14:31:50.000,27,2019-02-12 14:34:26.088,0.25,90,-180,-180,90,1
14,0,172.543,0,0,1,0.25,2,9,0.0,1.0,6,40.0,30.0,9,0.47600000000000003,1.0,173.857,0.2,1,2019-02-12 14:31:50.000,27,2019-02-12 14:34:42.543,0.25,-90,0,0,-90,1
15,0,188.22299999999998,0,0,1,0.25,2,9,0.0,1.0,6,40.0,30.0,9,0.701,1.0,189.58599999999998,0.2,1,2019-02-12 14:31:50.000,27,2019-02-12 14:34:58.223,0.25,-90,0,0,-90,1
16,0,205.46400000000003,0,0,1,0.25,2,3,0.0,1.0,12,40.0,30.0,3,0.47600000000000003,1.0,207.22299999999998,0.0,0,2019-02-12 14:31:50.000,27,2019-02-12 14:35:15.464,0.25,-90,-180,-180,-90,1
18,0,218.43400000000003,0,0,1,0.25,2,3,0.0,1.0,12,40.0,30.0,3,0.626,0.0,219.74900000000002,0.1,1,2019-02-12 14:31:50.000,27,2019-02-12 14:35:28.434,0.25,90,-180,-180,90,1
19,0,232.857,0,0,1,0.25,2,9,0.0,1.0,6,40.0,30.0,9,0.701,1.0,235.19099999999997,0.2,1,2019-02-12 14:31:50.000,27,2019-02-12 14:35:42.857,0.25,-90,0,0,-90,1
20,0,251.697,0,0,1,0.25,2,9,0.0,1.0,6,40.0,30.0,9,0.401,1.0,253.023,0.2,1,2019-02-12 14:31:50.000,27,2019-02-12 14:36:01.697,0.25,-90,0,0,-90,1
21,0,267.91200000000003,0,0,1,0.25,2,9,0.0,1.0,6,40.0,30.0,9,0.401,1.0,269.52299999999997,0.2,1,2019-02-12 14:31:50.000,27,2019-02-12 14:36:17.912,0.25,-90,0,0,-90,1
22,0,286.642,0,0,1,0.25,2,3,0.0,1.0,12,40.0,30.0,3,0.701,1.0,288.808,0.0,0,2019-02-12 14:31:50.000,27,2019-02-12 14:36:36.642,0.25,-90,-180,-180,-90,1
24,0,320.677,0,0,1,0.25,2,9,0.0,1.0,6,40.0,30.0,9,0.626,1.0,322.362,0.2,1,2019-02-12 14:31:50.000,27,2019-02-12 14:37:10.677,0.25,-90,0,0,-90,1
25,0,338.45599999999996,0,0,1,0.25,2,9,0.0,1.0,6,40.0,30.0,9,0.47600000000000003,1.0,340.551,0.2,1,2019-02-12 14:31:50.000,27,2019-02-12 14:37:28.456,0.25,-90,0,0,-90,1
26,0,358.365,0,0,1,0.25,2,9,0.0,1.0,6,40.0,30.0,9,0.626,1.0,359.92900000000003,0.2,1,2019-02-12 14:31:50.000,27,2019-02-12 14:37:48.365,0.25,-90,0,0,-90,1
27,0,376.788,0,0,1,0.25,2,9,0.0,1.0,6,40.0,30.0,9,0.47600000000000003,0.0,379.92900000000003,0.0,0,2019-02-12 14:31:50.000,27,2019-02-12 14:38:06.788,0.25,90,0,0,90,1
29,0,405.642,0,0,1,0.25,2,3,0.0,1.0,12,40.0,30.0,3,0.701,0.0,407.707,0.1,1,2019-02-12 14:31:50.000,27,2019-02-12 14:38:35.642,0.25,90,-180,-180,90,1
30,0,419.39099999999996,0,0,1,0.25,2,9,0.0,1.0,6,40.0,30.0,9,0.551,0.0,421.58,0.0,0,2019-02-12 14:31:50.000,27,2019-02-12 14:38:49.391,0.25,90,0,0,90,1
32,0,448.559,0,0,1,0.25,2,3,0.0,1.0,12,40.0,30.0,3,0.401,0.0,451.01599999999996,0.1,1,2019-02-12 14:31:50.000,27,2019-02-12 14:39:18.559,0.25,90,-180,-180,90,1
33,0,457.288,0,0,1,0.25,2,3,0.0,1.0,12,40.0,30.0,3,0.626,0.0,458.827,0.1,1,2019-02-12 14:31:50.000,27,2019-02-12 14:39:27.288,0.25,90,-180,-180,90,1
34,0,466.11199999999997,0,0,1,0.25,2,9,0.0,1.0,6,40.0,30.0,9,0.47600000000000003,0.0,467.914,0.0,0,2019-02-12 14:31:50.000,27,2019-02-12 14:39:36.112,0.25,90,0,0,90,1
36,0,503.67800000000005,0,0,1,0.25,2,9,0.0,1.0,6,40.0,30.0,9,0.401,1.0,505.816,0.2,1,2019-02-12 14:31:50.000,27,2019-02-12 14:40:13.678,0.25,-90,0,0,-90,1
37,0,522.617,0,0,1,0.25,2,3,0.0,1.0,12,40.0,30.0,3,0.626,0.0,525.506,0.1,1,2019-02-12 14:31:50.000,27,2019-02-12 14:40:32.617,0.25,90,-180,-180,90,1
38,0,532.367,0,0,1,0.25,2,9,0.0,1.0,6,40.0,30.0,9,0.551,0.0,533.953,0.0,0,2019-02-12 14:31:50.000,27,2019-02-12 14:40:42.367,0.25,90,0,0,90,1
40,0,565.077,0,0,1,0.25,2,3,0.0,1.0,12,40.0,30.0,3,0.701,0.0,567.436,0.1,1,2019-02-12 14:31:50.000,27,2019-02-12 14:41:15.077,0.25,90,-180,-180,90,1
41,0,573.648,0,0,1,0.25,2,3,0.0,1.0,12,40.0,30.0,3,0.47600000000000003,0.0,575.577,0.1,1,2019-02-12 14:31:50.000,27,2019-02-12 14:41:23.648,0.25,90,-180,-180,90,1
42,0,596.951,0,0,1,0.25,2,9,0.0,1.0,6,40.0,30.0,9,0.701,1.0,598.607,0.2,1,2019-02-12 14:31:50.000,27,2019-02-12 14:41:46.951,0.25,-90,0,0,-90,1
43,0,617.018,0,0,1,0.25,2,3,0.0,1.0,12,40.0,30.0,3,0.401,0.0,619.581,0.1,1,2019-02-12 14:31:50.000,27,2019-02-12 14:42:07.018,0.25,90,-180,-180,90,1
44,0,625.741,0,0,1,0.25,2,9,0.0,1.0,6,40.0,30.0,9,0.551,1.0,627.952,0.2,1,2019-02-12 14:31:50.000,27,2019-02-12 14:42:15.741,0.25,-90,0,0,-90,1
45,0,645.784,0,0,1,0.25,2,9,0.0,1.0,6,40.0,30.0,9,0.626,1.0,647.453,0.2,1,2019-02-12 14:31:50.000,27,2019-02-12 14:42:35.784,0.25,-90,0,0,-90,1
46,0,664.711,0,0,1,0.25,2,3,0.0,1.0,12,40.0,30.0,3,0.551,0.0,667.41,0.1,1,2019-02-12 14:31:50.000,27,2019-02-12 14:42:54.711,0.25,90,-180,-180,90,1
47,0,674.403,0,0,1,0.25,2,3,0.0,1.0,12,40.0,30.0,3,0.47600000000000003,0.0,676.2289999999999,0.1,1,2019-02-12 14:31:50.000,27,2019-02-12 14:43:04.403,0.25,90,-180,-180,90,1
48,0,690.9580000000001,0,0,1,0.25,2,9,0.0,1.0,6,40.0,30.0,9,0.701,1.0,693.301,0.2,1,2019-02-12 14:31:50.000,27,2019-02-12 14:43:20.958,0.25,-90,0,0,-90,1
49,0,712.4019999999999,1,0,1,0.25,2,3,0.0,1.0,12,40.0,30.0,3,0.401,1.0,726.317,0.0,0,2019-02-12 14:31:50.000,27,2019-02-12 14:43:42.402,0.25,-90,-180,-180,-90,1
51,0,737.682,0,0,1,0.25,2,9,0.0,1.0,6,40.0,30.0,9,0.701,0.0,739.6560000000001,0.0,0,2019-02-12 14:31:50.000,27,2019-02-12 14:44:07.682,0.25,90,0,0,90,1
53,0,767.92,0,0,1,0.25,2,3,0.0,1.0,12,40.0,30.0,3,0.47600000000000003,0.0,770.579,0.1,1,2019-02-12 14:31:50.000,27,2019-02-12 14:44:37.920,0.25,90,-180,-180,90,1
54,0,777.01,0,0,1,0.25,2,3,0.0,1.0,12,40.0,30.0,3,0.626,0.0,778.7669999999999,0.1,1,2019-02-12 14:31:50.000,27,2019-02-12 14:44:47.010,0.25,90,-180,-180,90,1
55,0,804.742,0,0,1,0.25,2,3,0.0,1.0,12,40.0,30.0,3,0.401,1.0,806.539,0.0,0,2019-02-12 14:31:50.000,27,2019-02-12 14:45:14.742,0.25,-90,-180,-180,-90,1
57,0,817.904,0,0,1,0.25,2,9,0.0,1.0,6,40.0,30.0,9,0.626,1.0,820.706,0.2,1,2019-02-12 14:31:50.000,27,2019-02-12 14:45:27.904,0.25,-90,0,0,-90,1
58,0,836.7239999999999,0,0,1,0.25,2,3,0.0,1.0,12,40.0,30.0,3,0.47600000000000003,0.0,839.623,0.1,1,2019-02-12 14:31:50.000,27,2019-02-12 14:45:46.724,0.25,90,-180,-180,90,1
59,0,845.738,0,0,1,0.25,2,3,0.0,1.0,12,40.0,30.0,3,0.401,0.0,847.692,0.1,1,2019-02-12 14:31:50.000,27,2019-02-12 14:45:55.738,0.25,90,-180,-180,90,1
60,0,862.341,0,0,1,0.25,2,9,0.0,1.0,6,40.0,30.0,9,0.701,1.0,865.5310000000001,0.2,1,2019-02-12 14:31:50.000,27,2019-02-12 14:46:12.341,0.25,-90,0,0,-90,1
61,0,880.8919999999999,0,0,1,0.25,2,3,0.0,1.0,12,40.0,30.0,3,0.626,0.0,883.502,0.1,1,2019-02-12 14:31:50.000,27,2019-02-12 14:46:30.892,0.25,90,-180,-180,90,1
62,0,889.54,0,0,1,0.25,2,3,0.0,1.0,12,40.0,30.0,3,0.551,0.0,891.362,0.1,1,2019-02-12 14:31:50.000,27,2019-02-12 14:46:39.540,0.25,90,-180,-180,90,1
63,0,905.675,0,0,1,0.25,2,3,0.0,1.0,12,40.0,30.0,3,0.701,0.0,907.415,0.1,1,2019-02-12 14:31:50.000,27,2019-02-12 14:46:55.675,0.25,90,-180,-180,90,1
64,0,922.903,0,0,1,0.25,2,9,0.0,1.0,6,40.0,30.0,9,0.47600000000000003,1.0,924.913,0.2,1,2019-02-12 14:31:50.000,27,2019-02-12 14:47:12.903,0.25,-90,0,0,-90,1
65,0,939.3389999999999,0,0,1,0.25,2,9,0.0,1.0,6,40.0,30.0,9,0.401,1.0,941.41,0.2,1,2019-02-12 14:31:50.000,27,2019-02-12 14:47:29.339,0.25,-90,0,0,-90,1
66,0,955.914,0,0,1,0.25,2,9,0.0,1.0,6,40.0,30.0,9,0.401,1.0,957.945,0.2,1,2019-02-12 14:31:50.000,27,2019-02-12 14:47:45.914,0.25,-90,0,0,-90,1
67,0,977.1419999999999,0,0,1,0.25,2,3,0.0,1.0,12,40.0,30.0,3,0.47600000000000003,0.0,979.823,0.1,1,2019-02-12 14:31:50.000,27,2019-02-12 14:48:07.142,0.25,90,-180,-180,90,1
68,0,986.427,0,0,1,0.25,2,9,0.0,1.0,6,40.0,30.0,9,0.551,0.0,988.314,0.0,0,2019-02-12 14:31:50.000,27,2019-02-12 14:48:16.427,0.25,90,0,0,90,1
70,0,1018.023,0,0,1,0.25,2,9,0.0,1.0,6,40.0,30.0,9,0.701,1.0,1019.61,0.2,1,2019-02-12 14:31:50.000,27,2019-02-12 14:48:48.023,0.25,-90,0,0,-90,1
71,0,1035.673,0,0,1,0.25,2,3,0.0,1.0,12,40.0,30.0,3,0.551,0.0,1038.0330000000001,0.1,1,2019-02-12 14:31:50.000,27,2019-02-12 14:49:05.673,0.25,90,-180,-180,90,1
72,0,1044.787,0,0,1,0.25,2,9,0.0,1.0,6,40.0,30.0,9,0.401,0.0,1046.933,0.0,0,2019-02-12 14:31:50.000,27,2019-02-12 14:49:14.787,0.25,90,0,0,90,1
74,0,1080.9080000000001,0,0,1,0.25,2,9,0.0,1.0,6,40.0,30.0,9,0.47600000000000003,1.0,1082.947,0.2,1,2019-02-12 14:31:50.000,27,2019-02-12 14:49:50.908,0.25,-90,0,0,-90,1
75,0,1099.253,0,0,1,0.25,2,9,0.0,1.0,6,40.0,30.0,9,0.701,1.0,1100.864,0.2,1,2019-02-12 14:31:50.000,27,2019-02-12 14:50:09.253,0.25,-90,0,0,-90,1
76,0,1116.1789999999999,0,0,1,0.25,2,3,0.0,1.0,12,40.0,30.0,3,0.401,0.0,1118.65,0.1,1,2019-02-12 14:31:50.000,27,2019-02-12 14:50:26.179,0.25,90,-180,-180,90,1
77,0,1126.276,0,0,1,0.25,2,9,0.0,1.0,6,40.0,30.0,9,0.551,1.0,1128.745,0.2,1,2019-02-12 14:31:50.000,27,2019-02-12 14:50:36.276,0.25,-90,0,0,-90,1
78,0,1145.105,0,0,1,0.25,2,3,0.0,1.0,12,40.0,30.0,3,0.701,0.0,1147.73,0.1,1,2019-02-12 14:31:50.000,27,2019-02-12 14:50:55.105,0.25,90,-180,-180,90,1
79,0,1155.3010000000002,0,0,1,0.25,2,9,0.0,1.0,6,40.0,30.0,9,0.626,0.0,1156.943,0.0,0,2019-02-12 14:31:50.000,27,2019-02-12 14:51:05.301,0.25,90,0,0,90,1
81,0,1202.268,0,0,1,0.25,2,9,0.0,1.0,6,40.0,30.0,9,0.701,1.0,1203.9669999999999,0.2,1,2019-02-12 14:31:50.000,27,2019-02-12 14:51:52.268,0.25,-90,0,0,-90,1
82,0,1224.512,0,0,1,0.25,2,9,0.0,1.0,6,40.0,30.0,9,0.551,1.0,1225.989,0.2,1,2019-02-12 14:31:50.000,27,2019-02-12 14:52:14.512,0.25,-90,0,0,-90,1
83,0,1241.5330000000001,0,0,1,0.25,2,9,0.0,1.0,6,40.0,30.0,9,0.401,0.0,1244.132,0.0,0,2019-02-12 14:31:50.000,27,2019-02-12 14:52:31.533,0.25,90,0,0,90,1
85,0,1288.935,0,0,1,0.25,2,9,0.0,1.0,6,40.0,30.0,9,0.47600000000000003,1.0,1290.5710000000001,0.2,1,2019-02-12 14:31:50.000,27,2019-02-12 14:53:18.935,0.25,-90,0,0,-90,1
1,0,74.666,0,30,1,0.3,2,3,0.0,1.0,11,40.0,30.0,3,0.768,1.0,76.469,0.0,0,2019-02-13 10:04:37.000,8,2019-02-13 10:05:51.666,0.3,-90,-150,-180,-120,1
1,0,16.284000000000002,0,30,1,0.25,2,9,0.0,1.0,6,40.0,30.0,9,0.401,1.0,18.680999999999997,0.2,1,2019-02-13 10:07:17.000,34,2019-02-13 10:07:33.284,0.25,-90,0,-30,-120,0
2,0,62.949,0,30,1,0.25,2,9,0.0,1.0,6,40.0,30.0,9,0.47600000000000003,1.0,64.473,0.2,1,2019-02-13 10:07:17.000,34,2019-02-13 10:08:19.949,0.25,-90,0,-30,-120,0
3,0,83.376,0,30,1,0.25,2,9,0.0,1.0,6,40.0,30.0,9,0.551,1.0,84.919,0.2,1,2019-02-13 10:07:17.000,34,2019-02-13 10:08:40.376,0.25,-90,0,-30,-120,0
4,0,103.94200000000001,0,30,1,0.25,2,9,0.0,1.0,6,40.0,30.0,9,0.626,1.0,105.492,0.2,1,2019-02-13 10:07:17.000,34,2019-02-13 10:09:00.942,0.25,-90,0,-30,-120,0
5,0,123.936,0,30,1,0.25,2,9,0.0,1.0,6,40.0,30.0,9,0.701,1.0,125.62,0.2,1,2019-02-13 10:07:17.000,34,2019-02-13 10:09:20.936,0.25,-90,0,-30,-120,0
6,0,144.02200000000002,0,30,1,0.25,2,9,0.0,1.0,6,40.0,30.0,9,0.626,1.0,145.526,0.2,1,2019-02-13 10:07:17.000,34,2019-02-13 10:09:41.022,0.25,-90,0,-30,-120,0
7,0,165.21900000000002,0,30,1,0.25,2,3,0.0,1.0,12,40.0,30.0,3,0.551,0.0,167.30200000000002,0.1,1,2019-02-13 10:07:17.000,34,2019-02-13 10:10:02.219,0.25,90,-180,150,60,0
8,0,173.41,0,30,1,0.25,2,9,0.0,1.0,6,40.0,30.0,9,0.47600000000000003,1.0,175.4,0.1,1,2019-02-13 10:07:17.000,34,2019-02-13 10:10:10.410,0.25,-90,0,-30,-120,0
9,0,187.30700000000002,0,30,1,0.25,2,9,0.0,1.0,6,40.0,30.0,9,0.701,1.0,188.649,0.2,1,2019-02-13 10:07:17.000,34,2019-02-13 10:10:24.307,0.25,-90,0,-30,-120,0
10,0,206.196,0,30,1,0.25,2,9,0.0,1.0,6,40.0,30.0,9,0.401,1.0,209.03,0.2,1,2019-02-13 10:07:17.000,34,2019-02-13 10:10:43.196,0.25,-90,0,-30,-120,0
11,0,228.71599999999998,0,30,1,0.25,2,3,0.0,1.0,12,40.0,30.0,3,0.701,0.0,230.96,0.1,1,2019-02-13 10:07:17.000,34,2019-02-13 10:11:05.716,0.25,90,-180,150,60,0
12,0,236.81799999999998,0,30,1,0.25,2,3,0.0,1.0,12,40.0,30.0,3,0.551,0.0,238.372,0.05,1,2019-02-13 10:07:17.000,34,2019-02-13 10:11:13.818,0.25,90,-180,150,60,0
13,0,352.596,0,30,1,0.25,2,3,0.0,1.0,12,40.0,30.0,3,0.626,1.0,353.971,0.0,0,2019-02-13 10:07:17.000,34,2019-02-13 10:13:09.596,0.25,-90,-180,150,-120,0
16,0,374.355,0,30,1,0.25,2,3,0.0,1.0,12,40.0,30.0,3,0.401,0.0,375.94800000000004,0.1,1,2019-02-13 10:07:17.000,34,2019-02-13 10:13:31.355,0.25,90,-180,150,60,0
17,0,430.25800000000004,0,30,1,0.25,2,9,0.0,1.0,6,40.0,30.0,9,0.551,1.0,431.73800000000006,0.2,1,2019-02-13 10:07:17.000,34,2019-02-13 10:14:27.258,0.25,-90,0,-30,-120,0
18,0,450.28,0,30,1,0.25,2,3,0.0,1.0,12,40.0,30.0,3,0.701,0.0,452.538,0.1,1,2019-02-13 10:07:17.000,34,2019-02-13 10:14:47.280,0.25,90,-180,150,60,0
19,0,459.319,0,30,1,0.25,2,3,0.0,1.0,12,40.0,30.0,3,0.47600000000000003,0.0,461.42400000000004,0.1,1,2019-02-13 10:07:17.000,34,2019-02-13 10:14:56.319,0.25,90,-180,150,60,0
20,0,467.184,0,30,1,0.25,2,3,0.0,1.0,12,40.0,30.0,3,0.551,0.0,468.897,0.1,1,2019-02-13 10:07:17.000,34,2019-02-13 10:15:04.184,0.25,90,-180,150,60,0
21,0,488.63,0,30,1,0.25,2,3,0.0,1.0,12,40.0,30.0,3,0.401,1.0,490.30699999999996,0.0,0,2019-02-13 10:07:17.000,34,2019-02-13 10:15:25.630,0.25,-90,-180,150,-120,0
23,0,514.8340000000001,0,30,1,0.25,2,3,0.0,1.0,12,40.0,30.0,3,0.701,0.0,516.3430000000001,0.1,1,2019-02-13 10:07:17.000,34,2019-02-13 10:15:51.834,0.25,90,-180,150,60,0
24,0,538.379,1,30,1,0.25,2,9,0.0,1.0,6,40.0,30.0,9,0.701,1.0,550.237,0.2,1,2019-02-13 10:07:17.000,34,2019-02-13 10:16:15.379,0.25,-90,0,-30,-120,0
25,0,566.011,0,30,1,0.25,2,9,0.0,1.0,6,40.0,30.0,9,0.551,0.0,568.4580000000001,0.0,0,2019-02-13 10:07:17.000,34,2019-02-13 10:16:43.011,0.25,90,0,-30,60,0
27,0,600.018,0,30,1,0.25,2,9,0.0,1.0,6,40.0,30.0,9,0.47600000000000003,1.0,602.661,0.2,1,2019-02-13 10:07:17.000,34,2019-02-13 10:17:17.018,0.25,-90,0,-30,-120,0
28,0,622.771,0,30,1,0.25,2,3,0.0,1.0,12,40.0,30.0,3,0.401,0.0,625.026,0.1,1,2019-02-13 10:07:17.000,34,2019-02-13 10:17:39.771,0.25,90,-180,150,60,0
29,0,630.344,0,30,1,0.25,2,9,0.0,1.0,6,40.0,30.0,9,0.701,0.0,633.415,0.0,0,2019-02-13 10:07:17.000,34,2019-02-13 10:17:47.344,0.25,90,0,-30,60,0
31,0,694.434,0,30,1,0.25,2,3,0.0,1.0,12,40.0,30.0,3,0.401,0.0,696.475,0.1,1,2019-02-13 10:07:17.000,34,2019-02-13 10:18:51.434,0.25,90,-180,150,60,0
32,0,724.1289999999999,0,30,1,0.25,2,9,0.0,1.0,6,40.0,30.0,9,0.47600000000000003,1.0,726.563,0.2,1,2019-02-13 10:07:17.000,34,2019-02-13 10:19:21.129,0.25,-90,0,-30,-120,0
33,0,749.54,0,30,1,0.25,2,9,0.0,1.0,6,40.0,30.0,9,0.401,1.0,751.158,0.2,1,2019-02-13 10:07:17.000,34,2019-02-13 10:19:46.540,0.25,-90,0,-30,-120,0
34,0,818.404,0,30,1,0.25,2,9,0.0,1.0,6,40.0,30.0,9,0.47600000000000003,1.0,820.314,0.2,1,2019-02-13 10:07:17.000,34,2019-02-13 10:20:55.404,0.25,-90,0,-30,-120,0
35,0,832.295,0,30,1,0.25,2,3,0.0,1.0,12,40.0,30.0,3,0.551,0.0,834.847,0.1,1,2019-02-13 10:07:17.000,34,2019-02-13 10:21:09.295,0.25,90,-180,150,60,0
1,0,27.855999999999998,0,0,1,0.25,2,3,0.0,1.0,12,40.0,30.0,3,0.551,1.0,29.910999999999998,0.0,0,2019-02-13 14:46:38.000,35,2019-02-13 14:47:05.856,0.25,-90,-180,-180,-90,1
3,0,45.86600000000001,0,0,1,0.25,2,3,0.0,1.0,12,40.0,30.0,3,0.401,0.0,47.772,0.1,1,2019-02-13 14:46:38.000,35,2019-02-13 14:47:23.866,0.25,90,-180,-180,90,1
4,0,57.45399999999999,0,0,1,0.25,2,3,0.0,1.0,12,40.0,30.0,3,0.701,0.0,58.848,0.1,1,2019-02-13 14:46:38.000,35,2019-02-13 14:47:35.454,0.25,90,-180,-180,90,1
5,0,71.229,0,0,1,0.25,2,3,0.0,1.0,12,40.0,30.0,3,0.626,1.0,72.551,0.0,0,2019-02-13 14:46:38.000,35,2019-02-13 14:47:49.229,0.25,-90,-180,-180,-90,1
7,0,83.18299999999999,0,0,1,0.25,2,9,0.0,1.0,6,40.0,30.0,9,0.401,0.0,85.126,0.0,0,2019-02-13 14:46:38.000,35,2019-02-13 14:48:01.183,0.25,90,0,0,90,1
9,0,117.559,0,0,1,0.25,2,9,0.0,1.0,6,40.0,30.0,9,0.47600000000000003,1.0,119.199,0.2,1,2019-02-13 14:46:38.000,35,2019-02-13 14:48:35.559,0.25,-90,0,0,-90,1
10,0,135.371,0,0,1,0.25,2,3,0.0,1.0,12,40.0,30.0,3,0.626,1.0,137.07,0.0,0,2019-02-13 14:46:38.000,35,2019-02-13 14:48:53.371,0.25,-90,-180,-180,-90,1
12,0,171.50900000000001,0,0,1,0.25,2,9,0.0,1.0,6,40.0,30.0,9,0.701,1.0,172.9,0.2,1,2019-02-13 14:46:38.000,35,2019-02-13 14:49:29.509,0.25,-90,0,0,-90,1
13,0,195.928,0,0,1,0.25,2,3,0.0,1.0,12,40.0,30.0,3,0.626,0.0,198.33599999999998,0.1,1,2019-02-13 14:46:38.000,35,2019-02-13 14:49:53.928,0.25,90,-180,-180,90,1
14,0,204.25400000000002,0,0,1,0.25,2,9,0.0,1.0,6,40.0,30.0,9,0.47600000000000003,0.0,206.451,0.0,0,2019-02-13 14:46:38.000,35,2019-02-13 14:50:02.254,0.25,90,0,0,90,1
16,0,228.981,0,0,1,0.25,2,9,0.0,1.0,6,40.0,30.0,9,0.47600000000000003,1.0,230.989,0.2,1,2019-02-13 14:46:38.000,35,2019-02-13 14:50:26.981,0.25,-90,0,0,-90,1
17,0,255.90200000000002,0,0,1,0.25,2,9,0.0,1.0,6,40.0,30.0,9,0.551,0.0,257.916,0.0,0,2019-02-13 14:46:38.000,35,2019-02-13 14:50:53.902,0.25,90,0,0,90,1
19,0,279.428,0,0,1,0.25,2,9,0.0,1.0,6,40.0,30.0,9,0.626,1.0,281.629,0.2,1,2019-02-13 14:46:38.000,35,2019-02-13 14:51:17.428,0.25,-90,0,0,-90,1
20,0,298.693,0,0,1,0.25,2,9,0.0,1.0,6,40.0,30.0,9,0.701,1.0,300.847,0.2,1,2019-02-13 14:46:38.000,35,2019-02-13 14:51:36.693,0.25,-90,0,0,-90,1
21,0,318.308,0,0,1,0.25,2,3,0.0,1.0,12,40.0,30.0,3,0.626,0.0,321.10400000000004,0.1,1,2019-02-13 14:46:38.000,35,2019-02-13 14:51:56.308,0.25,90,-180,-180,90,1
22,0,327.383,0,0,1,0.25,2,3,0.0,1.0,12,40.0,30.0,3,0.401,0.0,329.311,0.1,1,2019-02-13 14:46:38.000,35,2019-02-13 14:52:05.383,0.25,90,-180,-180,90,1
23,0,336.906,0,0,1,0.25,2,9,0.0,1.0,6,40.0,30.0,9,0.47600000000000003,1.0,339.33,0.1,1,2019-02-13 14:46:38.000,35,2019-02-13 14:52:14.906,0.25,-90,0,0,-90,1
24,0,350.29900000000004,0,0,1,0.25,2,3,0.0,1.0,12,40.0,30.0,3,0.551,0.0,352.925,0.1,1,2019-02-13 14:46:38.000,35,2019-02-13 14:52:28.299,0.25,90,-180,-180,90,1
25,0,364.59,0,0,1,0.25,2,9,0.0,1.0,6,40.0,30.0,9,0.701,1.0,366.57199999999995,0.2,1,2019-02-13 14:46:38.000,35,2019-02-13 14:52:42.590,0.25,-90,0,0,-90,1
26,0,390.519,0,0,1,0.25,2,3,0.0,1.0,12,40.0,30.0,3,0.626,0.0,393.07199999999995,0.1,1,2019-02-13 14:46:38.000,35,2019-02-13 14:53:08.519,0.25,90,-180,-180,90,1
27,0,400.324,0,0,1,0.25,2,3,0.0,1.0,12,40.0,30.0,3,0.47600000000000003,0.0,401.814,0.1,1,2019-02-13 14:46:38.000,35,2019-02-13 14:53:18.324,0.25,90,-180,-180,90,1
28,0,416.977,0,0,1,0.25,2,9,0.0,1.0,6,40.0,30.0,9,0.551,1.0,418.61400000000003,0.2,1,2019-02-13 14:46:38.000,35,2019-02-13 14:53:34.977,0.25,-90,0,0,-90,1
29,0,440.087,0,0,1,0.25,2,9,0.0,1.0,6,40.0,30.0,9,0.401,0.0,442.764,0.0,0,2019-02-13 14:46:38.000,35,2019-02-13 14:53:58.087,0.25,90,0,0,90,1
31,0,465.20099999999996,0,0,1,0.25,2,3,0.0,1.0,12,40.0,30.0,3,0.551,0.0,467.744,0.1,1,2019-02-13 14:46:38.000,35,2019-02-13 14:54:23.201,0.25,90,-180,-180,90,1
32,0,474.19,0,0,1,0.25,2,9,0.0,1.0,6,40.0,30.0,9,0.701,0.0,476.00199999999995,0.0,0,2019-02-13 14:46:38.000,35,2019-02-13 14:54:32.190,0.25,90,0,0,90,1
34,0,522.335,0,0,1,0.25,2,9,0.0,1.0,6,40.0,30.0,9,0.47600000000000003,0.0,524.686,0.0,0,2019-02-13 14:46:38.000,35,2019-02-13 14:55:20.335,0.25,90,0,0,90,1
37,0,565.83,0,0,1,0.25,2,9,0.0,1.0,6,40.0,30.0,9,0.551,0.0,567.604,0.0,0,2019-02-13 14:46:38.000,35,2019-02-13 14:56:03.830,0.25,90,0,0,90,1
39,0,617.3,0,0,1,0.25,2,3,0.0,1.0,12,40.0,30.0,3,0.47600000000000003,0.0,619.758,0.1,1,2019-02-13 14:46:38.000,35,2019-02-13 14:56:55.300,0.25,90,-180,-180,90,1
40,0,633.889,0,0,1,0.25,2,9,0.0,1.0,6,40.0,30.0,9,0.626,1.0,636.235,0.2,1,2019-02-13 14:46:38.000,35,2019-02-13 14:57:11.889,0.25,-90,0,0,-90,1
41,0,662.581,0,0,1,0.25,2,3,0.0,1.0,12,40.0,30.0,3,0.626,0.0,665.023,0.1,1,2019-02-13 14:46:38.000,35,2019-02-13 14:57:40.581,0.25,90,-180,-180,90,1
42,0,695.331,0,0,1,0.25,2,9,0.0,1.0,6,40.0,30.0,9,0.47600000000000003,1.0,697.37,0.2,1,2019-02-13 14:46:38.000,35,2019-02-13 14:58:13.331,0.25,-90,0,0,-90,1
43,0,713.829,0,0,1,0.25,2,3,0.0,1.0,12,40.0,30.0,3,0.551,0.0,716.034,0.1,1,2019-02-13 14:46:38.000,35,2019-02-13 14:58:31.829,0.25,90,-180,-180,90,1
44,0,723.5110000000001,0,0,1,0.25,2,3,0.0,1.0,12,40.0,30.0,3,0.701,0.0,725.188,0.1,1,2019-02-13 14:46:38.000,35,2019-02-13 14:58:41.511,0.25,90,-180,-180,90,1
45,0,750.694,0,0,1,0.25,2,9,0.0,1.0,6,40.0,30.0,9,0.401,1.0,752.995,0.2,1,2019-02-13 14:46:38.000,35,2019-02-13 14:59:08.694,0.25,-90,0,0,-90,1
46,0,769.2130000000001,0,0,1,0.25,2,3,0.0,1.0,12,40.0,30.0,3,0.551,0.0,771.65,0.1,1,2019-02-13 14:46:38.000,35,2019-02-13 14:59:27.213,0.25,90,-180,-180,90,1
47,0,777.7260000000001,0,0,1,0.25,2,3,0.0,1.0,12,40.0,30.0,3,0.401,0.0,779.6389999999999,0.1,1,2019-02-13 14:46:38.000,35,2019-02-13 14:59:35.726,0.25,90,-180,-180,90,1
48,0,822.91,0,0,1,0.25,2,3,0.0,1.0,12,40.0,30.0,3,0.626,1.0,824.605,0.0,0,2019-02-13 14:46:38.000,35,2019-02-13 15:00:20.910,0.25,-90,-180,-180,-90,1
50,0,842.7660000000001,0,0,1,0.25,2,9,0.0,1.0,6,40.0,30.0,9,0.47600000000000003,0.0,845.025,0.0,0,2019-02-13 14:46:38.000,35,2019-02-13 15:00:40.766,0.25,90,0,0,90,1
52,0,871.174,0,0,1,0.25,2,3,0.0,1.0,12,40.0,30.0,3,0.626,0.0,873.596,0.1,1,2019-02-13 14:46:38.000,35,2019-02-13 15:01:09.174,0.25,90,-180,-180,90,1
53,0,895.3,0,0,1,0.25,2,9,0.0,1.0,6,40.0,30.0,9,0.701,1.0,896.87,0.2,1,2019-02-13 14:46:38.000,35,2019-02-13 15:01:33.300,0.25,-90,0,0,-90,1
54,0,933.622,0,0,1,0.25,2,3,0.0,1.0,12,40.0,30.0,3,0.551,0.0,935.83,0.05,1,2019-02-13 14:46:38.000,35,2019-02-13 15:02:11.622,0.25,90,-180,-180,90,1
55,0,949.7080000000001,0,0,1,0.25,2,9,0.0,1.0,6,40.0,30.0,9,0.47600000000000003,1.0,952.4889999999999,0.2,1,2019-02-13 14:46:38.000,35,2019-02-13 15:02:27.708,0.25,-90,0,0,-90,1
56,0,978.666,0,0,1,0.25,2,9,0.0,1.0,6,40.0,30.0,9,0.701,1.0,980.5219999999999,0.2,1,2019-02-13 14:46:38.000,35,2019-02-13 15:02:56.666,0.25,-90,0,0,-90,1
57,0,1016.3760000000001,0,0,1,0.25,2,3,0.0,1.0,12,40.0,30.0,3,0.551,1.0,1018.993,0.0,0,2019-02-13 14:46:38.000,35,2019-02-13 15:03:34.376,0.25,-90,-180,-180,-90,1
59,0,1040.471,0,0,1,0.25,2,9,0.0,1.0,6,40.0,30.0,9,0.626,0.0,1042.74,0.0,0,2019-02-13 14:46:38.000,35,2019-02-13 15:03:58.471,0.25,90,0,0,90,1
61,0,1063.089,0,0,1,0.25,2,9,0.0,1.0,6,40.0,30.0,9,0.626,1.0,1065.26,0.2,1,2019-02-13 14:46:38.000,35,2019-02-13 15:04:21.089,0.25,-90,0,0,-90,1
62,0,1090.9669999999999,0,0,1,0.25,2,3,0.0,1.0,12,40.0,30.0,3,0.401,0.0,1092.7939999999999,0.1,1,2019-02-13 14:46:38.000,35,2019-02-13 15:04:48.967,0.25,90,-180,-180,90,1
63,0,1112.723,0,0,1,0.25,2,3,0.0,1.0,12,40.0,30.0,3,0.701,0.0,1115.018,0.1,1,2019-02-13 14:46:38.000,35,2019-02-13 15:05:10.723,0.25,90,-180,-180,90,1
64,0,1121.749,0,0,1,0.25,2,3,0.0,1.0,12,40.0,30.0,3,0.551,0.0,1124.11,0.1,1,2019-02-13 14:46:38.000,35,2019-02-13 15:05:19.749,0.25,90,-180,-180,90,1
65,0,1131.867,0,0,1,0.25,2,9,0.0,1.0,6,40.0,30.0,9,0.47600000000000003,1.0,1134.359,0.2,1,2019-02-13 14:46:38.000,35,2019-02-13 15:05:29.867,0.25,-90,0,0,-90,1
66,0,1151.289,0,0,1,0.25,2,9,0.0,1.0,6,40.0,30.0,9,0.401,1.0,1153.575,0.2,1,2019-02-13 14:46:38.000,35,2019-02-13 15:05:49.289,0.25,-90,0,0,-90,1
67,0,1171.611,0,0,1,0.25,2,3,0.0,1.0,12,40.0,30.0,3,0.701,0.0,1174.268,0.1,1,2019-02-13 14:46:38.000,35,2019-02-13 15:06:09.611,0.25,90,-180,-180,90,1
68,0,1181.4260000000002,0,0,1,0.25,2,3,0.0,1.0,12,40.0,30.0,3,0.47600000000000003,0.0,1183.4180000000001,0.1,1,2019-02-13 14:46:38.000,35,2019-02-13 15:06:19.426,0.25,90,-180,-180,90,1
69,0,1198.622,0,0,1,0.25,2,9,0.0,1.0,6,40.0,30.0,9,0.551,1.0,1200.248,0.1,1,2019-02-13 14:46:38.000,35,2019-02-13 15:06:36.622,0.25,-90,0,0,-90,1
70,0,1212.695,0,0,1,0.25,2,3,0.0,1.0,12,40.0,30.0,3,0.626,0.0,1215.289,0.1,1,2019-02-13 14:46:38.000,35,2019-02-13 15:06:50.695,0.25,90,-180,-180,90,1
71,0,1222.031,0,0,1,0.25,2,3,0.0,1.0,12,40.0,30.0,3,0.626,0.0,1223.963,0.1,1,2019-02-13 14:46:38.000,35,2019-02-13 15:07:00.031,0.25,90,-180,-180,90,1
72,0,1266.43,0,0,1,0.25,2,9,0.0,1.0,6,40.0,30.0,9,0.401,1.0,1268.481,0.2,1,2019-02-13 14:46:38.000,35,2019-02-13 15:07:44.430,0.25,-90,0,0,-90,1
73,0,1283.046,0,0,1,0.25,2,9,0.0,1.0,6,40.0,30.0,9,0.47600000000000003,0.0,1285.671,0.0,0,2019-02-13 14:46:38.000,35,2019-02-13 15:08:01.046,0.25,90,0,0,90,1
76,0,1309.306,0,0,1,0.25,2,9,0.0,1.0,6,40.0,30.0,9,0.47600000000000003,1.0,1312.1879999999999,0.2,1,2019-02-13 14:46:38.000,35,2019-02-13 15:08:27.306,0.25,-90,0,0,-90,1
77,0,1339.9289999999999,0,0,1,0.25,2,3,0.0,1.0,12,40.0,30.0,3,0.701,0.0,1341.964,0.1,1,2019-02-13 14:46:38.000,35,2019-02-13 15:08:57.929,0.25,90,-180,-180,90,1
78,0,1362.547,0,0,1,0.25,2,3,0.0,1.0,12,40.0,30.0,3,0.626,0.0,1364.384,0.1,1,2019-02-13 14:46:38.000,35,2019-02-13 15:09:20.547,0.25,90,-180,-180,90,1
79,0,1382.5839999999998,0,0,1,0.25,2,3,0.0,1.0,12,40.0,30.0,3,0.401,0.0,1384.467,0.1,1,2019-02-13 14:46:38.000,35,2019-02-13 15:09:40.584,0.25,90,-180,-180,90,1
80,0,1433.42,0,0,1,0.25,2,9,0.0,1.0,6,40.0,30.0,9,0.551,1.0,1435.161,0.2,1,2019-02-13 14:46:38.000,35,2019-02-13 15:10:31.420,0.25,-90,0,0,-90,1
81,0,1453.6889999999999,0,0,1,0.25,2,9,0.0,1.0,6,40.0,30.0,9,0.47600000000000003,1.0,1455.933,0.2,1,2019-02-13 14:46:38.000,35,2019-02-13 15:10:51.689,0.25,-90,0,0,-90,1
1,0,59.07,0,0,1,0.25,2,3,0.0,1.0,12,40.0,30.0,3,0.551,0.0,60.361999999999995,0.1,1,2019-02-14 08:28:17.000,30,2019-02-14 08:29:16.070,0.25,90,-180,-180,90,1
2,0,85.098,0,0,1,0.25,2,3,0.0,1.0,12,40.0,30.0,3,0.47600000000000003,0.0,87.428,0.1,1,2019-02-14 08:28:17.000,30,2019-02-14 08:29:42.098,0.25,90,-180,-180,90,1
3,0,134.362,0,0,1,0.25,2,3,0.0,1.0,12,40.0,30.0,3,0.701,1.0,135.842,0.0,0,2019-02-14 08:28:17.000,30,2019-02-14 08:30:31.362,0.25,-90,-180,-180,-90,1
5,0,191.74099999999999,0,0,1,0.25,2,9,0.0,1.0,6,40.0,30.0,9,0.401,1.0,193.40400000000002,0.2,1,2019-02-14 08:28:17.000,30,2019-02-14 08:31:28.741,0.25,-90,0,0,-90,1
6,0,211.44400000000002,0,0,1,0.25,2,3,0.0,1.0,12,40.0,30.0,3,0.701,1.0,213.15200000000002,0.0,0,2019-02-14 08:28:17.000,30,2019-02-14 08:31:48.444,0.25,-90,-180,-180,-90,1
8,0,237.822,0,0,1,0.25,2,3,0.0,1.0,12,40.0,30.0,3,0.551,0.0,239.47099999999998,0.1,1,2019-02-14 08:28:17.000,30,2019-02-14 08:32:14.822,0.25,90,-180,-180,90,1
9,0,260.334,0,0,1,0.25,2,3,0.0,1.0,12,40.0,30.0,3,0.47600000000000003,1.0,261.926,0.0,0,2019-02-14 08:28:17.000,30,2019-02-14 08:32:37.334,0.25,-90,-180,-180,-90,1
12,0,284.059,0,0,1,0.25,2,3,0.0,1.0,12,40.0,30.0,3,0.551,0.0,285.67,0.1,1,2019-02-14 08:28:17.000,30,2019-02-14 08:33:01.059,0.25,90,-180,-180,90,1
13,0,312.394,0,0,1,0.25,2,3,0.0,1.0,12,40.0,30.0,3,0.701,1.0,314.834,0.0,0,2019-02-14 08:28:17.000,30,2019-02-14 08:33:29.394,0.25,-90,-180,-180,-90,1
15,0,343.664,0,0,1,0.25,2,3,0.0,1.0,12,40.0,30.0,3,0.626,1.0,345.499,0.0,0,2019-02-14 08:28:17.000,30,2019-02-14 08:34:00.664,0.25,-90,-180,-180,-90,1
17,0,380.162,0,0,1,0.25,2,9,0.0,1.0,6,40.0,30.0,9,0.551,1.0,382.01199999999994,0.2,1,2019-02-14 08:28:17.000,30,2019-02-14 08:34:37.162,0.25,-90,0,0,-90,1
18,0,406.88699999999994,0,0,1,0.25,2,9,0.0,1.0,6,40.0,30.0,9,0.401,1.0,409.11,0.2,1,2019-02-14 08:28:17.000,30,2019-02-14 08:35:03.887,0.25,-90,0,0,-90,1
19,0,432.17400000000004,0,0,1,0.25,2,9,0.0,1.0,6,40.0,30.0,9,0.626,1.0,434.18699999999995,0.2,1,2019-02-14 08:28:17.000,30,2019-02-14 08:35:29.174,0.25,-90,0,0,-90,1
20,0,455.296,0,0,1,0.25,2,3,0.0,1.0,12,40.0,30.0,3,0.47600000000000003,0.0,457.895,0.1,1,2019-02-14 08:28:17.000,30,2019-02-14 08:35:52.296,0.25,90,-180,-180,90,1
21,0,471.957,0,0,1,0.25,2,9,0.0,1.0,6,40.0,30.0,9,0.626,1.0,473.75199999999995,0.1,1,2019-02-14 08:28:17.000,30,2019-02-14 08:36:08.957,0.25,-90,0,0,-90,1
22,0,494.663,0,0,1,0.25,2,9,0.0,1.0,6,40.0,30.0,9,0.401,0.0,496.577,0.0,0,2019-02-14 08:28:17.000,30,2019-02-14 08:36:31.663,0.25,90,0,0,90,1
24,0,514.048,0,0,1,0.25,2,9,0.0,1.0,6,40.0,30.0,9,0.47600000000000003,1.0,516.396,0.2,1,2019-02-14 08:28:17.000,30,2019-02-14 08:36:51.048,0.25,-90,0,0,-90,1
25,0,539.865,0,0,1,0.25,2,9,0.0,1.0,6,40.0,30.0,9,0.701,1.0,541.163,0.2,1,2019-02-14 08:28:17.000,30,2019-02-14 08:37:16.865,0.25,-90,0,0,-90,1
26,0,559.322,1,0,1,0.25,2,9,0.0,1.0,6,40.0,30.0,9,0.551,1.0,569.47,0.2,1,2019-02-14 08:28:17.000,30,2019-02-14 08:37:36.322,0.25,-90,0,0,-90,1
27,0,592.008,0,0,1,0.25,2,9,0.0,1.0,6,40.0,30.0,9,0.701,0.0,594.439,0.0,0,2019-02-14 08:28:17.000,30,2019-02-14 08:38:09.008,0.25,90,0,0,90,1
30,0,646.528,0,0,1,0.25,2,9,0.0,1.0,6,40.0,30.0,9,0.47600000000000003,0.0,649.499,0.0,0,2019-02-14 08:28:17.000,30,2019-02-14 08:39:03.528,0.25,90,0,0,90,1
33,0,696.2180000000001,0,0,1,0.25,2,3,0.0,1.0,12,40.0,30.0,3,0.701,0.0,698.745,0.1,1,2019-02-14 08:28:17.000,30,2019-02-14 08:39:53.218,0.25,90,-180,-180,90,1
34,0,706.535,0,0,1,0.25,2,3,0.0,1.0,12,40.0,30.0,3,0.47600000000000003,0.0,708.4010000000001,0.1,1,2019-02-14 08:28:17.000,30,2019-02-14 08:40:03.535,0.25,90,-180,-180,90,1
35,0,723.818,0,0,1,0.25,2,3,0.0,1.0,12,40.0,30.0,3,0.626,0.0,726.074,0.1,1,2019-02-14 08:28:17.000,30,2019-02-14 08:40:20.818,0.25,90,-180,-180,90,1
36,0,732.403,0,0,1,0.25,2,9,0.0,1.0,6,40.0,30.0,9,0.47600000000000003,0.0,734.171,0.0,0,2019-02-14 08:28:17.000,30,2019-02-14 08:40:29.403,0.25,90,0,0,90,1
38,0,758.301,0,0,1,0.25,2,9,0.0,1.0,6,40.0,30.0,9,0.701,1.0,760.0989999999999,0.2,1,2019-02-14 08:28:17.000,30,2019-02-14 08:40:55.301,0.25,-90,0,0,-90,1
39,0,789.865,1,0,1,0.25,2,3,0.0,1.0,12,40.0,30.0,3,0.551,1.0,805.957,0.0,0,2019-02-14 08:28:17.000,30,2019-02-14 08:41:26.865,0.25,-90,-180,-180,-90,1
41,0,819.8919999999999,0,0,1,0.25,2,9,0.0,1.0,6,40.0,30.0,9,0.47600000000000003,0.0,821.8660000000001,0.0,0,2019-02-14 08:28:17.000,30,2019-02-14 08:41:56.892,0.25,90,0,0,90,1
43,0,854.7919999999999,0,0,1,0.25,2,3,0.0,1.0,12,40.0,30.0,3,0.401,0.0,856.695,0.1,1,2019-02-14 08:28:17.000,30,2019-02-14 08:42:31.792,0.25,90,-180,-180,90,1
44,0,871.683,0,0,1,0.25,2,3,0.0,1.0,12,40.0,30.0,3,0.551,1.0,873.209,0.0,0,2019-02-14 08:28:17.000,30,2019-02-14 08:42:48.683,0.25,-90,-180,-180,-90,1
46,0,885.553,0,0,1,0.25,2,3,0.0,1.0,12,40.0,30.0,3,0.551,0.0,887.3919999999999,0.1,1,2019-02-14 08:28:17.000,30,2019-02-14 08:43:02.553,0.25,90,-180,-180,90,1
47,0,894.075,0,0,1,0.25,2,9,0.0,1.0,6,40.0,30.0,9,0.401,0.0,896.2,0.0,0,2019-02-14 08:28:17.000,30,2019-02-14 08:43:11.075,0.25,90,0,0,90,1
49,0,920.785,0,0,1,0.25,2,9,0.0,1.0,6,40.0,30.0,9,0.701,1.0,922.515,0.2,1,2019-02-14 08:28:17.000,30,2019-02-14 08:43:37.785,0.25,-90,0,0,-90,1
50,0,948.385,0,0,1,0.25,2,9,0.0,1.0,6,40.0,30.0,9,0.47600000000000003,0.0,951.535,0.0,0,2019-02-14 08:28:17.000,30,2019-02-14 08:44:05.385,0.25,90,0,0,90,1
52,0,975.3480000000001,0,0,1,0.25,2,3,0.0,1.0,12,40.0,30.0,3,0.701,0.0,977.935,0.1,1,2019-02-14 08:28:17.000,30,2019-02-14 08:44:32.348,0.25,90,-180,-180,90,1
53,0,984.365,0,0,1,0.25,2,3,0.0,1.0,12,40.0,30.0,3,0.551,0.0,986.095,0.1,1,2019-02-14 08:28:17.000,30,2019-02-14 08:44:41.365,0.25,90,-180,-180,90,1
54,0,1006.441,0,0,1,0.25,2,9,0.0,1.0,6,40.0,30.0,9,0.626,1.0,1008.306,0.2,1,2019-02-14 08:28:17.000,30,2019-02-14 08:45:03.441,0.25,-90,0,0,-90,1
55,0,1027.828,0,0,1,0.25,2,3,0.0,1.0,12,40.0,30.0,3,0.401,0.0,1030.509,0.1,1,2019-02-14 08:28:17.000,30,2019-02-14 08:45:24.828,0.25,90,-180,-180,90,1
56,0,1036.92,0,0,1,0.25,2,9,0.0,1.0,6,40.0,30.0,9,0.401,0.0,1039.138,0.0,0,2019-02-14 08:28:17.000,30,2019-02-14 08:45:33.920,0.25,90,0,0,90,1
58,0,1067.16,0,0,1,0.25,2,9,0.0,1.0,6,40.0,30.0,9,0.626,1.0,1069.225,0.2,1,2019-02-14 08:28:17.000,30,2019-02-14 08:46:04.160,0.25,-90,0,0,-90,1
59,0,1087.997,0,0,1,0.25,2,3,0.0,1.0,12,40.0,30.0,3,0.551,0.0,1090.704,0.1,1,2019-02-14 08:28:17.000,30,2019-02-14 08:46:24.997,0.25,90,-180,-180,90,1
60,0,1097.119,0,0,1,0.25,2,3,0.0,1.0,12,40.0,30.0,3,0.47600000000000003,0.0,1098.933,0.1,1,2019-02-14 08:28:17.000,30,2019-02-14 08:46:34.119,0.25,90,-180,-180,90,1
61,0,1115.545,0,0,1,0.25,2,9,0.0,1.0,6,40.0,30.0,9,0.626,1.0,1117.07,0.2,1,2019-02-14 08:28:17.000,30,2019-02-14 08:46:52.545,0.25,-90,0,0,-90,1
62,0,1141.897,0,0,1,0.25,2,3,0.0,1.0,12,40.0,30.0,3,0.47600000000000003,0.0,1143.973,0.1,1,2019-02-14 08:28:17.000,30,2019-02-14 08:47:18.897,0.25,90,-180,-180,90,1
63,0,1166.087,0,0,1,0.25,2,3,0.0,1.0,12,40.0,30.0,3,0.401,0.0,1168.275,0.1,1,2019-02-14 08:28:17.000,30,2019-02-14 08:47:43.087,0.25,90,-180,-180,90,1
64,0,1174.623,0,0,1,0.25,2,3,0.0,1.0,12,40.0,30.0,3,0.551,0.0,1176.308,0.1,1,2019-02-14 08:28:17.000,30,2019-02-14 08:47:51.623,0.25,90,-180,-180,90,1
65,0,1207.0539999999999,0,0,1,0.25,2,9,0.0,1.0,6,40.0,30.0,9,0.701,1.0,1208.797,0.2,1,2019-02-14 08:28:17.000,30,2019-02-14 08:48:24.054,0.25,-90,0,0,-90,1
66,0,1224.48,0,0,1,0.25,2,3,0.0,1.0,12,40.0,30.0,3,0.47600000000000003,0.0,1226.994,0.1,1,2019-02-14 08:28:17.000,30,2019-02-14 08:48:41.480,0.25,90,-180,-180,90,1
67,0,1232.938,0,0,1,0.25,2,3,0.0,1.0,12,40.0,30.0,3,0.401,0.0,1234.745,0.1,1,2019-02-14 08:28:17.000,30,2019-02-14 08:48:49.938,0.25,90,-180,-180,90,1
68,0,1240.987,0,0,1,0.25,2,9,0.0,1.0,6,40.0,30.0,9,0.626,1.0,1243.269,0.2,1,2019-02-14 08:28:17.000,30,2019-02-14 08:48:57.987,0.25,-90,0,0,-90,1
69,0,1261.146,0,0,1,0.25,2,9,0.0,1.0,6,40.0,30.0,9,0.701,0.0,1264.226,0.0,0,2019-02-14 08:28:17.000,30,2019-02-14 08:49:18.146,0.25,90,0,0,90,1
1,0,59.198,0,0,1,0.25,2,3,0.0,1.0,12,40.0,30.0,3,0.551,0.0,60.042,0.1,1,2019-02-14 15:18:19.000,29,2019-02-14 15:19:18.198,0.25,90,-180,-180,90,1
2,0,86.36,0,0,1,0.25,2,3,0.0,1.0,12,40.0,30.0,3,0.701,0.0,87.76100000000001,0.1,1,2019-02-14 15:18:19.000,29,2019-02-14 15:19:45.360,0.25,90,-180,-180,90,1
3,0,94.57600000000001,0,0,1,0.25,2,9,0.0,1.0,6,40.0,30.0,9,0.401,0.0,96.64299999999999,0.0,0,2019-02-14 15:18:19.000,29,2019-02-14 15:19:53.576,0.25,90,0,0,90,1
5,0,113.075,0,0,1,0.25,2,9,0.0,1.0,6,40.0,30.0,9,0.626,1.0,114.27799999999999,0.2,1,2019-02-14 15:18:19.000,29,2019-02-14 15:20:12.075,0.25,-90,0,0,-90,1
6,0,122.027,0,0,1,0.25,2,3,0.0,1.0,12,40.0,30.0,3,0.47600000000000003,0.0,124.51,0.1,1,2019-02-14 15:18:19.000,29,2019-02-14 15:20:21.027,0.25,90,-180,-180,90,1
7,0,136.284,0,0,1,0.25,2,3,0.0,1.0,12,40.0,30.0,3,0.626,1.0,137.988,0.0,0,2019-02-14 15:18:19.000,29,2019-02-14 15:20:35.284,0.25,-90,-180,-180,-90,1
9,0,151.233,0,0,1,0.25,2,9,0.0,1.0,6,40.0,30.0,9,0.551,0.0,153.172,0.0,0,2019-02-14 15:18:19.000,29,2019-02-14 15:20:50.233,0.25,90,0,0,90,1
11,0,195.614,0,0,1,0.25,2,9,0.0,1.0,6,40.0,30.0,9,0.701,1.0,196.77,0.2,1,2019-02-14 15:18:19.000,29,2019-02-14 15:21:34.614,0.25,-90,0,0,-90,1
12,0,219.99900000000002,0,0,1,0.25,2,3,0.0,1.0,12,40.0,30.0,3,0.47600000000000003,1.0,221.671,0.0,0,2019-02-14 15:18:19.000,29,2019-02-14 15:21:58.999,0.25,-90,-180,-180,-90,1
15,0,240.628,0,0,1,0.25,2,9,0.0,1.0,6,40.0,30.0,9,0.626,0.0,242.137,0.0,0,2019-02-14 15:18:19.000,29,2019-02-14 15:22:19.628,0.25,90,0,0,90,1
17,0,283.159,0,0,1,0.25,2,9,0.0,1.0,6,40.0,30.0,9,0.626,1.0,285.058,0.2,1,2019-02-14 15:18:19.000,29,2019-02-14 15:23:02.159,0.25,-90,0,0,-90,1
18,0,301.705,0,0,1,0.25,2,9,0.0,1.0,6,40.0,30.0,9,0.401,1.0,303.442,0.2,1,2019-02-14 15:18:19.000,29,2019-02-14 15:23:20.705,0.25,-90,0,0,-90,1
19,0,320.237,0,0,1,0.25,2,3,0.0,1.0,12,40.0,30.0,3,0.551,1.0,322.397,0.0,0,2019-02-14 15:18:19.000,29,2019-02-14 15:23:39.237,0.25,-90,-180,-180,-90,1
21,0,334.275,0,0,1,0.25,2,3,0.0,1.0,12,40.0,30.0,3,0.47600000000000003,0.0,335.539,0.1,1,2019-02-14 15:18:19.000,29,2019-02-14 15:23:53.275,0.25,90,-180,-180,90,1
22,0,347.56,0,0,1,0.25,2,9,0.0,1.0,6,40.0,30.0,9,0.551,1.0,348.994,0.2,1,2019-02-14 15:18:19.000,29,2019-02-14 15:24:06.560,0.25,-90,0,0,-90,1
23,0,364.39300000000003,0,0,1,0.25,2,9,0.0,1.0,6,40.0,30.0,9,0.626,1.0,365.99,0.2,1,2019-02-14 15:18:19.000,29,2019-02-14 15:24:23.393,0.25,-90,0,0,-90,1
24,0,388.539,0,0,1,0.25,2,3,0.0,1.0,12,40.0,30.0,3,0.401,0.0,390.71,0.1,1,2019-02-14 15:18:19.000,29,2019-02-14 15:24:47.539,0.25,90,-180,-180,90,1
25,0,403.214,0,0,1,0.25,2,3,0.0,1.0,12,40.0,30.0,3,0.701,1.0,405.066,0.0,0,2019-02-14 15:18:19.000,29,2019-02-14 15:25:02.214,0.25,-90,-180,-180,-90,1
27,0,418.337,0,0,1,0.25,2,9,0.0,1.0,6,40.0,30.0,9,0.47600000000000003,1.0,420.715,0.2,1,2019-02-14 15:18:19.000,29,2019-02-14 15:25:17.337,0.25,-90,0,0,-90,1
28,0,442.564,0,0,1,0.25,2,3,0.0,1.0,12,40.0,30.0,3,0.551,0.0,444.624,0.1,1,2019-02-14 15:18:19.000,29,2019-02-14 15:25:41.564,0.25,90,-180,-180,90,1
29,0,450.403,0,0,1,0.25,2,9,0.0,1.0,6,40.0,30.0,9,0.401,0.0,452.07,0.0,0,2019-02-14 15:18:19.000,29,2019-02-14 15:25:49.403,0.25,90,0,0,90,1
31,0,484.285,0,0,1,0.25,2,3,0.0,1.0,12,40.0,30.0,3,0.401,0.0,486.856,0.1,1,2019-02-14 15:18:19.000,29,2019-02-14 15:26:23.285,0.25,90,-180,-180,90,1
32,0,495.545,0,0,1,0.25,2,9,0.0,1.0,6,40.0,30.0,9,0.701,1.0,497.642,0.2,1,2019-02-14 15:18:19.000,29,2019-02-14 15:26:34.545,0.25,-90,0,0,-90,1
33,0,521.859,0,0,1,0.25,2,9,0.0,1.0,6,40.0,30.0,9,0.551,1.0,523.5930000000001,0.2,1,2019-02-14 15:18:19.000,29,2019-02-14 15:27:00.859,0.25,-90,0,0,-90,1
34,0,540.181,0,0,1,0.25,2,9,0.0,1.0,6,40.0,30.0,9,0.626,1.0,541.969,0.2,1,2019-02-14 15:18:19.000,29,2019-02-14 15:27:19.181,0.25,-90,0,0,-90,1
35,0,559.361,0,0,1,0.25,2,3,0.0,1.0,12,40.0,30.0,3,0.47600000000000003,0.0,561.931,0.1,1,2019-02-14 15:18:19.000,29,2019-02-14 15:27:38.361,0.25,90,-180,-180,90,1
36,0,567.418,0,0,1,0.25,2,9,0.0,1.0,6,40.0,30.0,9,0.47600000000000003,0.0,568.9540000000001,0.0,0,2019-02-14 15:18:19.000,29,2019-02-14 15:27:46.418,0.25,90,0,0,90,1
38,0,601.5830000000001,0,0,1,0.25,2,3,0.0,1.0,12,40.0,30.0,3,0.551,0.0,603.881,0.1,1,2019-02-14 15:18:19.000,29,2019-02-14 15:28:20.583,0.25,90,-180,-180,90,1
39,0,610.302,0,0,1,0.25,2,9,0.0,1.0,6,40.0,30.0,9,0.401,1.0,612.41,0.2,1,2019-02-14 15:18:19.000,29,2019-02-14 15:28:29.302,0.25,-90,0,0,-90,1
40,0,630.085,0,0,1,0.25,2,9,0.0,1.0,6,40.0,30.0,9,0.626,1.0,631.4590000000001,0.2,1,2019-02-14 15:18:19.000,29,2019-02-14 15:28:49.085,0.25,-90,0,0,-90,1
41,0,648.241,0,0,1,0.25,2,3,0.0,1.0,12,40.0,30.0,3,0.551,0.0,650.435,0.1,1,2019-02-14 15:18:19.000,29,2019-02-14 15:29:07.241,0.25,90,-180,-180,90,1
42,0,656.059,0,0,1,0.25,2,9,0.0,1.0,6,40.0,30.0,9,0.401,1.0,658.471,0.2,1,2019-02-14 15:18:19.000,29,2019-02-14 15:29:15.059,0.25,-90,0,0,-90,1
43,0,675.585,0,0,1,0.25,2,3,0.0,1.0,12,40.0,30.0,3,0.626,0.0,677.959,0.1,1,2019-02-14 15:18:19.000,29,2019-02-14 15:29:34.585,0.25,90,-180,-180,90,1
44,0,688.255,0,0,1,0.25,2,3,0.0,1.0,12,40.0,30.0,3,0.701,0.0,689.581,0.1,1,2019-02-14 15:18:19.000,29,2019-02-14 15:29:47.255,0.25,90,-180,-180,90,1
45,0,705.3839999999999,0,0,1,0.25,2,3,0.0,1.0,12,40.0,30.0,3,0.47600000000000003,0.0,707.323,0.1,1,2019-02-14 15:18:19.000,29,2019-02-14 15:30:04.384,0.25,90,-180,-180,90,1
46,0,721.37,0,0,1,0.25,2,9,0.0,1.0,6,40.0,30.0,9,0.701,1.0,722.551,0.2,1,2019-02-14 15:18:19.000,29,2019-02-14 15:30:20.370,0.25,-90,0,0,-90,1
47,0,737.8380000000001,0,0,1,0.25,2,3,0.0,1.0,12,40.0,30.0,3,0.551,0.0,740.112,0.1,1,2019-02-14 15:18:19.000,29,2019-02-14 15:30:36.838,0.25,90,-180,-180,90,1
48,0,746.72,0,0,1,0.25,2,9,0.0,1.0,6,40.0,30.0,9,0.626,1.0,749.3889999999999,0.2,1,2019-02-14 15:18:19.000,29,2019-02-14 15:30:45.720,0.25,-90,0,0,-90,1
49,0,765.8860000000001,0,0,1,0.25,2,3,0.0,1.0,12,40.0,30.0,3,0.401,0.0,768.3560000000001,0.1,1,2019-02-14 15:18:19.000,29,2019-02-14 15:31:04.886,0.25,90,-180,-180,90,1
50,0,774.145,0,0,1,0.25,2,3,0.0,1.0,12,40.0,30.0,3,0.47600000000000003,0.0,775.712,0.1,1,2019-02-14 15:18:19.000,29,2019-02-14 15:31:13.145,0.25,90,-180,-180,90,1
51,0,788.275,0,0,1,0.25,2,3,0.0,1.0,12,40.0,30.0,3,0.551,0.0,790.4069999999999,0.1,1,2019-02-14 15:18:19.000,29,2019-02-14 15:31:27.275,0.25,90,-180,-180,90,1
52,0,797.41,0,0,1,0.25,2,3,0.0,1.0,12,40.0,30.0,3,0.701,0.0,798.977,0.1,1,2019-02-14 15:18:19.000,29,2019-02-14 15:31:36.410,0.25,90,-180,-180,90,1
53,0,816.722,0,0,1,0.25,2,3,0.0,1.0,12,40.0,30.0,3,0.626,0.0,819.635,0.1,1,2019-02-14 15:18:19.000,29,2019-02-14 15:31:55.722,0.25,90,-180,-180,90,1
54,0,825.508,0,0,1,0.25,2,3,0.0,1.0,12,40.0,30.0,3,0.47600000000000003,0.0,827.215,0.1,1,2019-02-14 15:18:19.000,29,2019-02-14 15:32:04.508,0.25,90,-180,-180,90,1
55,0,838.807,0,0,1,0.25,2,9,0.0,1.0,6,40.0,30.0,9,0.401,1.0,840.992,0.2,1,2019-02-14 15:18:19.000,29,2019-02-14 15:32:17.807,0.25,-90,0,0,-90,1
56,0,856.668,0,0,1,0.25,2,9,0.0,1.0,6,40.0,30.0,9,0.626,1.0,858.2130000000001,0.2,1,2019-02-14 15:18:19.000,29,2019-02-14 15:32:35.668,0.25,-90,0,0,-90,1
57,0,876.7639999999999,0,0,1,0.25,2,9,0.0,1.0,6,40.0,30.0,9,0.701,1.0,878.4069999999999,0.2,1,2019-02-14 15:18:19.000,29,2019-02-14 15:32:55.764,0.25,-90,0,0,-90,1
58,0,894.654,0,0,1,0.25,2,3,0.0,1.0,12,40.0,30.0,3,0.401,0.0,897.557,0.1,1,2019-02-14 15:18:19.000,29,2019-02-14 15:33:13.654,0.25,90,-180,-180,90,1
59,0,903.5369999999999,0,0,1,0.25,2,9,0.0,1.0,6,40.0,30.0,9,0.47600000000000003,1.0,906.2639999999999,0.2,1,2019-02-14 15:18:19.000,29,2019-02-14 15:33:22.537,0.25,-90,0,0,-90,1
60,0,924.422,0,0,1,0.25,2,9,0.0,1.0,6,40.0,30.0,9,0.551,0.0,926.63,0.0,0,2019-02-14 15:18:19.000,29,2019-02-14 15:33:43.422,0.25,90,0,0,90,1
62,0,950.257,0,0,1,0.25,2,9,0.0,1.0,6,40.0,30.0,9,0.47600000000000003,0.0,952.948,0.0,0,2019-02-14 15:18:19.000,29,2019-02-14 15:34:09.257,0.25,90,0,0,90,1
65,0,987.7260000000001,0,0,1,0.25,2,9,0.0,1.0,6,40.0,30.0,9,0.551,1.0,990.1060000000001,0.2,1,2019-02-14 15:18:19.000,29,2019-02-14 15:34:46.726,0.25,-90,0,0,-90,1
66,0,1007.931,0,0,1,0.25,2,9,0.0,1.0,6,40.0,30.0,9,0.626,1.0,1009.775,0.2,1,2019-02-14 15:18:19.000,29,2019-02-14 15:35:06.931,0.25,-90,0,0,-90,1
67,0,1025.915,0,0,1,0.25,2,9,0.0,1.0,6,40.0,30.0,9,0.701,1.0,1027.6,0.2,1,2019-02-14 15:18:19.000,29,2019-02-14 15:35:24.915,0.25,-90,0,0,-90,1
68,0,1047.368,0,0,1,0.25,2,3,0.0,1.0,12,40.0,30.0,3,0.551,0.0,1049.9569999999999,0.1,1,2019-02-14 15:18:19.000,29,2019-02-14 15:35:46.368,0.25,90,-180,-180,90,1
69,0,1055.928,0,0,1,0.25,2,3,0.0,1.0,12,40.0,30.0,3,0.47600000000000003,0.0,1057.427,0.05,1,2019-02-14 15:18:19.000,29,2019-02-14 15:35:54.928,0.25,90,-180,-180,90,1
70,0,1070.333,0,0,1,0.25,2,3,0.0,1.0,12,40.0,30.0,3,0.401,0.0,1072.34,0.1,1,2019-02-14 15:18:19.000,29,2019-02-14 15:36:09.333,0.25,90,-180,-180,90,1
71,0,1085.119,0,0,1,0.25,2,9,0.0,1.0,6,40.0,30.0,9,0.701,1.0,1087.674,0.2,1,2019-02-14 15:18:19.000,29,2019-02-14 15:36:24.119,0.25,-90,0,0,-90,1
72,0,1104.542,0,0,1,0.25,2,3,0.0,1.0,12,40.0,30.0,3,0.47600000000000003,0.0,1106.914,0.1,1,2019-02-14 15:18:19.000,29,2019-02-14 15:36:43.542,0.25,90,-180,-180,90,1
73,0,1114.23,0,0,1,0.25,2,3,0.0,1.0,12,40.0,30.0,3,0.626,0.0,1115.894,0.1,1,2019-02-14 15:18:19.000,29,2019-02-14 15:36:53.230,0.25,90,-180,-180,90,1
74,0,1154.984,0,0,1,0.25,2,9,0.0,1.0,6,40.0,30.0,9,0.401,1.0,1156.609,0.2,1,2019-02-14 15:18:19.000,29,2019-02-14 15:37:33.984,0.25,-90,0,0,-90,1
75,0,1169.781,0,0,1,0.25,2,3,0.0,1.0,12,40.0,30.0,3,0.551,0.0,1172.695,0.1,1,2019-02-14 15:18:19.000,29,2019-02-14 15:37:48.781,0.25,90,-180,-180,90,1
76,0,1183.517,0,0,1,0.25,2,9,0.0,1.0,6,40.0,30.0,9,0.701,1.0,1185.917,0.1,1,2019-02-14 15:18:19.000,29,2019-02-14 15:38:02.517,0.25,-90,0,0,-90,1
77,0,1198.434,0,0,1,0.25,2,9,0.0,1.0,6,40.0,30.0,9,0.47600000000000003,1.0,1200.152,0.2,1,2019-02-14 15:18:19.000,29,2019-02-14 15:38:17.434,0.25,-90,0,0,-90,1
78,0,1214.6689999999999,0,0,1,0.25,2,9,0.0,1.0,6,40.0,30.0,9,0.401,1.0,1216.1760000000002,0.2,1,2019-02-14 15:18:19.000,29,2019-02-14 15:38:33.669,0.25,-90,0,0,-90,1
79,0,1232.338,0,0,1,0.25,2,3,0.0,1.0,12,40.0,30.0,3,0.551,1.0,1234.366,0.0,0,2019-02-14 15:18:19.000,29,2019-02-14 15:38:51.338,0.25,-90,-180,-180,-90,1
81,0,1246.998,0,0,1,0.25,2,3,0.0,1.0,12,40.0,30.0,3,0.626,0.0,1248.687,0.1,1,2019-02-14 15:18:19.000,29,2019-02-14 15:39:05.998,0.25,90,-180,-180,90,1
82,0,1263.925,0,0,1,0.25,2,9,0.0,1.0,6,40.0,30.0,9,0.401,1.0,1266.764,0.2,1,2019-02-14 15:18:19.000,29,2019-02-14 15:39:22.925,0.25,-90,0,0,-90,1
83,0,1283.6960000000001,0,0,1,0.25,2,3,0.0,1.0,12,40.0,30.0,3,0.47600000000000003,0.0,1285.9489999999998,0.1,1,2019-02-14 15:18:19.000,29,2019-02-14 15:39:42.696,0.25,90,-180,-180,90,1
84,0,1292.094,0,0,1,0.25,2,9,0.0,1.0,6,40.0,30.0,9,0.551,1.0,1294.725,0.2,1,2019-02-14 15:18:19.000,29,2019-02-14 15:39:51.094,0.25,-90,0,0,-90,1
85,0,1311.241,0,0,1,0.25,2,3,0.0,1.0,12,40.0,30.0,3,0.701,0.0,1313.5629999999999,0.1,1,2019-02-14 15:18:19.000,29,2019-02-14 15:40:10.241,0.25,90,-180,-180,90,1
86,0,1321.398,0,0,1,0.25,2,9,0.0,1.0,6,40.0,30.0,9,0.626,0.0,1323.2820000000002,0.0,0,2019-02-14 15:18:19.000,29,2019-02-14 15:40:20.398,0.25,90,0,0,90,1
88,0,1353.285,0,0,1,0.25,2,3,0.0,1.0,12,40.0,30.0,3,0.551,1.0,1355.105,0.0,0,2019-02-14 15:18:19.000,29,2019-02-14 15:40:52.285,0.25,-90,-180,-180,-90,1
90,0,1368.6029999999998,0,0,1,0.25,2,3,0.0,1.0,12,40.0,30.0,3,0.401,0.0,1370.7839999999999,0.1,1,2019-02-14 15:18:19.000,29,2019-02-14 15:41:07.603,0.25,90,-180,-180,90,1
91,0,1385.8770000000002,0,0,1,0.25,2,3,0.0,1.0,12,40.0,30.0,3,0.401,0.0,1388.3629999999998,0.1,1,2019-02-14 15:18:19.000,29,2019-02-14 15:41:24.877,0.25,90,-180,-180,90,1
92,0,1394.7939999999999,0,0,1,0.25,2,9,0.0,1.0,6,40.0,30.0,9,0.701,0.0,1396.8139999999999,0.0,0,2019-02-14 15:18:19.000,29,2019-02-14 15:41:33.794,0.25,90,0,0,90,1
94,0,1438.955,0,0,1,0.25,2,9,0.0,1.0,6,40.0,30.0,9,0.47600000000000003,1.0,1440.7939999999999,0.2,1,2019-02-14 15:18:19.000,29,2019-02-14 15:42:17.955,0.25,-90,0,0,-90,1
95,0,1457.0629999999999,0,0,1,0.25,2,3,0.0,1.0,12,40.0,30.0,3,0.551,0.0,1460.119,0.1,1,2019-02-14 15:18:19.000,29,2019-02-14 15:42:36.063,0.25,90,-180,-180,90,1
96,0,1466.4370000000001,0,0,1,0.25,2,9,0.0,1.0,6,40.0,30.0,9,0.401,0.0,1468.558,0.0,0,2019-02-14 15:18:19.000,29,2019-02-14 15:42:45.437,0.25,90,0,0,90,1
98,0,1483.0079999999998,0,0,1,0.25,2,3,0.0,1.0,12,40.0,30.0,3,0.47600000000000003,0.0,1485.743,0.1,1,2019-02-14 15:18:19.000,29,2019-02-14 15:43:02.008,0.25,90,-180,-180,90,1
99,0,1491.62,0,0,1,0.25,2,9,0.0,1.0,6,40.0,30.0,9,0.701,0.0,1494.18,0.0,0,2019-02-14 15:18:19.000,29,2019-02-14 15:43:10.620,0.25,90,0,0,90,1
101,0,1511.604,0,0,1,0.25,2,3,0.0,1.0,12,40.0,30.0,3,0.551,0.0,1514.0829999999999,0.1,1,2019-02-14 15:18:19.000,29,2019-02-14 15:43:30.604,0.25,90,-180,-180,90,1
102,0,1519.476,0,0,1,0.25,2,9,0.0,1.0,6,40.0,30.0,9,0.401,0.0,1521.6029999999998,0.0,0,2019-02-14 15:18:19.000,29,2019-02-14 15:43:38.476,0.25,90,0,0,90,1
104,0,1543.779,0,0,1,0.25,2,9,0.0,1.0,6,40.0,30.0,9,0.701,1.0,1545.611,0.2,1,2019-02-14 15:18:19.000,29,2019-02-14 15:44:02.779,0.25,-90,0,0,-90,1
105,0,1561.609,0,0,1,0.25,2,3,0.0,1.0,12,40.0,30.0,3,0.47600000000000003,0.0,1564.316,0.1,1,2019-02-14 15:18:19.000,29,2019-02-14 15:44:20.609,0.25,90,-180,-180,90,1
106,0,1570.504,0,0,1,0.25,2,9,0.0,1.0,6,40.0,30.0,9,0.47600000000000003,1.0,1573.0770000000002,0.2,1,2019-02-14 15:18:19.000,29,2019-02-14 15:44:29.504,0.25,-90,0,0,-90,1
107,0,1590.51,0,0,1,0.25,2,3,0.0,1.0,12,40.0,30.0,3,0.626,0.0,1593.0339999999999,0.1,1,2019-02-14 15:18:19.000,29,2019-02-14 15:44:49.510,0.25,90,-180,-180,90,1
108,0,1599.251,0,0,1,0.25,2,9,0.0,1.0,6,40.0,30.0,9,0.401,0.0,1601.641,0.0,0,2019-02-14 15:18:19.000,29,2019-02-14 15:44:58.251,0.25,90,0,0,90,1
1,0,50.443000000000005,0,30,1,0.3,2,3,0.0,1.0,11,40.0,30.0,3,0.706,0.0,56.283,0.1,1,2019-02-15 09:48:01.000,66,2019-02-15 09:48:51.443,0.3,90,-150,-180,60,1
2,0,64.059,0,30,1,0.3,2,3,0.0,1.0,11,40.0,30.0,3,0.581,0.0,65.615,0.1,1,2019-02-15 09:48:01.000,66,2019-02-15 09:49:05.059,0.3,90,-150,-180,60,1
3,0,71.832,0,30,1,0.3,2,9,0.0,1.0,5,40.0,30.0,9,0.643,1.0,73.729,0.2,1,2019-02-15 09:48:01.000,66,2019-02-15 09:49:12.832,0.3,-90,30,0,-120,1
4,0,98.042,0,30,1,0.3,2,9,0.0,1.0,5,40.0,30.0,9,0.831,1.0,99.91,0.2,1,2019-02-15 09:48:01.000,66,2019-02-15 09:49:39.042,0.3,-90,30,0,-120,1
5,0,116.82,0,30,1,0.3,2,9,0.0,1.0,5,40.0,30.0,9,0.768,0.0,119.177,0.0,0,2019-02-15 09:48:01.000,66,2019-02-15 09:49:57.820,0.3,90,30,0,60,1
7,0,143.32399999999998,0,30,1,0.3,2,9,0.0,1.0,5,40.0,30.0,9,0.581,1.0,145.869,0.2,1,2019-02-15 09:48:01.000,66,2019-02-15 09:50:24.324,0.3,-90,30,0,-120,1
8,0,163.653,0,30,1,0.3,2,3,0.0,1.0,11,40.0,30.0,3,0.643,0.0,166.05,0.1,1,2019-02-15 09:48:01.000,66,2019-02-15 09:50:44.653,0.3,90,-150,-180,60,1
9,0,172.97,0,30,1,0.3,2,9,0.0,1.0,5,40.0,30.0,9,0.831,0.0,174.35299999999998,0.0,0,2019-02-15 09:48:01.000,66,2019-02-15 09:50:53.970,0.3,90,30,0,60,1
11,0,196.77700000000002,0,30,1,0.3,2,3,0.0,1.0,11,40.0,30.0,3,0.706,1.0,199.2,0.0,0,2019-02-15 09:48:01.000,66,2019-02-15 09:51:17.777,0.3,-90,-150,-180,-120,1
13,0,213.19400000000002,0,30,1,0.3,2,9,0.0,1.0,5,40.0,30.0,9,0.581,0.0,214.851,0.0,0,2019-02-15 09:48:01.000,66,2019-02-15 09:51:34.194,0.3,90,30,0,60,1
16,0,256.686,0,30,1,0.3,2,9,0.0,1.0,5,40.0,30.0,9,0.581,1.0,258.933,0.2,1,2019-02-15 09:48:01.000,66,2019-02-15 09:52:17.686,0.3,-90,30,0,-120,1
17,0,282.97900000000004,0,30,1,0.3,2,9,0.0,1.0,5,40.0,30.0,9,0.831,0.0,284.974,0.0,0,2019-02-15 09:48:01.000,66,2019-02-15 09:52:43.979,0.3,90,30,0,60,1
20,0,318.041,0,30,1,0.3,2,3,0.0,1.0,11,40.0,30.0,3,0.706,1.0,331.841,0.0,0,2019-02-15 09:48:01.000,66,2019-02-15 09:53:19.041,0.3,-90,-150,-180,-120,1
22,0,345.56,0,30,1,0.3,2,3,0.0,1.0,11,40.0,30.0,3,0.831,0.0,347.032,0.1,1,2019-02-15 09:48:01.000,66,2019-02-15 09:53:46.560,0.3,90,-150,-180,60,1
23,0,353.647,0,30,1,0.3,2,3,0.0,1.0,11,40.0,30.0,3,0.706,0.0,355.249,0.1,1,2019-02-15 09:48:01.000,66,2019-02-15 09:53:54.647,0.3,90,-150,-180,60,1
24,0,372.42699999999996,0,30,1,0.3,2,3,0.0,1.0,11,40.0,30.0,3,0.581,0.0,374.23199999999997,0.1,1,2019-02-15 09:48:01.000,66,2019-02-15 09:54:13.427,0.3,90,-150,-180,60,1
25,0,379.75300000000004,0,30,1,0.3,2,9,0.0,1.0,5,40.0,30.0,9,0.768,1.0,382.24199999999996,0.2,1,2019-02-15 09:48:01.000,66,2019-02-15 09:54:20.753,0.3,-90,30,0,-120,1
26,0,398.931,0,30,1,0.3,2,3,0.0,1.0,11,40.0,30.0,3,0.831,0.0,401.36199999999997,0.1,1,2019-02-15 09:48:01.000,66,2019-02-15 09:54:39.931,0.3,90,-150,-180,60,1
27,0,408.405,0,30,1,0.3,2,9,0.0,1.0,5,40.0,30.0,9,0.581,1.0,410.721,0.2,1,2019-02-15 09:48:01.000,66,2019-02-15 09:54:49.405,0.3,-90,30,0,-120,1
28,0,428.191,0,30,1,0.3,2,3,0.0,1.0,11,40.0,30.0,3,0.706,0.0,430.699,0.1,1,2019-02-15 09:48:01.000,66,2019-02-15 09:55:09.191,0.3,90,-150,-180,60,1
29,0,440.043,0,30,1,0.3,2,9,0.0,1.0,5,40.0,30.0,9,0.768,0.0,441.82,0.0,0,2019-02-15 09:48:01.000,66,2019-02-15 09:55:21.043,0.3,90,30,0,60,1
31,0,472.316,0,30,1,0.3,2,9,0.0,1.0,5,40.0,30.0,9,0.581,1.0,474.265,0.2,1,2019-02-15 09:48:01.000,66,2019-02-15 09:55:53.316,0.3,-90,30,0,-120,1
32,0,494.338,0,30,1,0.3,2,9,0.0,1.0,5,40.0,30.0,9,0.706,1.0,496.30199999999996,0.2,1,2019-02-15 09:48:01.000,66,2019-02-15 09:56:15.338,0.3,-90,30,0,-120,1
33,0,523.866,0,30,1,0.3,2,9,0.0,1.0,5,40.0,30.0,9,0.768,1.0,525.564,0.2,1,2019-02-15 09:48:01.000,66,2019-02-15 09:56:44.866,0.3,-90,30,0,-120,1
34,0,547.3969999999999,0,30,1,0.3,2,3,0.0,1.0,11,40.0,30.0,3,0.831,0.0,550.618,0.1,1,2019-02-15 09:48:01.000,66,2019-02-15 09:57:08.397,0.3,90,-150,-180,60,1
35,0,557.9,0,30,1,0.3,2,9,0.0,1.0,5,40.0,30.0,9,0.643,0.0,559.638,0.0,0,2019-02-15 09:48:01.000,66,2019-02-15 09:57:18.900,0.3,90,30,0,60,1
37,0,583.2819999999999,0,30,1,0.3,2,9,0.0,1.0,5,40.0,30.0,9,0.768,1.0,584.885,0.2,1,2019-02-15 09:48:01.000,66,2019-02-15 09:57:44.282,0.3,-90,30,0,-120,1
38,0,602.155,0,30,1,0.3,2,3,0.0,1.0,11,40.0,30.0,3,0.643,0.0,604.3290000000001,0.1,1,2019-02-15 09:48:01.000,66,2019-02-15 09:58:03.155,0.3,90,-150,-180,60,1
39,0,611.905,0,30,1,0.3,2,3,0.0,1.0,11,40.0,30.0,3,0.831,0.0,613.193,0.1,1,2019-02-15 09:48:01.000,66,2019-02-15 09:58:12.905,0.3,90,-150,-180,60,1
40,0,620.734,0,30,1,0.3,2,9,0.0,1.0,5,40.0,30.0,9,0.706,0.0,622.4069999999999,0.0,0,2019-02-15 09:48:01.000,66,2019-02-15 09:58:21.734,0.3,90,30,0,60,1
42,0,645.0369999999999,0,30,1,0.3,2,3,0.0,1.0,11,40.0,30.0,3,0.581,0.0,647.293,0.1,1,2019-02-15 09:48:01.000,66,2019-02-15 09:58:46.037,0.3,90,-150,-180,60,1
43,0,659.794,0,30,1,0.3,2,3,0.0,1.0,11,40.0,30.0,3,0.831,0.0,661.3439999999999,0.1,1,2019-02-15 09:48:01.000,66,2019-02-15 09:59:00.794,0.3,90,-150,-180,60,1
44,0,667.064,0,30,1,0.3,2,3,0.0,1.0,11,40.0,30.0,3,0.768,0.0,668.7,0.1,1,2019-02-15 09:48:01.000,66,2019-02-15 09:59:08.064,0.3,90,-150,-180,60,1
45,0,674.561,0,30,1,0.3,2,3,0.0,1.0,11,40.0,30.0,3,0.706,0.0,676.6460000000001,0.1,1,2019-02-15 09:48:01.000,66,2019-02-15 09:59:15.561,0.3,90,-150,-180,60,1
46,0,681.9830000000001,0,30,1,0.3,2,9,0.0,1.0,5,40.0,30.0,9,0.831,1.0,684.097,0.2,1,2019-02-15 09:48:01.000,66,2019-02-15 09:59:22.983,0.3,-90,30,0,-120,1
47,0,700.9,1,30,1,0.3,2,3,0.0,1.0,11,40.0,30.0,3,0.581,0.0,717.6160000000001,0.1,1,2019-02-15 09:48:01.000,66,2019-02-15 09:59:41.900,0.3,90,-150,-180,60,1
48,0,724.998,0,30,1,0.3,2,3,0.0,1.0,11,40.0,30.0,3,0.706,0.0,726.7819999999999,0.1,1,2019-02-15 09:48:01.000,66,2019-02-15 10:00:05.998,0.3,90,-150,-180,60,1
49,0,732.23,0,30,1,0.3,2,9,0.0,1.0,5,40.0,30.0,9,0.768,1.0,735.17,0.2,1,2019-02-15 09:48:01.000,66,2019-02-15 10:00:13.230,0.3,-90,30,0,-120,1
50,0,760.829,0,30,1,0.3,2,9,0.0,1.0,5,40.0,30.0,9,0.643,1.0,762.7639999999999,0.2,1,2019-02-15 09:48:01.000,66,2019-02-15 10:00:41.829,0.3,-90,30,0,-120,1
51,0,779.0160000000001,0,30,1,0.3,2,3,0.0,1.0,11,40.0,30.0,3,0.768,0.0,781.209,0.1,1,2019-02-15 09:48:01.000,66,2019-02-15 10:01:00.016,0.3,90,-150,-180,60,1
52,0,787.0939999999999,0,30,1,0.3,2,3,0.0,1.0,11,40.0,30.0,3,0.706,0.0,788.872,0.1,1,2019-02-15 09:48:01.000,66,2019-02-15 10:01:08.094,0.3,90,-150,-180,60,1
53,0,794.595,0,30,1,0.3,2,3,0.0,1.0,11,40.0,30.0,3,0.831,0.0,796.1110000000001,0.1,1,2019-02-15 09:48:01.000,66,2019-02-15 10:01:15.595,0.3,90,-150,-180,60,1
54,0,802.087,0,30,1,0.3,2,9,0.0,1.0,5,40.0,30.0,9,0.643,1.0,804.4789999999999,0.2,1,2019-02-15 09:48:01.000,66,2019-02-15 10:01:23.087,0.3,-90,30,0,-120,1
55,0,820.3689999999999,0,30,1,0.3,2,3,0.0,1.0,11,40.0,30.0,3,0.581,0.0,822.5830000000001,0.1,1,2019-02-15 09:48:01.000,66,2019-02-15 10:01:41.369,0.3,90,-150,-180,60,1
56,0,828.278,0,30,1,0.3,2,3,0.0,1.0,11,40.0,30.0,3,0.768,0.0,829.563,0.1,1,2019-02-15 09:48:01.000,66,2019-02-15 10:01:49.278,0.3,90,-150,-180,60,1
57,0,835.39,0,30,1,0.3,2,9,0.0,1.0,5,40.0,30.0,9,0.831,1.0,837.768,0.2,1,2019-02-15 09:48:01.000,66,2019-02-15 10:01:56.390,0.3,-90,30,0,-120,1
58,0,853.8639999999999,0,30,1,0.3,2,9,0.0,1.0,5,40.0,30.0,9,0.706,1.0,856.112,0.2,1,2019-02-15 09:48:01.000,66,2019-02-15 10:02:14.864,0.3,-90,30,0,-120,1
59,0,874.0830000000001,1,30,1,0.3,2,3,0.0,1.0,11,40.0,30.0,3,0.581,0.0,894.054,0.1,1,2019-02-15 09:48:01.000,66,2019-02-15 10:02:35.083,0.3,90,-150,-180,60,1
60,0,899.893,0,30,1,0.3,2,9,0.0,1.0,5,40.0,30.0,9,0.643,1.0,902.584,0.2,1,2019-02-15 09:48:01.000,66,2019-02-15 10:03:00.893,0.3,-90,30,0,-120,1
61,0,917.31,0,30,1,0.3,2,9,0.0,1.0,5,40.0,30.0,9,0.581,1.0,919.297,0.2,1,2019-02-15 09:48:01.000,66,2019-02-15 10:03:18.310,0.3,-90,30,0,-120,1
62,0,936.9639999999999,1,30,1,0.3,2,9,0.0,1.0,5,40.0,30.0,9,0.706,0.0,948.7130000000001,0.0,0,2019-02-15 09:48:01.000,66,2019-02-15 10:03:37.964,0.3,90,30,0,60,1
64,0,972.068,0,30,1,0.3,2,9,0.0,1.0,5,40.0,30.0,9,0.643,1.0,974.0419999999999,0.2,1,2019-02-15 09:48:01.000,66,2019-02-15 10:04:13.068,0.3,-90,30,0,-120,1
65,0,993.1419999999999,0,30,1,0.3,2,3,0.0,1.0,11,40.0,30.0,3,0.831,0.0,995.382,0.1,1,2019-02-15 09:48:01.000,66,2019-02-15 10:04:34.142,0.3,90,-150,-180,60,1
66,0,1000.748,0,30,1,0.3,2,9,0.0,1.0,5,40.0,30.0,9,0.581,0.0,1002.7389999999999,0.0,0,2019-02-15 09:48:01.000,66,2019-02-15 10:04:41.748,0.3,90,30,0,60,1
69,0,1041.572,0,30,1,0.3,2,9,0.0,1.0,5,40.0,30.0,9,0.643,1.0,1043.2089999999998,0.2,1,2019-02-15 09:48:01.000,66,2019-02-15 10:05:22.572,0.3,-90,30,0,-120,1
70,0,1058.165,0,30,1,0.3,2,3,0.0,1.0,11,40.0,30.0,3,0.768,0.0,1060.855,0.1,1,2019-02-15 09:48:01.000,66,2019-02-15 10:05:39.165,0.3,90,-150,-180,60,1
71,0,1066.795,0,30,1,0.3,2,3,0.0,1.0,11,40.0,30.0,3,0.768,0.0,1068.575,0.1,1,2019-02-15 09:48:01.000,66,2019-02-15 10:05:47.795,0.3,90,-150,-180,60,1
72,0,1073.0910000000001,0,30,1,0.3,2,9,0.0,1.0,5,40.0,30.0,9,0.643,1.0,1076.249,0.2,1,2019-02-15 09:48:01.000,66,2019-02-15 10:05:54.091,0.3,-90,30,0,-120,1
73,0,1111.463,0,30,1,0.3,2,3,0.0,1.0,11,40.0,30.0,3,0.831,0.0,1113.893,0.1,1,2019-02-15 09:48:01.000,66,2019-02-15 10:06:32.463,0.3,90,-150,-180,60,1
74,0,1118.991,0,30,1,0.3,2,3,0.0,1.0,11,40.0,30.0,3,0.706,0.0,1120.75,0.1,1,2019-02-15 09:48:01.000,66,2019-02-15 10:06:39.991,0.3,90,-150,-180,60,1
75,0,1125.656,0,30,1,0.3,2,9,0.0,1.0,5,40.0,30.0,9,0.581,0.0,1127.938,0.0,0,2019-02-15 09:48:01.000,66,2019-02-15 10:06:46.656,0.3,90,30,0,60,1
77,0,1150.777,0,30,1,0.3,2,3,0.0,1.0,11,40.0,30.0,3,0.768,0.0,1152.856,0.1,1,2019-02-15 09:48:01.000,66,2019-02-15 10:07:11.777,0.3,90,-150,-180,60,1
78,0,1160.403,0,30,1,0.3,2,3,0.0,1.0,11,40.0,30.0,3,0.581,0.0,1162.86,0.1,1,2019-02-15 09:48:01.000,66,2019-02-15 10:07:21.403,0.3,90,-150,-180,60,1
79,0,1173.8210000000001,0,30,1,0.3,2,3,0.0,1.0,11,40.0,30.0,3,0.643,1.0,1183.589,0.0,0,2019-02-15 09:48:01.000,66,2019-02-15 10:07:34.821,0.3,-90,-150,-180,-120,1
82,0,1228.277,0,30,1,0.3,2,9,0.0,1.0,5,40.0,30.0,9,0.831,1.0,1230.251,0.2,1,2019-02-15 09:48:01.000,66,2019-02-15 10:08:29.277,0.3,-90,30,0,-120,1
83,0,1241.622,0,30,1,0.3,2,9,0.0,1.0,5,40.0,30.0,9,0.706,1.0,1242.962,0.2,1,2019-02-15 09:48:01.000,66,2019-02-15 10:08:42.622,0.3,-90,30,0,-120,1
84,0,1249.872,0,30,1,0.3,2,3,0.0,1.0,11,40.0,30.0,3,0.768,0.0,1252.219,0.1,1,2019-02-15 09:48:01.000,66,2019-02-15 10:08:50.872,0.3,90,-150,-180,60,1
1,0,25.919,0,60,1,0.3,2,9,0.0,1.0,4,40.0,30.0,9,0.831,0.0,28.236,0.0,0,2019-02-15 14:59:00.000,55,2019-02-15 14:59:25.919,0.3,90,60,0,30,1
3,0,69.835,0,60,1,0.3,2,9,0.0,1.0,4,40.0,30.0,9,0.706,1.0,71.791,0.2,1,2019-02-15 14:59:00.000,55,2019-02-15 15:00:09.835,0.3,-90,60,0,-150,1
4,0,91.25200000000001,0,60,1,0.3,2,3,0.0,1.0,10,40.0,30.0,3,0.581,0.0,93.59,0.1,1,2019-02-15 14:59:00.000,55,2019-02-15 15:00:31.252,0.3,90,-120,-180,30,1
5,0,99.37799999999999,0,60,1,0.3,2,3,0.0,1.0,10,40.0,30.0,3,0.643,0.0,101.24700000000001,0.1,1,2019-02-15 14:59:00.000,55,2019-02-15 15:00:39.378,0.3,90,-120,-180,30,1
6,0,146.151,0,60,1,0.3,2,3,0.0,1.0,10,40.0,30.0,3,0.768,0.0,147.686,0.1,1,2019-02-15 14:59:00.000,55,2019-02-15 15:01:26.151,0.3,90,-120,-180,30,1
7,0,179.81400000000002,0,60,1,0.3,2,3,0.0,1.0,10,40.0,30.0,3,0.643,0.0,180.937,0.1,1,2019-02-15 14:59:00.000,55,2019-02-15 15:01:59.814,0.3,90,-120,-180,30,1
8,0,189.946,0,60,1,0.3,2,9,0.0,1.0,4,40.0,30.0,9,0.831,1.0,191.826,0.2,1,2019-02-15 14:59:00.000,55,2019-02-15 15:02:09.946,0.3,-90,60,0,-150,1
9,0,213.067,1,60,1,0.3,2,9,0.0,1.0,4,40.0,30.0,9,0.706,1.0,224.24900000000002,0.2,1,2019-02-15 14:59:00.000,55,2019-02-15 15:02:33.067,0.3,-90,60,0,-150,1
10,0,243.46599999999998,0,60,1,0.3,2,9,0.0,1.0,4,40.0,30.0,9,0.581,1.0,247.801,0.2,1,2019-02-15 14:59:00.000,55,2019-02-15 15:03:03.466,0.3,-90,60,0,-150,1
11,0,266.52,0,60,1,0.3,2,9,0.0,1.0,4,40.0,30.0,9,0.643,1.0,269.61400000000003,0.2,1,2019-02-15 14:59:00.000,55,2019-02-15 15:03:26.520,0.3,-90,60,0,-150,1
12,0,294.518,0,60,1,0.3,2,3,0.0,1.0,10,40.0,30.0,3,0.706,0.0,296.774,0.1,1,2019-02-15 14:59:00.000,55,2019-02-15 15:03:54.518,0.3,90,-120,-180,30,1
13,0,330.626,0,60,1,0.3,2,3,0.0,1.0,10,40.0,30.0,3,0.581,0.0,332.094,0.1,1,2019-02-15 14:59:00.000,55,2019-02-15 15:04:30.626,0.3,90,-120,-180,30,1
14,0,357.281,0,60,1,0.3,2,9,0.0,1.0,4,40.0,30.0,9,0.768,1.0,359.131,0.2,1,2019-02-15 14:59:00.000,55,2019-02-15 15:04:57.281,0.3,-90,60,0,-150,1
15,0,378.673,0,60,1,0.3,2,9,0.0,1.0,4,40.0,30.0,9,0.831,1.0,380.809,0.2,1,2019-02-15 14:59:00.000,55,2019-02-15 15:05:18.673,0.3,-90,60,0,-150,1
16,0,398.66,0,60,1,0.3,2,9,0.0,1.0,4,40.0,30.0,9,0.768,0.0,401.168,0.0,0,2019-02-15 14:59:00.000,55,2019-02-15 15:05:38.660,0.3,90,60,0,30,1
19,0,446.52099999999996,0,60,1,0.3,2,9,0.0,1.0,4,40.0,30.0,9,0.831,1.0,448.541,0.2,1,2019-02-15 14:59:00.000,55,2019-02-15 15:06:26.521,0.3,-90,60,0,-150,1
20,0,469.791,0,60,1,0.3,2,3,0.0,1.0,10,40.0,30.0,3,0.581,1.0,471.88,0.0,0,2019-02-15 14:59:00.000,55,2019-02-15 15:06:49.791,0.3,-90,-120,-180,-150,1
22,0,485.355,0,60,1,0.3,2,3,0.0,1.0,10,40.0,30.0,3,0.706,0.0,487.022,0.1,1,2019-02-15 14:59:00.000,55,2019-02-15 15:07:05.355,0.3,90,-120,-180,30,1
23,0,493.235,0,60,1,0.3,2,3,0.0,1.0,10,40.0,30.0,3,0.831,0.0,495.131,0.1,1,2019-02-15 14:59:00.000,55,2019-02-15 15:07:13.235,0.3,90,-120,-180,30,1
24,0,506.4,0,60,1,0.3,2,3,0.0,1.0,10,40.0,30.0,3,0.768,0.0,507.84,0.1,1,2019-02-15 14:59:00.000,55,2019-02-15 15:07:26.400,0.3,90,-120,-180,30,1
25,0,514.229,1,60,1,0.3,2,3,0.0,1.0,10,40.0,30.0,3,0.581,0.0,532.882,0.1,1,2019-02-15 14:59:00.000,55,2019-02-15 15:07:34.229,0.3,90,-120,-180,30,1
26,0,539.236,0,60,1,0.3,2,9,0.0,1.0,4,40.0,30.0,9,0.706,1.0,541.618,0.2,1,2019-02-15 14:59:00.000,55,2019-02-15 15:07:59.236,0.3,-90,60,0,-150,1
27,0,560.789,0,60,1,0.3,2,3,0.0,1.0,10,40.0,30.0,3,0.643,0.0,563.368,0.1,1,2019-02-15 14:59:00.000,55,2019-02-15 15:08:20.789,0.3,90,-120,-180,30,1
28,0,570.342,0,60,1,0.3,2,9,0.0,1.0,4,40.0,30.0,9,0.768,0.0,571.765,0.0,0,2019-02-15 14:59:00.000,55,2019-02-15 15:08:30.342,0.3,90,60,0,30,1
30,0,623.236,0,60,1,0.3,2,3,0.0,1.0,10,40.0,30.0,3,0.581,0.0,626.148,0.1,1,2019-02-15 14:59:00.000,55,2019-02-15 15:09:23.236,0.3,90,-120,-180,30,1
31,0,632.018,0,60,1,0.3,2,9,0.0,1.0,4,40.0,30.0,9,0.768,0.0,633.59,0.0,0,2019-02-15 14:59:00.000,55,2019-02-15 15:09:32.018,0.3,90,60,0,30,1
33,0,764.507,1,60,1,0.3,2,9,0.0,1.0,4,40.0,30.0,9,0.831,1.0,776.635,0.2,1,2019-02-15 14:59:00.000,55,2019-02-15 15:11:44.507,0.3,-90,60,0,-150,1
34,0,791.3530000000001,0,60,1,0.3,2,3,0.0,1.0,10,40.0,30.0,3,0.643,0.0,794.1039999999999,0.1,1,2019-02-15 14:59:00.000,55,2019-02-15 15:12:11.353,0.3,90,-120,-180,30,1
35,0,800.0989999999999,0,60,1,0.3,2,3,0.0,1.0,10,40.0,30.0,3,0.581,0.0,801.8969999999999,0.1,1,2019-02-15 14:59:00.000,55,2019-02-15 15:12:20.099,0.3,90,-120,-180,30,1
36,0,806.8330000000001,0,60,1,0.3,2,3,0.0,1.0,10,40.0,30.0,3,0.643,0.0,808.762,0.1,1,2019-02-15 14:59:00.000,55,2019-02-15 15:12:26.833,0.3,90,-120,-180,30,1
37,0,814.423,0,60,1,0.3,2,9,0.0,1.0,4,40.0,30.0,9,0.581,1.0,817.556,0.2,1,2019-02-15 14:59:00.000,55,2019-02-15 15:12:34.423,0.3,-90,60,0,-150,1
38,0,834.893,0,60,1,0.3,2,3,0.0,1.0,10,40.0,30.0,3,0.706,0.0,837.3660000000001,0.1,1,2019-02-15 14:59:00.000,55,2019-02-15 15:12:54.893,0.3,90,-120,-180,30,1
39,0,844.462,0,60,1,0.3,2,9,0.0,1.0,4,40.0,30.0,9,0.831,0.0,845.8580000000001,0.0,0,2019-02-15 14:59:00.000,55,2019-02-15 15:13:04.462,0.3,90,60,0,30,1
43,0,946.862,0,60,1,0.3,2,3,0.0,1.0,10,40.0,30.0,3,0.768,0.0,948.7189999999999,0.1,1,2019-02-15 14:59:00.000,55,2019-02-15 15:14:46.862,0.3,90,-120,-180,30,1
44,0,955.3480000000001,0,60,1,0.3,2,9,0.0,1.0,4,40.0,30.0,9,0.706,0.0,957.294,0.0,0,2019-02-15 14:59:00.000,55,2019-02-15 15:14:55.348,0.3,90,60,0,30,1
46,0,1074.079,0,60,1,0.3,2,3,0.0,1.0,10,40.0,30.0,3,0.831,0.0,1076.376,0.1,1,2019-02-15 14:59:00.000,55,2019-02-15 15:16:54.079,0.3,90,-120,-180,30,1
47,0,1095.094,1,60,1,0.3,2,3,0.0,1.0,10,40.0,30.0,3,0.643,0.0,1111.552,0.1,1,2019-02-15 14:59:00.000,55,2019-02-15 15:17:15.094,0.3,90,-120,-180,30,1
48,0,1185.988,0,60,1,0.3,2,9,0.0,1.0,4,40.0,30.0,9,0.768,1.0,1188.367,0.2,1,2019-02-15 14:59:00.000,55,2019-02-15 15:18:45.988,0.3,-90,60,0,-150,1
49,0,1209.4189999999999,0,60,1,0.3,2,9,0.0,1.0,4,40.0,30.0,9,0.706,0.0,1211.118,0.0,0,2019-02-15 14:59:00.000,55,2019-02-15 15:19:09.419,0.3,90,60,0,30,1
51,0,1288.941,0,60,1,0.3,2,9,0.0,1.0,4,40.0,30.0,9,0.581,1.0,1294.866,0.2,1,2019-02-15 14:59:00.000,55,2019-02-15 15:20:28.941,0.3,-90,60,0,-150,1
52,0,1328.265,0,60,1,0.3,2,3,0.0,1.0,10,40.0,30.0,3,0.831,0.0,1330.933,0.1,1,2019-02-15 14:59:00.000,55,2019-02-15 15:21:08.265,0.3,90,-120,-180,30,1
53,0,1372.3,0,60,1,0.3,2,3,0.0,1.0,10,40.0,30.0,3,0.768,0.0,1374.3120000000001,0.1,1,2019-02-15 14:59:00.000,55,2019-02-15 15:21:52.300,0.3,90,-120,-180,30,1
1,0,29.561999999999998,0,0,1,0.25,2,3,0.0,1.0,12,40.0,30.0,3,0.47600000000000003,0.0,32.234,0.05,1,2019-02-18 08:55:54.000,21,2019-02-18 08:56:23.562,0.25,90,-180,-180,90,1
2,0,46.413999999999994,0,0,1,0.25,2,9,0.0,1.0,6,40.0,30.0,9,0.701,1.0,47.783,0.2,1,2019-02-18 08:55:54.000,21,2019-02-18 08:56:40.414,0.25,-90,0,0,-90,1
3,0,62.351000000000006,0,0,1,0.25,2,3,0.0,1.0,12,40.0,30.0,3,0.626,1.0,67.285,0.0,0,2019-02-18 08:55:54.000,21,2019-02-18 08:56:56.351,0.25,-90,-180,-180,-90,1
5,0,80.449,0,0,1,0.25,2,3,0.0,1.0,12,40.0,30.0,3,0.401,0.0,82.459,0.1,1,2019-02-18 08:55:54.000,21,2019-02-18 08:57:14.449,0.25,90,-180,-180,90,1
6,0,95.706,0,0,1,0.25,2,3,0.0,1.0,12,40.0,30.0,3,0.701,1.0,96.84,0.0,0,2019-02-18 08:55:54.000,21,2019-02-18 08:57:29.706,0.25,-90,-180,-180,-90,1
9,0,144.91299999999998,0,0,1,0.25,2,9,0.0,1.0,6,40.0,30.0,9,0.551,1.0,147.255,0.2,1,2019-02-18 08:55:54.000,21,2019-02-18 08:58:18.913,0.25,-90,0,0,-90,1
10,0,163.048,0,0,1,0.25,2,9,0.0,1.0,6,40.0,30.0,9,0.47600000000000003,1.0,164.845,0.2,1,2019-02-18 08:55:54.000,21,2019-02-18 08:58:37.048,0.25,-90,0,0,-90,1
11,0,182.321,0,0,1,0.25,2,3,0.0,1.0,12,40.0,30.0,3,0.551,1.0,184.95,0.0,0,2019-02-18 08:55:54.000,21,2019-02-18 08:58:56.321,0.25,-90,-180,-180,-90,1
15,0,212.734,0,0,1,0.25,2,3,0.0,1.0,12,40.0,30.0,3,0.401,0.0,214.423,0.1,1,2019-02-18 08:55:54.000,21,2019-02-18 08:59:26.734,0.25,90,-180,-180,90,1
16,0,231.493,0,0,1,0.25,2,9,0.0,1.0,6,40.0,30.0,9,0.401,1.0,233.202,0.2,1,2019-02-18 08:55:54.000,21,2019-02-18 08:59:45.493,0.25,-90,0,0,-90,1
17,0,249.05900000000003,0,0,1,0.25,2,9,0.0,1.0,6,40.0,30.0,9,0.626,1.0,250.68900000000002,0.2,1,2019-02-18 08:55:54.000,21,2019-02-18 09:00:03.059,0.25,-90,0,0,-90,1
18,0,266.964,0,0,1,0.25,2,3,0.0,1.0,12,40.0,30.0,3,0.701,0.0,269.57,0.1,1,2019-02-18 08:55:54.000,21,2019-02-18 09:00:20.964,0.25,90,-180,-180,90,1
19,0,275.965,0,0,1,0.25,2,9,0.0,1.0,6,40.0,30.0,9,0.47600000000000003,0.0,277.815,0.0,0,2019-02-18 08:55:54.000,21,2019-02-18 09:00:29.965,0.25,90,0,0,90,1
21,0,301.84,0,0,1,0.25,2,9,0.0,1.0,6,40.0,30.0,9,0.701,1.0,303.43,0.2,1,2019-02-18 08:55:54.000,21,2019-02-18 09:00:55.840,0.25,-90,0,0,-90,1
22,0,324.286,0,0,1,0.25,2,9,0.0,1.0,6,40.0,30.0,9,0.626,1.0,325.725,0.2,1,2019-02-18 08:55:54.000,21,2019-02-18 09:01:18.286,0.25,-90,0,0,-90,1
23,0,341.468,0,0,1,0.25,2,3,0.0,1.0,12,40.0,30.0,3,0.47600000000000003,0.0,343.596,0.1,1,2019-02-18 08:55:54.000,21,2019-02-18 09:01:35.468,0.25,90,-180,-180,90,1
24,0,353.019,0,0,1,0.25,2,3,0.0,1.0,12,40.0,30.0,3,0.401,0.0,354.80699999999996,0.1,1,2019-02-18 08:55:54.000,21,2019-02-18 09:01:47.019,0.25,90,-180,-180,90,1
25,0,375.945,0,0,1,0.25,2,9,0.0,1.0,6,40.0,30.0,9,0.551,0.0,381.816,0.0,0,2019-02-18 08:55:54.000,21,2019-02-18 09:02:09.945,0.25,90,0,0,90,1
27,0,405.139,0,0,1,0.25,2,9,0.0,1.0,6,40.0,30.0,9,0.626,1.0,406.534,0.2,1,2019-02-18 08:55:54.000,21,2019-02-18 09:02:39.139,0.25,-90,0,0,-90,1
28,0,421.81199999999995,0,0,1,0.25,2,3,0.0,1.0,12,40.0,30.0,3,0.401,0.0,423.869,0.1,1,2019-02-18 08:55:54.000,21,2019-02-18 09:02:55.812,0.25,90,-180,-180,90,1
29,0,429.634,0,0,1,0.25,2,9,0.0,1.0,6,40.0,30.0,9,0.551,1.0,431.651,0.2,1,2019-02-18 08:55:54.000,21,2019-02-18 09:03:03.634,0.25,-90,0,0,-90,1
30,0,454.52099999999996,0,0,1,0.25,2,9,0.0,1.0,6,40.0,30.0,9,0.701,0.0,456.577,0.0,0,2019-02-18 08:55:54.000,21,2019-02-18 09:03:28.521,0.25,90,0,0,90,1
33,0,503.964,0,0,1,0.25,2,3,0.0,1.0,12,40.0,30.0,3,0.701,0.0,506.02099999999996,0.1,1,2019-02-18 08:55:54.000,21,2019-02-18 09:04:17.964,0.25,90,-180,-180,90,1
34,0,779.063,0,0,1,0.25,2,3,0.0,1.0,12,40.0,30.0,3,0.401,0.0,780.957,0.1,1,2019-02-18 08:55:54.000,21,2019-02-18 09:08:53.063,0.25,90,-180,-180,90,1
1,0,27.123,0,0,1,0.25,2,9,0.0,1.0,6,40.0,30.0,9,0.701,0.0,29.325,0.0,0,2019-02-18 15:00:46.000,46,2019-02-18 15:01:13.123,0.25,90,0,0,90,1
4,0,62.08,0,0,1,0.25,2,9,0.0,1.0,6,40.0,30.0,9,0.626,1.0,63.696999999999996,0.2,1,2019-02-18 15:00:46.000,46,2019-02-18 15:01:48.080,0.25,-90,0,0,-90,1
5,0,92.45,0,0,1,0.25,2,9,0.0,1.0,6,40.0,30.0,9,0.551,0.0,94.213,0.0,0,2019-02-18 15:00:46.000,46,2019-02-18 15:02:18.450,0.25,90,0,0,90,1
7,0,133.349,0,0,1,0.25,2,9,0.0,1.0,6,40.0,30.0,9,0.47600000000000003,1.0,134.924,0.2,1,2019-02-18 15:00:46.000,46,2019-02-18 15:02:59.349,0.25,-90,0,0,-90,1
8,0,163.96099999999998,0,0,1,0.25,2,9,0.0,1.0,6,40.0,30.0,9,0.701,0.0,165.581,0.0,0,2019-02-18 15:00:46.000,46,2019-02-18 15:03:29.961,0.25,90,0,0,90,1
10,0,189.792,0,0,1,0.25,2,9,0.0,1.0,6,40.0,30.0,9,0.401,1.0,191.128,0.2,1,2019-02-18 15:00:46.000,46,2019-02-18 15:03:55.792,0.25,-90,0,0,-90,1
11,0,206.037,0,0,1,0.25,2,3,0.0,1.0,12,40.0,30.0,3,0.626,0.0,208.296,0.1,1,2019-02-18 15:00:46.000,46,2019-02-18 15:04:12.037,0.25,90,-180,-180,90,1
12,0,215.83900000000003,0,0,1,0.25,2,3,0.0,1.0,12,40.0,30.0,3,0.701,0.0,217.38,0.1,1,2019-02-18 15:00:46.000,46,2019-02-18 15:04:21.839,0.25,90,-180,-180,90,1
13,0,231.035,0,0,1,0.25,2,9,0.0,1.0,6,40.0,30.0,9,0.401,1.0,232.59,0.2,1,2019-02-18 15:00:46.000,46,2019-02-18 15:04:37.035,0.25,-90,0,0,-90,1
14,0,249.49400000000003,0,0,1,0.25,2,9,0.0,1.0,6,40.0,30.0,9,0.551,1.0,251.00400000000002,0.2,1,2019-02-18 15:00:46.000,46,2019-02-18 15:04:55.494,0.25,-90,0,0,-90,1
15,0,265.97700000000003,0,0,1,0.25,2,3,0.0,1.0,12,40.0,30.0,3,0.47600000000000003,0.0,268.39599999999996,0.1,1,2019-02-18 15:00:46.000,46,2019-02-18 15:05:11.977,0.25,90,-180,-180,90,1
16,0,279.603,0,0,1,0.25,2,3,0.0,1.0,12,40.0,30.0,3,0.701,1.0,281.902,0.0,0,2019-02-18 15:00:46.000,46,2019-02-18 15:05:25.603,0.25,-90,-180,-180,-90,1
18,0,306.63,0,0,1,0.25,2,3,0.0,1.0,12,40.0,30.0,3,0.551,1.0,307.92400000000004,0.0,0,2019-02-18 15:00:46.000,46,2019-02-18 15:05:52.630,0.25,-90,-180,-180,-90,1
20,0,319.585,0,0,1,0.25,2,3,0.0,1.0,12,40.0,30.0,3,0.626,0.0,321.39799999999997,0.1,1,2019-02-18 15:00:46.000,46,2019-02-18 15:06:05.585,0.25,90,-180,-180,90,1
21,0,333.92199999999997,0,0,1,0.25,2,3,0.0,1.0,12,40.0,30.0,3,0.551,1.0,335.594,0.0,0,2019-02-18 15:00:46.000,46,2019-02-18 15:06:19.922,0.25,-90,-180,-180,-90,1
23,0,347.705,0,0,1,0.25,2,3,0.0,1.0,12,40.0,30.0,3,0.47600000000000003,0.0,349.32099999999997,0.1,1,2019-02-18 15:00:46.000,46,2019-02-18 15:06:33.705,0.25,90,-180,-180,90,1
24,0,355.30699999999996,0,0,1,0.25,2,9,0.0,1.0,6,40.0,30.0,9,0.701,1.0,357.54400000000004,0.2,1,2019-02-18 15:00:46.000,46,2019-02-18 15:06:41.307,0.25,-90,0,0,-90,1
25,0,375.17900000000003,0,0,1,0.25,2,9,0.0,1.0,6,40.0,30.0,9,0.626,1.0,377.421,0.2,1,2019-02-18 15:00:46.000,46,2019-02-18 15:07:01.179,0.25,-90,0,0,-90,1
26,0,393.64099999999996,0,0,1,0.25,2,3,0.0,1.0,12,40.0,30.0,3,0.701,1.0,395.176,0.0,0,2019-02-18 15:00:46.000,46,2019-02-18 15:07:19.641,0.25,-90,-180,-180,-90,1
28,0,407.615,0,0,1,0.25,2,3,0.0,1.0,12,40.0,30.0,3,0.626,0.0,409.23699999999997,0.1,1,2019-02-18 15:00:46.000,46,2019-02-18 15:07:33.615,0.25,90,-180,-180,90,1
29,0,421.089,0,0,1,0.25,2,3,0.0,1.0,12,40.0,30.0,3,0.47600000000000003,1.0,424.034,0.0,0,2019-02-18 15:00:46.000,46,2019-02-18 15:07:47.089,0.25,-90,-180,-180,-90,1
31,0,434.57599999999996,0,0,1,0.25,2,3,0.0,1.0,12,40.0,30.0,3,0.701,0.0,436.01199999999994,0.1,1,2019-02-18 15:00:46.000,46,2019-02-18 15:08:00.576,0.25,90,-180,-180,90,1
32,0,441.34,0,0,1,0.25,2,9,0.0,1.0,6,40.0,30.0,9,0.401,0.0,443.499,0.0,0,2019-02-18 15:00:46.000,46,2019-02-18 15:08:07.340,0.25,90,0,0,90,1
34,0,469.791,0,0,1,0.25,2,3,0.0,1.0,12,40.0,30.0,3,0.47600000000000003,1.0,471.76199999999994,0.0,0,2019-02-18 15:00:46.000,46,2019-02-18 15:08:35.791,0.25,-90,-180,-180,-90,1
36,0,495.63699999999994,0,0,1,0.25,2,3,0.0,1.0,12,40.0,30.0,3,0.626,0.0,497.88,0.1,1,2019-02-18 15:00:46.000,46,2019-02-18 15:09:01.637,0.25,90,-180,-180,90,1
37,0,521.936,0,0,1,0.25,2,9,0.0,1.0,6,40.0,30.0,9,0.401,1.0,523.485,0.2,1,2019-02-18 15:00:46.000,46,2019-02-18 15:09:27.936,0.25,-90,0,0,-90,1
38,0,539.909,0,0,1,0.25,2,9,0.0,1.0,6,40.0,30.0,9,0.701,1.0,541.64,0.2,1,2019-02-18 15:00:46.000,46,2019-02-18 15:09:45.909,0.25,-90,0,0,-90,1
39,0,558.034,0,0,1,0.25,2,9,0.0,1.0,6,40.0,30.0,9,0.47600000000000003,1.0,560.187,0.2,1,2019-02-18 15:00:46.000,46,2019-02-18 15:10:04.034,0.25,-90,0,0,-90,1
40,0,584.0269999999999,0,0,1,0.25,2,9,0.0,1.0,6,40.0,30.0,9,0.551,1.0,585.609,0.2,1,2019-02-18 15:00:46.000,46,2019-02-18 15:10:30.027,0.25,-90,0,0,-90,1
41,0,601.679,0,0,1,0.25,2,3,0.0,1.0,12,40.0,30.0,3,0.551,0.0,603.884,0.1,1,2019-02-18 15:00:46.000,46,2019-02-18 15:10:47.679,0.25,90,-180,-180,90,1
42,0,610.745,0,0,1,0.25,2,9,0.0,1.0,6,40.0,30.0,9,0.626,0.0,612.332,0.0,0,2019-02-18 15:00:46.000,46,2019-02-18 15:10:56.745,0.25,90,0,0,90,1
44,0,638.031,0,0,1,0.25,2,9,0.0,1.0,6,40.0,30.0,9,0.701,1.0,640.149,0.2,1,2019-02-18 15:00:46.000,46,2019-02-18 15:11:24.031,0.25,-90,0,0,-90,1
45,0,655.988,0,0,1,0.25,2,3,0.0,1.0,12,40.0,30.0,3,0.401,0.0,658.623,0.1,1,2019-02-18 15:00:46.000,46,2019-02-18 15:11:41.988,0.25,90,-180,-180,90,1
46,0,664.8489999999999,0,0,1,0.25,2,9,0.0,1.0,6,40.0,30.0,9,0.626,0.0,666.686,0.0,0,2019-02-18 15:00:46.000,46,2019-02-18 15:11:50.849,0.25,90,0,0,90,1
48,0,693.738,0,0,1,0.25,2,9,0.0,1.0,6,40.0,30.0,9,0.47600000000000003,1.0,695.295,0.2,1,2019-02-18 15:00:46.000,46,2019-02-18 15:12:19.738,0.25,-90,0,0,-90,1
49,0,711.3860000000001,0,0,1,0.25,2,3,0.0,1.0,12,40.0,30.0,3,0.401,0.0,713.566,0.1,1,2019-02-18 15:00:46.000,46,2019-02-18 15:12:37.386,0.25,90,-180,-180,90,1
50,0,719.7180000000001,0,0,1,0.25,2,3,0.0,1.0,12,40.0,30.0,3,0.701,0.0,721.3489999999999,0.1,1,2019-02-18 15:00:46.000,46,2019-02-18 15:12:45.718,0.25,90,-180,-180,90,1
51,0,727.554,0,0,1,0.25,2,3,0.0,1.0,12,40.0,30.0,3,0.551,0.0,729.2739999999999,0.1,1,2019-02-18 15:00:46.000,46,2019-02-18 15:12:53.554,0.25,90,-180,-180,90,1
52,0,747.6039999999999,0,0,1,0.25,2,3,0.0,1.0,12,40.0,30.0,3,0.401,1.0,749.298,0.0,0,2019-02-18 15:00:46.000,46,2019-02-18 15:13:13.604,0.25,-90,-180,-180,-90,1
54,0,761.3689999999999,0,0,1,0.25,2,9,0.0,1.0,6,40.0,30.0,9,0.626,0.0,763.529,0.0,0,2019-02-18 15:00:46.000,46,2019-02-18 15:13:27.369,0.25,90,0,0,90,1
56,0,788.2239999999999,0,0,1,0.25,2,3,0.0,1.0,12,40.0,30.0,3,0.701,0.0,790.795,0.1,1,2019-02-18 15:00:46.000,46,2019-02-18 15:13:54.224,0.25,90,-180,-180,90,1
57,0,797.6189999999999,1,0,1,0.25,2,9,0.0,1.0,6,40.0,30.0,9,0.551,0.0,812.076,0.0,0,2019-02-18 15:00:46.000,46,2019-02-18 15:14:03.619,0.25,90,0,0,90,1
59,0,839.471,0,0,1,0.25,2,9,0.0,1.0,6,40.0,30.0,9,0.401,0.0,842.16,0.0,0,2019-02-18 15:00:46.000,46,2019-02-18 15:14:45.471,0.25,90,0,0,90,1
62,0,870.283,0,0,1,0.25,2,9,0.0,1.0,6,40.0,30.0,9,0.551,1.0,872.172,0.2,1,2019-02-18 15:00:46.000,46,2019-02-18 15:15:16.283,0.25,-90,0,0,-90,1
63,0,889.13,0,0,1,0.25,2,3,0.0,1.0,12,40.0,30.0,3,0.626,0.0,891.569,0.1,1,2019-02-18 15:00:46.000,46,2019-02-18 15:15:35.130,0.25,90,-180,-180,90,1
64,0,897.5880000000001,0,0,1,0.25,2,9,0.0,1.0,6,40.0,30.0,9,0.701,1.0,900.966,0.2,1,2019-02-18 15:00:46.000,46,2019-02-18 15:15:43.588,0.25,-90,0,0,-90,1
65,0,918.6210000000001,0,0,1,0.25,2,9,0.0,1.0,6,40.0,30.0,9,0.47600000000000003,1.0,920.4860000000001,0.2,1,2019-02-18 15:00:46.000,46,2019-02-18 15:16:04.621,0.25,-90,0,0,-90,1
66,0,937.75,0,0,1,0.25,2,3,0.0,1.0,12,40.0,30.0,3,0.626,0.0,940.605,0.1,1,2019-02-18 15:00:46.000,46,2019-02-18 15:16:23.750,0.25,90,-180,-180,90,1
67,0,948.4639999999999,0,0,1,0.25,2,3,0.0,1.0,12,40.0,30.0,3,0.551,0.0,950.505,0.1,1,2019-02-18 15:00:46.000,46,2019-02-18 15:16:34.464,0.25,90,-180,-180,90,1
68,0,985.086,0,0,1,0.25,2,3,0.0,1.0,12,40.0,30.0,3,0.401,0.0,987.748,0.05,1,2019-02-18 15:00:46.000,46,2019-02-18 15:17:11.086,0.25,90,-180,-180,90,1
69,0,994.94,0,0,1,0.25,2,9,0.0,1.0,6,40.0,30.0,9,0.701,0.0,996.825,0.0,0,2019-02-18 15:00:46.000,46,2019-02-18 15:17:20.940,0.25,90,0,0,90,1
72,0,1039.43,0,0,1,0.25,2,3,0.0,1.0,12,40.0,30.0,3,0.401,0.0,1042.478,0.1,1,2019-02-18 15:00:46.000,46,2019-02-18 15:18:05.430,0.25,90,-180,-180,90,1
73,0,1048.215,0,0,1,0.25,2,3,0.0,1.0,12,40.0,30.0,3,0.626,0.0,1050.117,0.1,1,2019-02-18 15:00:46.000,46,2019-02-18 15:18:14.215,0.25,90,-180,-180,90,1
74,0,1062.643,0,0,1,0.25,2,3,0.0,1.0,12,40.0,30.0,3,0.551,1.0,1065.5819999999999,0.0,0,2019-02-18 15:00:46.000,46,2019-02-18 15:18:28.643,0.25,-90,-180,-180,-90,1
77,0,1086.882,0,0,1,0.25,2,9,0.0,1.0,6,40.0,30.0,9,0.626,1.0,1090.135,0.2,1,2019-02-18 15:00:46.000,46,2019-02-18 15:18:52.882,0.25,-90,0,0,-90,1
78,0,1111.101,0,0,1,0.25,2,3,0.0,1.0,12,40.0,30.0,3,0.401,0.0,1113.971,0.1,1,2019-02-18 15:00:46.000,46,2019-02-18 15:19:17.101,0.25,90,-180,-180,90,1
79,0,1122.3139999999999,0,0,1,0.25,2,3,0.0,1.0,12,40.0,30.0,3,0.551,0.0,1124.124,0.1,1,2019-02-18 15:00:46.000,46,2019-02-18 15:19:28.314,0.25,90,-180,-180,90,1
80,0,1144.502,0,0,1,0.25,2,9,0.0,1.0,6,40.0,30.0,9,0.701,1.0,1146.387,0.2,1,2019-02-18 15:00:46.000,46,2019-02-18 15:19:50.502,0.25,-90,0,0,-90,1
81,0,1160.691,0,0,1,0.25,2,9,0.0,1.0,6,40.0,30.0,9,0.701,1.0,1162.555,0.2,1,2019-02-18 15:00:46.000,46,2019-02-18 15:20:06.691,0.25,-90,0,0,-90,1
82,0,1177.876,0,0,1,0.25,2,9,0.0,1.0,6,40.0,30.0,9,0.401,0.0,1180.59,0.0,0,2019-02-18 15:00:46.000,46,2019-02-18 15:20:23.876,0.25,90,0,0,90,1
1,0,35.898,0,0,1,0.25,2,3,0.0,1.0,12,40.0,30.0,3,0.401,0.0,38.051,0.1,1,2019-02-19 09:16:06.000,10,2019-02-19 09:16:41.898,0.25,90,-180,-180,90,1
2,0,44.978,0,0,1,0.25,2,3,0.0,1.0,12,40.0,30.0,3,0.626,0.0,46.598,0.1,1,2019-02-19 09:16:06.000,10,2019-02-19 09:16:50.978,0.25,90,-180,-180,90,1
3,0,52.138000000000005,0,0,1,0.25,2,3,0.0,1.0,12,40.0,30.0,3,0.47600000000000003,1.0,56.12,0.0,0,2019-02-19 09:16:06.000,10,2019-02-19 09:16:58.138,0.25,-90,-180,-180,-90,1
5,0,90.581,0,0,1,0.25,2,9,0.0,1.0,6,40.0,30.0,9,0.701,1.0,92.111,0.2,1,2019-02-19 09:16:06.000,10,2019-02-19 09:17:36.581,0.25,-90,0,0,-90,1
6,0,107.17,0,0,1,0.25,2,3,0.0,1.0,12,40.0,30.0,3,0.626,0.0,109.15899999999999,0.1,1,2019-02-19 09:16:06.000,10,2019-02-19 09:17:53.170,0.25,90,-180,-180,90,1
7,0,115.656,0,0,1,0.25,2,3,0.0,1.0,12,40.0,30.0,3,0.701,0.0,116.97200000000001,0.1,1,2019-02-19 09:16:06.000,10,2019-02-19 09:18:01.656,0.25,90,-180,-180,90,1
8,0,127.35600000000001,0,0,1,0.25,2,9,0.0,1.0,6,40.0,30.0,9,0.551,1.0,128.702,0.2,1,2019-02-19 09:16:06.000,10,2019-02-19 09:18:13.356,0.25,-90,0,0,-90,1
9,0,143.047,0,0,1,0.25,2,3,0.0,1.0,12,40.0,30.0,3,0.47600000000000003,1.0,144.382,0.0,0,2019-02-19 09:16:06.000,10,2019-02-19 09:18:29.047,0.25,-90,-180,-180,-90,1
11,0,153.967,0,0,1,0.25,2,9,0.0,1.0,6,40.0,30.0,9,0.551,0.0,155.369,0.0,0,2019-02-19 09:16:06.000,10,2019-02-19 09:18:39.967,0.25,90,0,0,90,1
13,0,178.54,0,0,1,0.25,2,9,0.0,1.0,6,40.0,30.0,9,0.626,1.0,180.42700000000002,0.2,1,2019-02-19 09:16:06.000,10,2019-02-19 09:19:04.540,0.25,-90,0,0,-90,1
14,0,195.537,0,0,1,0.25,2,9,0.0,1.0,6,40.0,30.0,9,0.701,1.0,197.418,0.2,1,2019-02-19 09:16:06.000,10,2019-02-19 09:19:21.537,0.25,-90,0,0,-90,1
15,0,219.25400000000002,0,0,1,0.25,2,9,0.0,1.0,6,40.0,30.0,9,0.401,0.0,221.03799999999998,0.0,0,2019-02-19 09:16:06.000,10,2019-02-19 09:19:45.254,0.25,90,0,0,90,1
17,0,246.202,0,0,1,0.25,2,9,0.0,1.0,6,40.0,30.0,9,0.701,1.0,248.49099999999999,0.2,1,2019-02-19 09:16:06.000,10,2019-02-19 09:20:12.202,0.25,-90,0,0,-90,1
18,0,266.726,0,0,1,0.25,2,3,0.0,1.0,12,40.0,30.0,3,0.47600000000000003,1.0,268.347,0.0,0,2019-02-19 09:16:06.000,10,2019-02-19 09:20:32.726,0.25,-90,-180,-180,-90,1
20,0,292.68,0,0,1,0.25,2,9,0.0,1.0,6,40.0,30.0,9,0.401,1.0,294.007,0.2,1,2019-02-19 09:16:06.000,10,2019-02-19 09:20:58.680,0.25,-90,0,0,-90,1
21,0,308.237,0,0,1,0.25,2,9,0.0,1.0,6,40.0,30.0,9,0.551,0.0,310.671,0.0,0,2019-02-19 09:16:06.000,10,2019-02-19 09:21:14.237,0.25,90,0,0,90,1
23,0,349.892,0,0,1,0.25,2,3,0.0,1.0,12,40.0,30.0,3,0.47600000000000003,0.0,351.474,0.1,1,2019-02-19 09:16:06.000,10,2019-02-19 09:21:55.892,0.25,90,-180,-180,90,1
24,0,366.851,0,0,1,0.25,2,9,0.0,1.0,6,40.0,30.0,9,0.401,1.0,368.18300000000005,0.2,1,2019-02-19 09:16:06.000,10,2019-02-19 09:22:12.851,0.25,-90,0,0,-90,1
25,0,383.773,0,0,1,0.25,2,3,0.0,1.0,12,40.0,30.0,3,0.701,0.0,386.00699999999995,0.1,1,2019-02-19 09:16:06.000,10,2019-02-19 09:22:29.773,0.25,90,-180,-180,90,1
26,0,397.74699999999996,0,0,1,0.25,2,3,0.0,1.0,12,40.0,30.0,3,0.701,0.0,399.256,0.1,1,2019-02-19 09:16:06.000,10,2019-02-19 09:22:43.747,0.25,90,-180,-180,90,1
27,0,414.249,0,0,1,0.25,2,9,0.0,1.0,6,40.0,30.0,9,0.551,1.0,415.98900000000003,0.2,1,2019-02-19 09:16:06.000,10,2019-02-19 09:23:00.249,0.25,-90,0,0,-90,1
28,0,430.644,0,0,1,0.25,2,9,0.0,1.0,6,40.0,30.0,9,0.47600000000000003,1.0,432.473,0.2,1,2019-02-19 09:16:06.000,10,2019-02-19 09:23:16.644,0.25,-90,0,0,-90,1
29,0,455.596,0,0,1,0.25,2,3,0.0,1.0,12,40.0,30.0,3,0.401,0.0,457.207,0.1,1,2019-02-19 09:16:06.000,10,2019-02-19 09:23:41.596,0.25,90,-180,-180,90,1
30,0,467.83099999999996,0,0,1,0.25,2,3,0.0,1.0,12,40.0,30.0,3,0.626,0.0,470.074,0.1,1,2019-02-19 09:16:06.000,10,2019-02-19 09:23:53.831,0.25,90,-180,-180,90,1
31,0,477.06699999999995,0,0,1,0.25,2,9,0.0,1.0,6,40.0,30.0,9,0.701,0.0,478.49699999999996,0.0,0,2019-02-19 09:16:06.000,10,2019-02-19 09:24:03.067,0.25,90,0,0,90,1
33,0,505.05400000000003,0,0,1,0.25,2,3,0.0,1.0,12,40.0,30.0,3,0.401,0.0,507.477,0.1,1,2019-02-19 09:16:06.000,10,2019-02-19 09:24:31.054,0.25,90,-180,-180,90,1
34,0,513.707,0,0,1,0.25,2,3,0.0,1.0,12,40.0,30.0,3,0.551,0.0,515.045,0.1,1,2019-02-19 09:16:06.000,10,2019-02-19 09:24:39.707,0.25,90,-180,-180,90,1
35,0,533.7040000000001,0,0,1,0.25,2,9,0.0,1.0,6,40.0,30.0,9,0.47600000000000003,1.0,535.375,0.2,1,2019-02-19 09:16:06.000,10,2019-02-19 09:24:59.704,0.25,-90,0,0,-90,1
36,0,550.573,0,0,1,0.25,2,9,0.0,1.0,6,40.0,30.0,9,0.626,1.0,552.518,0.2,1,2019-02-19 09:16:06.000,10,2019-02-19 09:25:16.573,0.25,-90,0,0,-90,1
37,0,567.923,0,0,1,0.25,2,9,0.0,1.0,6,40.0,30.0,9,0.701,1.0,569.489,0.2,1,2019-02-19 09:16:06.000,10,2019-02-19 09:25:33.923,0.25,-90,0,0,-90,1
38,0,587.356,0,0,1,0.25,2,3,0.0,1.0,12,40.0,30.0,3,0.47600000000000003,0.0,589.512,0.1,1,2019-02-19 09:16:06.000,10,2019-02-19 09:25:53.356,0.25,90,-180,-180,90,1
39,0,597.144,0,0,1,0.25,2,3,0.0,1.0,12,40.0,30.0,3,0.551,0.0,598.632,0.1,1,2019-02-19 09:16:06.000,10,2019-02-19 09:26:03.144,0.25,90,-180,-180,90,1
40,0,611.011,0,0,1,0.25,2,9,0.0,1.0,6,40.0,30.0,9,0.401,1.0,612.323,0.2,1,2019-02-19 09:16:06.000,10,2019-02-19 09:26:17.011,0.25,-90,0,0,-90,1
41,0,635.687,0,0,1,0.25,2,9,0.0,1.0,6,40.0,30.0,9,0.551,0.0,637.585,0.0,0,2019-02-19 09:16:06.000,10,2019-02-19 09:26:41.687,0.25,90,0,0,90,1
43,0,671.8530000000001,0,0,1,0.25,2,3,0.0,1.0,12,40.0,30.0,3,0.701,0.0,673.965,0.1,1,2019-02-19 09:16:06.000,10,2019-02-19 09:27:17.853,0.25,90,-180,-180,90,1
44,0,680.513,0,0,1,0.25,2,9,0.0,1.0,6,40.0,30.0,9,0.47600000000000003,0.0,682.2860000000001,0.0,0,2019-02-19 09:16:06.000,10,2019-02-19 09:27:26.513,0.25,90,0,0,90,1
46,0,708.5,0,0,1,0.25,2,9,0.0,1.0,6,40.0,30.0,9,0.47600000000000003,0.0,710.628,0.0,0,2019-02-19 09:16:06.000,10,2019-02-19 09:27:54.500,0.25,90,0,0,90,1
49,0,766.793,0,0,1,0.25,2,3,0.0,1.0,12,40.0,30.0,3,0.626,0.0,769.09,0.1,1,2019-02-19 09:16:06.000,10,2019-02-19 09:28:52.793,0.25,90,-180,-180,90,1
50,0,774.115,0,0,1,0.25,2,3,0.0,1.0,12,40.0,30.0,3,0.401,0.0,775.7669999999999,0.1,1,2019-02-19 09:16:06.000,10,2019-02-19 09:29:00.115,0.25,90,-180,-180,90,1
1,0,21.366999999999997,0,0,1,0.25,2,9,0.0,1.0,6,40.0,30.0,9,0.47600000000000003,1.0,24.32,0.2,1,2019-02-19 14:25:57.000,39,2019-02-19 14:26:18.367,0.25,-90,0,0,-90,1
2,0,52.585,0,0,1,0.25,2,9,0.0,1.0,6,40.0,30.0,9,0.701,0.0,53.855,0.0,0,2019-02-19 14:25:57.000,39,2019-02-19 14:26:49.585,0.25,90,0,0,90,1
4,0,82.71600000000001,0,0,1,0.25,2,9,0.0,1.0,6,40.0,30.0,9,0.551,1.0,84.176,0.2,1,2019-02-19 14:25:57.000,39,2019-02-19 14:27:19.716,0.25,-90,0,0,-90,1
5,0,101.51100000000001,0,0,1,0.25,2,9,0.0,1.0,6,40.0,30.0,9,0.626,1.0,102.771,0.2,1,2019-02-19 14:25:57.000,39,2019-02-19 14:27:38.511,0.25,-90,0,0,-90,1
6,0,119.274,0,0,1,0.25,2,3,0.0,1.0,12,40.0,30.0,3,0.626,1.0,120.87799999999999,0.0,0,2019-02-19 14:25:57.000,39,2019-02-19 14:27:56.274,0.25,-90,-180,-180,-90,1
8,0,137.43,0,0,1,0.25,2,9,0.0,1.0,6,40.0,30.0,9,0.701,0.0,138.91,0.0,0,2019-02-19 14:25:57.000,39,2019-02-19 14:28:14.430,0.25,90,0,0,90,1
10,0,171.50400000000002,0,0,1,0.25,2,9,0.0,1.0,6,40.0,30.0,9,0.47600000000000003,1.0,173.247,0.2,1,2019-02-19 14:25:57.000,39,2019-02-19 14:28:48.504,0.25,-90,0,0,-90,1
11,0,188.62599999999998,0,0,1,0.25,2,3,0.0,1.0,12,40.0,30.0,3,0.47600000000000003,1.0,189.935,0.0,0,2019-02-19 14:25:57.000,39,2019-02-19 14:29:05.626,0.25,-90,-180,-180,-90,1
13,0,208.91299999999998,0,0,1,0.25,2,3,0.0,1.0,12,40.0,30.0,3,0.701,0.0,210.725,0.1,1,2019-02-19 14:25:57.000,39,2019-02-19 14:29:25.913,0.25,90,-180,-180,90,1
14,0,216.81900000000002,0,0,1,0.25,2,9,0.0,1.0,6,40.0,30.0,9,0.626,0.0,218.637,0.0,0,2019-02-19 14:25:57.000,39,2019-02-19 14:29:33.819,0.25,90,0,0,90,1
16,0,245.09400000000002,0,0,1,0.25,2,3,0.0,1.0,12,40.0,30.0,3,0.401,1.0,247.02599999999998,0.0,0,2019-02-19 14:25:57.000,39,2019-02-19 14:30:02.094,0.25,-90,-180,-180,-90,1
18,0,282.868,0,0,1,0.25,2,3,0.0,1.0,12,40.0,30.0,3,0.551,0.0,284.869,0.1,1,2019-02-19 14:25:57.000,39,2019-02-19 14:30:39.868,0.25,90,-180,-180,90,1
19,0,290.64599999999996,0,0,1,0.25,2,3,0.0,1.0,12,40.0,30.0,3,0.47600000000000003,0.0,292.192,0.1,1,2019-02-19 14:25:57.000,39,2019-02-19 14:30:47.646,0.25,90,-180,-180,90,1
20,0,304.884,0,0,1,0.25,2,3,0.0,1.0,12,40.0,30.0,3,0.701,0.0,306.644,0.1,1,2019-02-19 14:25:57.000,39,2019-02-19 14:31:01.884,0.25,90,-180,-180,90,1
21,0,330.56,0,0,1,0.25,2,9,0.0,1.0,6,40.0,30.0,9,0.626,1.0,332.93,0.1,1,2019-02-19 14:25:57.000,39,2019-02-19 14:31:27.560,0.25,-90,0,0,-90,1
22,0,343.848,0,0,1,0.25,2,3,0.0,1.0,12,40.0,30.0,3,0.47600000000000003,1.0,345.4,0.0,0,2019-02-19 14:25:57.000,39,2019-02-19 14:31:40.848,0.25,-90,-180,-180,-90,1
24,0,356.708,0,0,1,0.25,2,3,0.0,1.0,12,40.0,30.0,3,0.401,0.0,358.481,0.1,1,2019-02-19 14:25:57.000,39,2019-02-19 14:31:53.708,0.25,90,-180,-180,90,1
25,0,369.16900000000004,0,0,1,0.25,2,9,0.0,1.0,6,40.0,30.0,9,0.551,1.0,370.67199999999997,0.2,1,2019-02-19 14:25:57.000,39,2019-02-19 14:32:06.169,0.25,-90,0,0,-90,1
26,0,385.61,0,0,1,0.25,2,9,0.0,1.0,6,40.0,30.0,9,0.551,1.0,387.306,0.2,1,2019-02-19 14:25:57.000,39,2019-02-19 14:32:22.610,0.25,-90,0,0,-90,1
27,0,402.707,0,0,1,0.25,2,3,0.0,1.0,12,40.0,30.0,3,0.626,0.0,405.486,0.1,1,2019-02-19 14:25:57.000,39,2019-02-19 14:32:39.707,0.25,90,-180,-180,90,1
28,0,412.63800000000003,0,0,1,0.25,2,3,0.0,1.0,12,40.0,30.0,3,0.47600000000000003,0.0,414.43199999999996,0.1,1,2019-02-19 14:25:57.000,39,2019-02-19 14:32:49.638,0.25,90,-180,-180,90,1
29,0,427.624,0,0,1,0.25,2,3,0.0,1.0,12,40.0,30.0,3,0.701,0.0,429.30199999999996,0.1,1,2019-02-19 14:25:57.000,39,2019-02-19 14:33:04.624,0.25,90,-180,-180,90,1
30,0,445.71,0,0,1,0.25,2,3,0.0,1.0,12,40.0,30.0,3,0.401,0.0,447.652,0.1,1,2019-02-19 14:25:57.000,39,2019-02-19 14:33:22.710,0.25,90,-180,-180,90,1
31,0,452.801,0,0,1,0.25,2,9,0.0,1.0,6,40.0,30.0,9,0.551,1.0,455.374,0.2,1,2019-02-19 14:25:57.000,39,2019-02-19 14:33:29.801,0.25,-90,0,0,-90,1
32,0,471.977,0,0,1,0.25,2,9,0.0,1.0,6,40.0,30.0,9,0.47600000000000003,1.0,474.07800000000003,0.2,1,2019-02-19 14:25:57.000,39,2019-02-19 14:33:48.977,0.25,-90,0,0,-90,1
33,0,489.211,0,0,1,0.25,2,3,0.0,1.0,12,40.0,30.0,3,0.701,0.0,491.452,0.05,1,2019-02-19 14:25:57.000,39,2019-02-19 14:34:06.211,0.25,90,-180,-180,90,1
34,0,498.01800000000003,0,0,1,0.25,2,3,0.0,1.0,12,40.0,30.0,3,0.401,0.0,499.586,0.1,1,2019-02-19 14:25:57.000,39,2019-02-19 14:34:15.018,0.25,90,-180,-180,90,1
35,0,505.099,0,0,1,0.25,2,3,0.0,1.0,12,40.0,30.0,3,0.626,0.0,506.652,0.1,1,2019-02-19 14:25:57.000,39,2019-02-19 14:34:22.099,0.25,90,-180,-180,90,1
36,0,520.049,0,0,1,0.25,2,3,0.0,1.0,12,40.0,30.0,3,0.701,0.0,522.003,0.1,1,2019-02-19 14:25:57.000,39,2019-02-19 14:34:37.049,0.25,90,-180,-180,90,1
37,0,545.7080000000001,0,0,1,0.25,2,9,0.0,1.0,6,40.0,30.0,9,0.401,1.0,547.342,0.2,1,2019-02-19 14:25:57.000,39,2019-02-19 14:35:02.708,0.25,-90,0,0,-90,1
38,0,562.674,0,0,1,0.25,2,9,0.0,1.0,6,40.0,30.0,9,0.47600000000000003,1.0,564.46,0.2,1,2019-02-19 14:25:57.000,39,2019-02-19 14:35:19.674,0.25,-90,0,0,-90,1
39,0,581.492,0,0,1,0.25,2,9,0.0,1.0,6,40.0,30.0,9,0.626,0.0,584.668,0.0,0,2019-02-19 14:25:57.000,39,2019-02-19 14:35:38.492,0.25,90,0,0,90,1
42,0,615.169,0,0,1,0.25,2,9,0.0,1.0,6,40.0,30.0,9,0.626,1.0,616.867,0.2,1,2019-02-19 14:25:57.000,39,2019-02-19 14:36:12.169,0.25,-90,0,0,-90,1
43,0,637.4490000000001,0,0,1,0.25,2,3,0.0,1.0,12,40.0,30.0,3,0.701,0.0,638.995,0.1,1,2019-02-19 14:25:57.000,39,2019-02-19 14:36:34.449,0.25,90,-180,-180,90,1
44,0,652.05,0,0,1,0.25,2,3,0.0,1.0,12,40.0,30.0,3,0.551,0.0,653.901,0.1,1,2019-02-19 14:25:57.000,39,2019-02-19 14:36:49.050,0.25,90,-180,-180,90,1
45,0,659.315,0,0,1,0.25,2,9,0.0,1.0,6,40.0,30.0,9,0.401,1.0,662.1039999999999,0.2,1,2019-02-19 14:25:57.000,39,2019-02-19 14:36:56.315,0.25,-90,0,0,-90,1
46,0,679.952,0,0,1,0.25,2,9,0.0,1.0,6,40.0,30.0,9,0.626,1.0,681.529,0.2,1,2019-02-19 14:25:57.000,39,2019-02-19 14:37:16.952,0.25,-90,0,0,-90,1
47,0,696.684,0,0,1,0.25,2,9,0.0,1.0,6,40.0,30.0,9,0.401,1.0,698.61,0.1,1,2019-02-19 14:25:57.000,39,2019-02-19 14:37:33.684,0.25,-90,0,0,-90,1
48,0,710.497,0,0,1,0.25,2,9,0.0,1.0,6,40.0,30.0,9,0.47600000000000003,1.0,712.319,0.2,1,2019-02-19 14:25:57.000,39,2019-02-19 14:37:47.497,0.25,-90,0,0,-90,1
49,0,729.765,0,0,1,0.25,2,3,0.0,1.0,12,40.0,30.0,3,0.551,0.0,731.81,0.1,1,2019-02-19 14:25:57.000,39,2019-02-19 14:38:06.765,0.25,90,-180,-180,90,1
50,0,743.314,0,0,1,0.25,2,3,0.0,1.0,12,40.0,30.0,3,0.701,0.0,745.2189999999999,0.05,1,2019-02-19 14:25:57.000,39,2019-02-19 14:38:20.314,0.25,90,-180,-180,90,1
51,0,751.2689999999999,0,0,1,0.25,2,3,0.0,1.0,12,40.0,30.0,3,0.401,0.0,752.953,0.1,1,2019-02-19 14:25:57.000,39,2019-02-19 14:38:28.269,0.25,90,-180,-180,90,1
52,0,760.707,0,0,1,0.25,2,9,0.0,1.0,6,40.0,30.0,9,0.47600000000000003,0.0,762.576,0.0,0,2019-02-19 14:25:57.000,39,2019-02-19 14:38:37.707,0.25,90,0,0,90,1
55,0,816.02,0,0,1,0.25,2,3,0.0,1.0,12,40.0,30.0,3,0.551,0.0,818.303,0.05,1,2019-02-19 14:25:57.000,39,2019-02-19 14:39:33.020,0.25,90,-180,-180,90,1
56,0,824.1210000000001,0,0,1,0.25,2,9,0.0,1.0,6,40.0,30.0,9,0.47600000000000003,0.0,825.877,0.0,0,2019-02-19 14:25:57.000,39,2019-02-19 14:39:41.121,0.25,90,0,0,90,1
58,0,847.554,0,0,1,0.25,2,9,0.0,1.0,6,40.0,30.0,9,0.626,1.0,849.268,0.2,1,2019-02-19 14:25:57.000,39,2019-02-19 14:40:04.554,0.25,-90,0,0,-90,1
59,0,867.7669999999999,0,0,1,0.25,2,3,0.0,1.0,12,40.0,30.0,3,0.701,0.0,869.9860000000001,0.1,1,2019-02-19 14:25:57.000,39,2019-02-19 14:40:24.767,0.25,90,-180,-180,90,1
60,0,876.357,0,0,1,0.25,2,9,0.0,1.0,6,40.0,30.0,9,0.401,0.0,878.441,0.0,0,2019-02-19 14:25:57.000,39,2019-02-19 14:40:33.357,0.25,90,0,0,90,1
62,0,902.5169999999999,0,0,1,0.25,2,9,0.0,1.0,6,40.0,30.0,9,0.701,0.0,904.735,0.0,0,2019-02-19 14:25:57.000,39,2019-02-19 14:40:59.517,0.25,90,0,0,90,1
65,0,932.3989999999999,0,0,1,0.25,2,3,0.0,1.0,12,40.0,30.0,3,0.47600000000000003,0.0,934.816,0.1,1,2019-02-19 14:25:57.000,39,2019-02-19 14:41:29.399,0.25,90,-180,-180,90,1
66,0,940.2869999999999,0,0,1,0.25,2,9,0.0,1.0,6,40.0,30.0,9,0.551,0.0,942.8810000000001,0.0,0,2019-02-19 14:25:57.000,39,2019-02-19 14:41:37.287,0.25,90,0,0,90,1
68,0,976.681,0,0,1,0.25,2,9,0.0,1.0,6,40.0,30.0,9,0.401,1.0,978.86,0.2,1,2019-02-19 14:25:57.000,39,2019-02-19 14:42:13.681,0.25,-90,0,0,-90,1
69,0,996.557,0,0,1,0.25,2,3,0.0,1.0,12,40.0,30.0,3,0.626,0.0,998.8760000000001,0.05,1,2019-02-19 14:25:57.000,39,2019-02-19 14:42:33.557,0.25,90,-180,-180,90,1
70,0,1004.8910000000001,0,0,1,0.25,2,9,0.0,1.0,6,40.0,30.0,9,0.47600000000000003,1.0,1007.823,0.2,1,2019-02-19 14:25:57.000,39,2019-02-19 14:42:41.891,0.25,-90,0,0,-90,1
71,0,1025.145,0,0,1,0.25,2,3,0.0,1.0,12,40.0,30.0,3,0.551,0.0,1027.218,0.1,1,2019-02-19 14:25:57.000,39,2019-02-19 14:43:02.145,0.25,90,-180,-180,90,1
72,0,1033.583,1,0,1,0.25,2,3,0.0,1.0,12,40.0,30.0,3,0.626,0.0,1040.971,0.1,1,2019-02-19 14:25:57.000,39,2019-02-19 14:43:10.583,0.25,90,-180,-180,90,1
73,0,1088.371,0,0,1,0.25,2,9,0.0,1.0,6,40.0,30.0,9,0.401,0.0,1090.672,0.0,0,2019-02-19 14:25:57.000,39,2019-02-19 14:44:05.371,0.25,90,0,0,90,1
75,0,1131.228,0,0,1,0.25,2,3,0.0,1.0,12,40.0,30.0,3,0.701,0.0,1133.0919999999999,0.1,1,2019-02-19 14:25:57.000,39,2019-02-19 14:44:48.228,0.25,90,-180,-180,90,1
76,0,1139.133,0,0,1,0.25,2,3,0.0,1.0,12,40.0,30.0,3,0.47600000000000003,0.0,1141.25,0.1,1,2019-02-19 14:25:57.000,39,2019-02-19 14:44:56.133,0.25,90,-180,-180,90,1
77,0,1167.577,0,0,1,0.25,2,9,0.0,1.0,6,40.0,30.0,9,0.401,1.0,1169.8139999999999,0.2,1,2019-02-19 14:25:57.000,39,2019-02-19 14:45:24.577,0.25,-90,0,0,-90,1
78,0,1186.98,0,0,1,0.25,2,3,0.0,1.0,12,40.0,30.0,3,0.626,0.0,1189.891,0.1,1,2019-02-19 14:25:57.000,39,2019-02-19 14:45:43.980,0.25,90,-180,-180,90,1
79,0,1196.595,0,0,1,0.25,2,3,0.0,1.0,12,40.0,30.0,3,0.701,0.0,1198.586,0.1,1,2019-02-19 14:25:57.000,39,2019-02-19 14:45:53.595,0.25,90,-180,-180,90,1
80,0,1205.656,0,0,1,0.25,2,9,0.0,1.0,6,40.0,30.0,9,0.551,1.0,1208.3210000000001,0.2,1,2019-02-19 14:25:57.000,39,2019-02-19 14:46:02.656,0.25,-90,0,0,-90,1
81,0,1224.948,0,0,1,0.25,2,9,0.0,1.0,6,40.0,30.0,9,0.47600000000000003,1.0,1226.641,0.2,1,2019-02-19 14:25:57.000,39,2019-02-19 14:46:21.948,0.25,-90,0,0,-90,1
82,0,1251.3410000000001,0,0,1,0.25,2,3,0.0,1.0,12,40.0,30.0,3,0.626,0.0,1253.0539999999999,0.1,1,2019-02-19 14:25:57.000,39,2019-02-19 14:46:48.341,0.25,90,-180,-180,90,1
83,0,1258.4160000000002,0,0,1,0.25,2,9,0.0,1.0,6,40.0,30.0,9,0.551,1.0,1261.1689999999999,0.2,1,2019-02-19 14:25:57.000,39,2019-02-19 14:46:55.416,0.25,-90,0,0,-90,1
84,0,1284.5919999999999,0,0,1,0.25,2,3,0.0,1.0,12,40.0,30.0,3,0.401,0.0,1286.646,0.1,1,2019-02-19 14:25:57.000,39,2019-02-19 14:47:21.592,0.25,90,-180,-180,90,1
