Trial,CorrectionTrial,StartTime,CenterReward,CenterSpoutRotation,nStimReps,Duration,Modality,LED Location,LED_trial_V,LED_bgnd_V,Speaker Location,Speaker_trial_V,Speaker_bgnd_V,TargetSpout,HoldTime,Response,RespTime,ValveTime,Correct,SessionDate,SessionID,StartDateTime,StimulusTotalDuration,response_angle_world,speaker_angle_world,speaker_angle_platform,response_angle_platform,not_probe
1,0,32.405,0,90,1,0.25,2,90,0.0,0.0,6,45.0,20.0,9,0.601,0.0,32.971,0.0,0,2019-06-17 10:41:01.000,32,2019-06-17 10:41:33.405,0.25,90,0,-90,0,1
3,0,99.757,0,90,1,0.25,2,90,0.0,0.0,6,45.0,20.0,9,0.8009999999999999,1.0,101.083,0.15,1,2019-06-17 10:41:01.000,32,2019-06-17 10:42:40.757,0.25,-90,0,-90,-180,1
4,0,116.45200000000001,1,90,1,0.25,2,90,0.0,0.0,6,45.0,20.0,9,0.6509999999999999,1.0,116.81299999999999,0.15,1,2019-06-17 10:41:01.000,32,2019-06-17 10:42:57.452,0.25,-90,0,-90,-180,1
5,0,118.488,0,90,1,0.25,2,30,0.0,0.0,12,45.0,20.0,3,0.701,1.0,121.334,0.0,0,2019-06-17 10:41:01.000,32,2019-06-17 10:42:59.488,0.25,-90,-180,90,-180,1
7,0,134.273,0,90,1,0.25,2,30,0.0,0.0,12,45.0,20.0,3,0.7509999999999999,0.0,134.61700000000002,0.15,1,2019-06-17 10:41:01.000,32,2019-06-17 10:43:15.273,0.25,90,-180,90,0,1
8,0,150.326,1,90,1,0.25,2,90,0.0,0.0,6,45.0,20.0,9,0.7509999999999999,1.0,151.095,0.15,1,2019-06-17 10:41:01.000,32,2019-06-17 10:43:31.326,0.25,-90,0,-90,-180,1
9,0,152.605,0,90,1,0.25,2,30,0.0,0.0,12,45.0,20.0,3,0.601,1.0,154.719,0.0,0,2019-06-17 10:41:01.000,32,2019-06-17 10:43:33.605,0.25,-90,-180,90,-180,1
11,0,160.787,0,90,1,0.25,2,30,0.0,0.0,12,45.0,20.0,3,0.6509999999999999,0.0,163.149,0.15,1,2019-06-17 10:41:01.000,32,2019-06-17 10:43:41.787,0.25,90,-180,90,0,1
12,0,168.597,1,90,1,0.25,2,30,0.0,0.0,12,45.0,20.0,3,0.8009999999999999,0.0,169.09400000000002,0.15,1,2019-06-17 10:41:01.000,32,2019-06-17 10:43:49.597,0.25,90,-180,90,0,1
13,0,170.56,1,90,1,0.25,2,90,0.0,0.0,6,45.0,20.0,9,0.701,1.0,172.62900000000002,0.15,1,2019-06-17 10:41:01.000,32,2019-06-17 10:43:51.560,0.25,-90,0,-90,-180,1
14,0,174.321,0,90,1,0.25,2,30,0.0,0.0,12,45.0,20.0,3,0.7509999999999999,0.0,176.502,0.15,1,2019-06-17 10:41:01.000,32,2019-06-17 10:43:55.321,0.25,90,-180,90,0,1
15,0,180.085,0,90,1,0.25,2,30,0.0,0.0,12,45.0,20.0,3,0.6509999999999999,0.0,180.68,0.15,1,2019-06-17 10:41:01.000,32,2019-06-17 10:44:01.085,0.25,90,-180,90,0,1
16,0,184.17,1,90,1,0.25,2,30,0.0,0.0,12,45.0,20.0,3,0.601,0.0,184.593,0.15,1,2019-06-17 10:41:01.000,32,2019-06-17 10:44:05.170,0.25,90,-180,90,0,1
17,0,186.00099999999998,1,90,1,0.25,2,90,0.0,0.0,6,45.0,20.0,9,0.701,1.0,187.75599999999997,0.15,1,2019-06-17 10:41:01.000,32,2019-06-17 10:44:07.001,0.25,-90,0,-90,-180,1
18,0,189.18599999999998,0,90,1,0.25,2,90,0.0,0.0,6,45.0,20.0,9,0.8009999999999999,1.0,190.815,0.15,1,2019-06-17 10:41:01.000,32,2019-06-17 10:44:10.186,0.25,-90,0,-90,-180,1
19,0,192.02,1,90,1,0.25,2,30,0.0,0.0,12,45.0,20.0,3,0.601,0.0,192.53799999999998,0.15,1,2019-06-17 10:41:01.000,32,2019-06-17 10:44:13.020,0.25,90,-180,90,0,1
20,0,193.893,0,90,1,0.25,2,90,0.0,0.0,6,45.0,20.0,9,0.7509999999999999,1.0,195.99200000000002,0.15,1,2019-06-17 10:41:01.000,32,2019-06-17 10:44:14.893,0.25,-90,0,-90,-180,1
21,0,202.037,0,90,1,0.25,2,90,0.0,0.0,6,45.0,20.0,9,0.701,1.0,202.735,0.15,1,2019-06-17 10:41:01.000,32,2019-06-17 10:44:23.037,0.25,-90,0,-90,-180,1
22,0,205.625,0,90,1,0.25,2,90,0.0,0.0,6,45.0,20.0,9,0.6509999999999999,1.0,207.703,0.15,1,2019-06-17 10:41:01.000,32,2019-06-17 10:44:26.625,0.25,-90,0,-90,-180,1
23,0,214.65200000000002,1,90,1,0.25,2,30,0.0,0.0,12,45.0,20.0,3,0.8009999999999999,0.0,215.523,0.15,1,2019-06-17 10:41:01.000,32,2019-06-17 10:44:35.652,0.25,90,-180,90,0,1
24,0,216.799,1,90,1,0.25,2,30,0.0,0.0,12,45.0,20.0,3,0.6509999999999999,0.0,218.535,0.15,1,2019-06-17 10:41:01.000,32,2019-06-17 10:44:37.799,0.25,90,-180,90,0,1
25,0,219.77700000000002,0,90,1,0.25,2,30,0.0,0.0,12,45.0,20.0,3,0.7509999999999999,0.0,221.748,0.15,1,2019-06-17 10:41:01.000,32,2019-06-17 10:44:40.777,0.25,90,-180,90,0,1
26,0,227.28,0,90,1,0.25,2,90,0.0,0.0,6,45.0,20.0,9,0.601,1.0,228.09599999999998,0.15,1,2019-06-17 10:41:01.000,32,2019-06-17 10:44:48.280,0.25,-90,0,-90,-180,1
27,0,232.14,0,90,1,0.25,2,90,0.0,0.0,6,45.0,20.0,9,0.8009999999999999,1.0,232.71099999999998,0.15,1,2019-06-17 10:41:01.000,32,2019-06-17 10:44:53.140,0.25,-90,0,-90,-180,1
28,0,236.27900000000002,0,90,1,0.25,2,30,0.0,0.0,12,45.0,20.0,3,0.701,0.0,236.861,0.15,1,2019-06-17 10:41:01.000,32,2019-06-17 10:44:57.279,0.25,90,-180,90,0,1
29,0,240.678,0,90,1,0.25,2,30,0.0,0.0,12,45.0,20.0,3,0.8009999999999999,0.0,241.543,0.15,1,2019-06-17 10:41:01.000,32,2019-06-17 10:45:01.678,0.25,90,-180,90,0,1
30,0,245.215,1,90,1,0.25,2,90,0.0,0.0,6,45.0,20.0,9,0.7509999999999999,1.0,246.218,0.15,1,2019-06-17 10:41:01.000,32,2019-06-17 10:45:06.215,0.25,-90,0,-90,-180,1
31,0,247.87400000000002,0,90,1,0.25,2,90,0.0,0.0,6,45.0,20.0,9,0.701,1.0,250.092,0.15,1,2019-06-17 10:41:01.000,32,2019-06-17 10:45:08.874,0.25,-90,0,-90,-180,1
32,0,254.507,0,90,1,0.25,2,90,0.0,0.0,6,45.0,20.0,9,0.6509999999999999,0.0,255.013,0.0,0,2019-06-17 10:41:01.000,32,2019-06-17 10:45:15.507,0.25,90,0,-90,0,1
34,0,301.767,1,90,1,0.25,2,30,0.0,0.0,12,45.0,20.0,3,0.601,0.0,302.406,0.15,1,2019-06-17 10:41:01.000,32,2019-06-17 10:46:02.767,0.25,90,-180,90,0,1
35,0,303.676,0,90,1,0.25,2,90,0.0,0.0,6,45.0,20.0,9,0.601,1.0,304.982,0.15,1,2019-06-17 10:41:01.000,32,2019-06-17 10:46:04.676,0.25,-90,0,-90,-180,1
36,0,308.007,0,90,1,0.25,2,90,0.0,0.0,6,45.0,20.0,9,0.8009999999999999,1.0,308.539,0.15,1,2019-06-17 10:41:01.000,32,2019-06-17 10:46:09.007,0.25,-90,0,-90,-180,1
37,0,314.214,0,90,1,0.25,2,30,0.0,0.0,12,45.0,20.0,3,0.7509999999999999,0.0,314.74,0.15,1,2019-06-17 10:41:01.000,32,2019-06-17 10:46:15.214,0.25,90,-180,90,0,1
38,0,317.58299999999997,1,90,1,0.25,2,30,0.0,0.0,12,45.0,20.0,3,0.6509999999999999,0.0,317.991,0.15,1,2019-06-17 10:41:01.000,32,2019-06-17 10:46:18.583,0.25,90,-180,90,0,1
39,0,319.39799999999997,0,90,1,0.25,2,90,0.0,0.0,6,45.0,20.0,9,0.701,1.0,321.205,0.15,1,2019-06-17 10:41:01.000,32,2019-06-17 10:46:20.398,0.25,-90,0,-90,-180,1
40,0,325.568,0,90,1,0.25,2,90,0.0,0.0,6,45.0,20.0,9,0.701,0.0,325.975,0.0,0,2019-06-17 10:41:01.000,32,2019-06-17 10:46:26.568,0.25,90,0,-90,0,1
42,0,337.898,0,90,1,0.25,2,30,0.0,0.0,12,45.0,20.0,3,0.601,0.0,338.256,0.15,1,2019-06-17 10:41:01.000,32,2019-06-17 10:46:38.898,0.25,90,-180,90,0,1
43,0,339.467,0,90,1,0.25,2,30,0.0,0.0,12,45.0,20.0,3,0.7509999999999999,0.0,339.892,0.15,1,2019-06-17 10:41:01.000,32,2019-06-17 10:46:40.467,0.25,90,-180,90,0,1
44,0,364.01099999999997,1,90,1,0.25,2,30,0.0,0.0,12,45.0,20.0,3,0.8009999999999999,0.0,364.74300000000005,0.15,1,2019-06-17 10:41:01.000,32,2019-06-17 10:47:05.011,0.25,90,-180,90,0,1
45,0,366.741,1,90,1,0.25,2,90,0.0,0.0,6,45.0,20.0,9,0.6509999999999999,1.0,367.93,0.15,1,2019-06-17 10:41:01.000,32,2019-06-17 10:47:07.741,0.25,-90,0,-90,-180,1
46,0,369.412,0,90,1,0.25,2,90,0.0,0.0,6,45.0,20.0,9,0.8009999999999999,0.0,373.221,0.0,0,2019-06-17 10:41:01.000,32,2019-06-17 10:47:10.412,0.25,90,0,-90,0,1
49,0,439.38,1,90,1,0.25,2,30,0.0,0.0,12,45.0,20.0,3,0.7509999999999999,0.0,439.772,0.15,1,2019-06-17 10:41:01.000,32,2019-06-17 10:48:20.380,0.25,90,-180,90,0,1
50,0,443.67800000000005,0,90,1,0.25,2,30,0.0,0.0,12,45.0,20.0,3,0.601,0.0,443.903,0.15,1,2019-06-17 10:41:01.000,32,2019-06-17 10:48:24.678,0.25,90,-180,90,0,1
51,0,445.158,1,90,1,0.25,2,30,0.0,0.0,12,45.0,20.0,3,0.6509999999999999,0.0,445.32199999999995,0.15,1,2019-06-17 10:41:01.000,32,2019-06-17 10:48:26.158,0.25,90,-180,90,0,1
52,0,446.711,0,90,1,0.25,2,90,0.0,0.0,6,45.0,20.0,9,0.701,0.0,448.431,0.0,0,2019-06-17 10:41:01.000,32,2019-06-17 10:48:27.711,0.25,90,0,-90,0,1
54,0,455.023,0,90,1,0.25,2,30,0.0,0.0,12,45.0,20.0,3,0.701,0.0,455.55400000000003,0.15,1,2019-06-17 10:41:01.000,32,2019-06-17 10:48:36.023,0.25,90,-180,90,0,1
55,0,462.092,0,90,1,0.25,2,30,0.0,0.0,12,45.0,20.0,3,0.6509999999999999,0.0,462.98699999999997,0.15,1,2019-06-17 10:41:01.000,32,2019-06-17 10:48:43.092,0.25,90,-180,90,0,1
56,0,467.74800000000005,1,90,1,0.25,2,30,0.0,0.0,12,45.0,20.0,3,0.601,0.0,468.148,0.15,1,2019-06-17 10:41:01.000,32,2019-06-17 10:48:48.748,0.25,90,-180,90,0,1
57,0,469.62699999999995,0,90,1,0.25,2,90,0.0,0.0,6,45.0,20.0,9,0.7509999999999999,0.0,472.825,0.0,0,2019-06-17 10:41:01.000,32,2019-06-17 10:48:50.627,0.25,90,0,-90,0,1
59,0,488.661,1,90,1,0.25,2,30,0.0,0.0,12,45.0,20.0,3,0.8009999999999999,0.0,489.392,0.15,1,2019-06-17 10:41:01.000,32,2019-06-17 10:49:09.661,0.25,90,-180,90,0,1
60,0,490.79699999999997,0,90,1,0.25,2,30,0.0,0.0,12,45.0,20.0,3,0.701,0.0,491.971,0.15,1,2019-06-17 10:41:01.000,32,2019-06-17 10:49:11.797,0.25,90,-180,90,0,1
61,0,495.092,0,90,1,0.25,2,90,0.0,0.0,6,45.0,20.0,9,0.8009999999999999,1.0,495.62,0.15,1,2019-06-17 10:41:01.000,32,2019-06-17 10:49:16.092,0.25,-90,0,-90,-180,1
62,0,501.29699999999997,0,90,1,0.25,2,90,0.0,0.0,6,45.0,20.0,9,0.6509999999999999,1.0,501.806,0.15,1,2019-06-17 10:41:01.000,32,2019-06-17 10:49:22.297,0.25,-90,0,-90,-180,1
63,0,506.288,0,90,1,0.25,2,90,0.0,0.0,6,45.0,20.0,9,0.601,1.0,506.796,0.15,1,2019-06-17 10:41:01.000,32,2019-06-17 10:49:27.288,0.25,-90,0,-90,-180,1
64,0,511.082,0,90,1,0.25,2,30,0.0,0.0,12,45.0,20.0,3,0.7509999999999999,0.0,511.496,0.15,1,2019-06-17 10:41:01.000,32,2019-06-17 10:49:32.082,0.25,90,-180,90,0,1
65,0,524.429,0,90,1,0.25,2,90,0.0,0.0,6,45.0,20.0,9,0.8009999999999999,0.0,525.261,0.0,0,2019-06-17 10:41:01.000,32,2019-06-17 10:49:45.429,0.25,90,0,-90,0,1
67,0,562.95,1,90,1,0.25,2,90,0.0,0.0,6,45.0,20.0,9,0.701,1.0,563.6469999999999,0.15,1,2019-06-17 10:41:01.000,32,2019-06-17 10:50:23.950,0.25,-90,0,-90,-180,1
68,0,565.076,1,90,1,0.25,2,90,0.0,0.0,6,45.0,20.0,9,0.6509999999999999,1.0,566.439,0.15,1,2019-06-17 10:41:01.000,32,2019-06-17 10:50:26.076,0.25,-90,0,-90,-180,1
69,0,568.0980000000001,0,90,1,0.25,2,30,0.0,0.0,12,45.0,20.0,3,0.7509999999999999,1.0,569.875,0.0,0,2019-06-17 10:41:01.000,32,2019-06-17 10:50:29.098,0.25,-90,-180,90,-180,1
71,0,579.997,0,90,1,0.25,2,90,0.0,0.0,6,45.0,20.0,9,0.601,1.0,580.385,0.15,1,2019-06-17 10:41:01.000,32,2019-06-17 10:50:40.997,0.25,-90,0,-90,-180,1
72,0,585.813,0,90,1,0.25,2,30,0.0,0.0,12,45.0,20.0,3,0.8009999999999999,0.0,586.229,0.15,1,2019-06-17 10:41:01.000,32,2019-06-17 10:50:46.813,0.25,90,-180,90,0,1
73,0,592.6519999999999,0,90,1,0.25,2,30,0.0,0.0,12,45.0,20.0,3,0.7509999999999999,0.0,593.429,0.15,1,2019-06-17 10:41:01.000,32,2019-06-17 10:50:53.652,0.25,90,-180,90,0,1
74,0,598.429,1,90,1,0.25,2,90,0.0,0.0,6,45.0,20.0,9,0.701,1.0,598.599,0.15,1,2019-06-17 10:41:01.000,32,2019-06-17 10:50:59.429,0.25,-90,0,-90,-180,1
75,0,600.111,0,90,1,0.25,2,30,0.0,0.0,12,45.0,20.0,3,0.6509999999999999,1.0,602.351,0.0,0,2019-06-17 10:41:01.000,32,2019-06-17 10:51:01.111,0.25,-90,-180,90,-180,1
77,0,617.594,0,90,1,0.25,2,30,0.0,0.0,12,45.0,20.0,3,0.601,0.0,618.484,0.15,1,2019-06-17 10:41:01.000,32,2019-06-17 10:51:18.594,0.25,90,-180,90,0,1
1,0,20.982,1,60,1,0.25,2,90,0.0,0.0,6,45.0,20.0,9,0.8009999999999999,1.0,23.647,0.15,1,2019-06-17 16:02:49.000,27,2019-06-17 16:03:09.982,0.25,-90,0,-60,-150,1
2,0,27.675,0,60,1,0.25,2,30,0.0,0.0,12,45.0,20.0,3,0.6509999999999999,0.0,28.455,0.15,1,2019-06-17 16:02:49.000,27,2019-06-17 16:03:16.675,0.25,90,-180,120,30,1
3,0,29.429000000000002,0,60,1,0.25,2,30,0.0,0.0,12,45.0,20.0,3,0.601,0.0,29.73,0.15,1,2019-06-17 16:02:49.000,27,2019-06-17 16:03:18.429,0.25,90,-180,120,30,1
4,0,32.676,0,60,1,0.25,2,30,0.0,0.0,12,45.0,20.0,3,0.7509999999999999,0.0,33.035,0.15,1,2019-06-17 16:02:49.000,27,2019-06-17 16:03:21.676,0.25,90,-180,120,30,1
5,0,36.23,0,60,1,0.25,2,90,0.0,0.0,6,45.0,20.0,9,0.701,0.0,36.85,0.0,0,2019-06-17 16:02:49.000,27,2019-06-17 16:03:25.230,0.25,90,0,-60,30,1
7,0,48.239,0,60,1,0.25,2,90,0.0,0.0,6,45.0,20.0,9,0.8009999999999999,0.0,48.906000000000006,0.0,0,2019-06-17 16:02:49.000,27,2019-06-17 16:03:37.239,0.25,90,0,-60,30,1
11,0,111.152,0,60,1,0.25,2,90,0.0,0.0,6,45.0,20.0,9,0.601,1.0,113.838,0.15,1,2019-06-17 16:02:49.000,27,2019-06-17 16:04:40.152,0.25,-90,0,-60,-150,1
12,0,117.993,1,60,1,0.25,2,90,0.0,0.0,6,45.0,20.0,9,0.6509999999999999,1.0,118.415,0.15,1,2019-06-17 16:02:49.000,27,2019-06-17 16:04:46.993,0.25,-90,0,-60,-150,1
13,0,119.781,0,60,1,0.25,2,90,0.0,0.0,6,45.0,20.0,9,0.701,1.0,121.725,0.15,1,2019-06-17 16:02:49.000,27,2019-06-17 16:04:48.781,0.25,-90,0,-60,-150,1
14,0,124.961,0,60,1,0.25,2,30,0.0,0.0,12,45.0,20.0,3,0.7509999999999999,0.0,125.245,0.15,1,2019-06-17 16:02:49.000,27,2019-06-17 16:04:53.961,0.25,90,-180,120,30,1
15,0,129.17600000000002,0,60,1,0.25,2,30,0.0,0.0,12,45.0,20.0,3,0.701,0.0,129.414,0.15,1,2019-06-17 16:02:49.000,27,2019-06-17 16:04:58.176,0.25,90,-180,120,30,1
16,0,132.395,1,60,1,0.25,2,90,0.0,0.0,6,45.0,20.0,9,0.6509999999999999,1.0,132.644,0.15,1,2019-06-17 16:02:49.000,27,2019-06-17 16:05:01.395,0.25,-90,0,-60,-150,1
17,0,134.155,1,60,1,0.25,2,90,0.0,0.0,6,45.0,20.0,9,0.7509999999999999,1.0,136.74,0.15,1,2019-06-17 16:02:49.000,27,2019-06-17 16:05:03.155,0.25,-90,0,-60,-150,1
18,0,138.14,0,60,1,0.25,2,90,0.0,0.0,6,45.0,20.0,9,0.8009999999999999,0.0,140.66899999999998,0.0,0,2019-06-17 16:02:49.000,27,2019-06-17 16:05:07.140,0.25,90,0,-60,30,1
20,0,155.364,1,60,1,0.25,2,30,0.0,0.0,12,45.0,20.0,3,0.601,0.0,155.56799999999998,0.15,1,2019-06-17 16:02:49.000,27,2019-06-17 16:05:24.364,0.25,90,-180,120,30,1
21,0,156.78799999999998,0,60,1,0.25,2,30,0.0,0.0,12,45.0,20.0,3,0.601,0.0,158.627,0.15,1,2019-06-17 16:02:49.000,27,2019-06-17 16:05:25.788,0.25,90,-180,120,30,1
22,0,161.362,0,60,1,0.25,2,30,0.0,0.0,12,45.0,20.0,3,0.701,0.0,161.727,0.15,1,2019-06-17 16:02:49.000,27,2019-06-17 16:05:30.362,0.25,90,-180,120,30,1
23,0,164.92700000000002,0,60,1,0.25,2,30,0.0,0.0,12,45.0,20.0,3,0.7509999999999999,0.0,165.58900000000003,0.15,1,2019-06-17 16:02:49.000,27,2019-06-17 16:05:33.927,0.25,90,-180,120,30,1
24,0,171.425,0,60,1,0.25,2,30,0.0,0.0,12,45.0,20.0,3,0.8009999999999999,0.0,171.602,0.15,1,2019-06-17 16:02:49.000,27,2019-06-17 16:05:40.425,0.25,90,-180,120,30,1
25,0,175.33599999999998,0,60,1,0.25,2,90,0.0,0.0,6,45.0,20.0,9,0.6509999999999999,1.0,175.572,0.15,1,2019-06-17 16:02:49.000,27,2019-06-17 16:05:44.336,0.25,-90,0,-60,-150,1
26,0,179.813,0,60,1,0.25,2,30,0.0,0.0,12,45.0,20.0,3,0.6509999999999999,0.0,180.11,0.15,1,2019-06-17 16:02:49.000,27,2019-06-17 16:05:48.813,0.25,90,-180,120,30,1
27,0,183.479,0,60,1,0.25,2,30,0.0,0.0,12,45.0,20.0,3,0.8009999999999999,0.0,184.21599999999998,0.15,1,2019-06-17 16:02:49.000,27,2019-06-17 16:05:52.479,0.25,90,-180,120,30,1
28,0,186.864,0,60,1,0.25,2,30,0.0,0.0,12,45.0,20.0,3,0.701,0.0,187.533,0.15,1,2019-06-17 16:02:49.000,27,2019-06-17 16:05:55.864,0.25,90,-180,120,30,1
29,0,188.674,0,60,1,0.25,2,30,0.0,0.0,12,45.0,20.0,3,0.7509999999999999,0.0,190.08,0.15,1,2019-06-17 16:02:49.000,27,2019-06-17 16:05:57.674,0.25,90,-180,120,30,1
30,0,193.80200000000002,1,60,1,0.25,2,90,0.0,0.0,6,45.0,20.0,9,0.601,1.0,194.53900000000002,0.15,1,2019-06-17 16:02:49.000,27,2019-06-17 16:06:02.802,0.25,-90,0,-60,-150,1
31,0,195.628,1,60,1,0.25,2,30,0.0,0.0,12,45.0,20.0,3,0.601,0.0,197.31799999999998,0.15,1,2019-06-17 16:02:49.000,27,2019-06-17 16:06:04.628,0.25,90,-180,120,30,1
32,0,198.61700000000002,0,60,1,0.25,2,90,0.0,0.0,6,45.0,20.0,9,0.6509999999999999,0.0,200.44099999999997,0.0,0,2019-06-17 16:02:49.000,27,2019-06-17 16:06:07.617,0.25,90,0,-60,30,1
34,0,218.24900000000002,0,60,1,0.25,2,90,0.0,0.0,6,45.0,20.0,9,0.701,0.0,218.829,0.0,0,2019-06-17 16:02:49.000,27,2019-06-17 16:06:27.249,0.25,90,0,-60,30,1
36,0,225.081,1,60,1,0.25,2,90,0.0,0.0,6,45.0,20.0,9,0.8009999999999999,1.0,226.763,0.15,1,2019-06-17 16:02:49.000,27,2019-06-17 16:06:34.081,0.25,-90,0,-60,-150,1
37,0,228.12099999999998,0,60,1,0.25,2,30,0.0,0.0,12,45.0,20.0,3,0.7509999999999999,1.0,230.232,0.0,0,2019-06-17 16:02:49.000,27,2019-06-17 16:06:37.121,0.25,-90,-180,120,-150,1
39,0,242.15900000000002,1,60,1,0.25,2,90,0.0,0.0,6,45.0,20.0,9,0.8009999999999999,1.0,242.435,0.15,1,2019-06-17 16:02:49.000,27,2019-06-17 16:06:51.159,0.25,-90,0,-60,-150,1
40,0,248.97400000000002,0,60,1,0.25,2,90,0.0,0.0,6,45.0,20.0,9,0.701,1.0,249.77599999999998,0.15,1,2019-06-17 16:02:49.000,27,2019-06-17 16:06:57.974,0.25,-90,0,-60,-150,1
41,0,254.81,0,60,1,0.25,2,90,0.0,0.0,6,45.0,20.0,9,0.7509999999999999,1.0,255.377,0.15,1,2019-06-17 16:02:49.000,27,2019-06-17 16:07:03.810,0.25,-90,0,-60,-150,1
42,0,263.48,0,60,1,0.25,2,90,0.0,0.0,6,45.0,20.0,9,0.6509999999999999,1.0,264.322,0.15,1,2019-06-17 16:02:49.000,27,2019-06-17 16:07:12.480,0.25,-90,0,-60,-150,1
43,0,270.551,0,60,1,0.25,2,30,0.0,0.0,12,45.0,20.0,3,0.601,0.0,271.244,0.15,1,2019-06-17 16:02:49.000,27,2019-06-17 16:07:19.551,0.25,90,-180,120,30,1
44,0,275.789,0,60,1,0.25,2,90,0.0,0.0,6,45.0,20.0,9,0.8009999999999999,1.0,276.323,0.15,1,2019-06-17 16:02:49.000,27,2019-06-17 16:07:24.789,0.25,-90,0,-60,-150,1
45,0,279.603,0,60,1,0.25,2,30,0.0,0.0,12,45.0,20.0,3,0.601,0.0,279.741,0.15,1,2019-06-17 16:02:49.000,27,2019-06-17 16:07:28.603,0.25,90,-180,120,30,1
46,0,283.248,0,60,1,0.25,2,30,0.0,0.0,12,45.0,20.0,3,0.6509999999999999,0.0,283.769,0.15,1,2019-06-17 16:02:49.000,27,2019-06-17 16:07:32.248,0.25,90,-180,120,30,1
47,0,288.221,0,60,1,0.25,2,30,0.0,0.0,12,45.0,20.0,3,0.701,0.0,289.535,0.15,1,2019-06-17 16:02:49.000,27,2019-06-17 16:07:37.221,0.25,90,-180,120,30,1
48,0,295.502,0,60,1,0.25,2,90,0.0,0.0,6,45.0,20.0,9,0.7509999999999999,1.0,296.303,0.15,1,2019-06-17 16:02:49.000,27,2019-06-17 16:07:44.502,0.25,-90,0,-60,-150,1
49,0,302.997,1,60,1,0.25,2,90,0.0,0.0,6,45.0,20.0,9,0.6509999999999999,1.0,303.805,0.15,1,2019-06-17 16:02:49.000,27,2019-06-17 16:07:51.997,0.25,-90,0,-60,-150,1
50,0,305.328,0,60,1,0.25,2,90,0.0,0.0,6,45.0,20.0,9,0.701,0.0,309.089,0.0,0,2019-06-17 16:02:49.000,27,2019-06-17 16:07:54.328,0.25,90,0,-60,30,1
52,0,318.925,0,60,1,0.25,2,90,0.0,0.0,6,45.0,20.0,9,0.8009999999999999,1.0,319.39599999999996,0.15,1,2019-06-17 16:02:49.000,27,2019-06-17 16:08:07.925,0.25,-90,0,-60,-150,1
53,0,322.79900000000004,1,60,1,0.25,2,30,0.0,0.0,12,45.0,20.0,3,0.601,0.0,323.808,0.15,1,2019-06-17 16:02:49.000,27,2019-06-17 16:08:11.799,0.25,90,-180,120,30,1
54,0,325.153,0,60,1,0.25,2,30,0.0,0.0,12,45.0,20.0,3,0.7509999999999999,0.0,326.758,0.15,1,2019-06-17 16:02:49.000,27,2019-06-17 16:08:14.153,0.25,90,-180,120,30,1
55,0,327.84,0,60,1,0.25,2,90,0.0,0.0,6,45.0,20.0,9,0.6509999999999999,0.0,328.11400000000003,0.0,0,2019-06-17 16:02:49.000,27,2019-06-17 16:08:16.840,0.25,90,0,-60,30,1
57,0,340.371,0,60,1,0.25,2,30,0.0,0.0,12,45.0,20.0,3,0.8009999999999999,1.0,344.25300000000004,0.0,0,2019-06-17 16:02:49.000,27,2019-06-17 16:08:29.371,0.25,-90,-180,120,-150,1
59,0,380.82099999999997,1,60,1,0.25,2,90,0.0,0.0,6,45.0,20.0,9,0.7509999999999999,1.0,381.459,0.15,1,2019-06-17 16:02:49.000,27,2019-06-17 16:09:09.821,0.25,-90,0,-60,-150,1
60,0,383.043,0,60,1,0.25,2,30,0.0,0.0,12,45.0,20.0,3,0.601,1.0,384.48,0.0,0,2019-06-17 16:02:49.000,27,2019-06-17 16:09:12.043,0.25,-90,-180,120,-150,1
62,0,389.961,0,60,1,0.25,2,30,0.0,0.0,12,45.0,20.0,3,0.701,1.0,391.749,0.0,0,2019-06-17 16:02:49.000,27,2019-06-17 16:09:18.961,0.25,-90,-180,120,-150,1
64,0,402.259,0,60,1,0.25,2,30,0.0,0.0,12,45.0,20.0,3,0.601,0.0,403.36,0.15,1,2019-06-17 16:02:49.000,27,2019-06-17 16:09:31.259,0.25,90,-180,120,30,1
65,0,408.099,1,60,1,0.25,2,30,0.0,0.0,12,45.0,20.0,3,0.7509999999999999,0.0,409.092,0.15,1,2019-06-17 16:02:49.000,27,2019-06-17 16:09:37.099,0.25,90,-180,120,30,1
66,0,410.634,0,60,1,0.25,2,30,0.0,0.0,12,45.0,20.0,3,0.8009999999999999,0.0,412.162,0.15,1,2019-06-17 16:02:49.000,27,2019-06-17 16:09:39.634,0.25,90,-180,120,30,1
67,0,415.13199999999995,0,60,1,0.25,2,90,0.0,0.0,6,45.0,20.0,9,0.6509999999999999,1.0,415.588,0.15,1,2019-06-17 16:02:49.000,27,2019-06-17 16:09:44.132,0.25,-90,0,-60,-150,1
68,0,419.31699999999995,0,60,1,0.25,2,90,0.0,0.0,6,45.0,20.0,9,0.701,1.0,419.709,0.15,1,2019-06-17 16:02:49.000,27,2019-06-17 16:09:48.317,0.25,-90,0,-60,-150,1
69,0,426.176,1,60,1,0.25,2,30,0.0,0.0,12,45.0,20.0,3,0.6509999999999999,0.0,426.785,0.15,1,2019-06-17 16:02:49.000,27,2019-06-17 16:09:55.176,0.25,90,-180,120,30,1
70,0,428.00300000000004,0,60,1,0.25,2,90,0.0,0.0,6,45.0,20.0,9,0.601,0.0,430.20300000000003,0.0,0,2019-06-17 16:02:49.000,27,2019-06-17 16:09:57.003,0.25,90,0,-60,30,1
72,0,440.96,1,60,1,0.25,2,30,0.0,0.0,12,45.0,20.0,3,0.8009999999999999,0.0,441.30400000000003,0.15,1,2019-06-17 16:02:49.000,27,2019-06-17 16:10:09.960,0.25,90,-180,120,30,1
73,0,442.704,0,60,1,0.25,2,90,0.0,0.0,6,45.0,20.0,9,0.701,0.0,444.13699999999994,0.0,0,2019-06-17 16:02:49.000,27,2019-06-17 16:10:11.704,0.25,90,0,-60,30,1
75,0,454.545,1,60,1,0.25,2,90,0.0,0.0,6,45.0,20.0,9,0.7509999999999999,1.0,456.81300000000005,0.15,1,2019-06-17 16:02:49.000,27,2019-06-17 16:10:23.545,0.25,-90,0,-60,-150,1
76,0,458.33099999999996,0,60,1,0.25,2,30,0.0,0.0,12,45.0,20.0,3,0.7509999999999999,0.0,462.601,0.15,1,2019-06-17 16:02:49.000,27,2019-06-17 16:10:27.331,0.25,90,-180,120,30,1
77,0,467.293,0,60,1,0.25,2,30,0.0,0.0,12,45.0,20.0,3,0.601,0.0,468.38,0.15,1,2019-06-17 16:02:49.000,27,2019-06-17 16:10:36.293,0.25,90,-180,120,30,1
78,0,471.532,0,60,1,0.25,2,30,0.0,0.0,12,45.0,20.0,3,0.701,0.0,472.67400000000004,0.15,1,2019-06-17 16:02:49.000,27,2019-06-17 16:10:40.532,0.25,90,-180,120,30,1
79,0,475.409,1,60,1,0.25,2,90,0.0,0.0,6,45.0,20.0,9,0.6509999999999999,1.0,476.035,0.15,1,2019-06-17 16:02:49.000,27,2019-06-17 16:10:44.409,0.25,-90,0,-60,-150,1
80,0,477.631,0,60,1,0.25,2,90,0.0,0.0,6,45.0,20.0,9,0.8009999999999999,1.0,479.955,0.15,1,2019-06-17 16:02:49.000,27,2019-06-17 16:10:46.631,0.25,-90,0,-60,-150,1
81,0,485.58,0,60,1,0.25,2,90,0.0,0.0,6,45.0,20.0,9,0.601,0.0,486.211,0.0,0,2019-06-17 16:02:49.000,27,2019-06-17 16:10:54.580,0.25,90,0,-60,30,1
84,0,502.215,0,60,1,0.25,2,30,0.0,0.0,12,45.0,20.0,3,0.6509999999999999,1.0,504.452,0.0,0,2019-06-17 16:02:49.000,27,2019-06-17 16:11:11.215,0.25,-90,-180,120,-150,1
87,0,532.243,0,60,1,0.25,2,90,0.0,0.0,6,45.0,20.0,9,0.7509999999999999,0.0,533.4119999999999,0.0,0,2019-06-17 16:02:49.000,27,2019-06-17 16:11:41.243,0.25,90,0,-60,30,1
89,0,550.3580000000001,0,60,1,0.25,2,30,0.0,0.0,12,45.0,20.0,3,0.701,1.0,550.888,0.0,0,2019-06-17 16:02:49.000,27,2019-06-17 16:11:59.358,0.25,-90,-180,120,-150,1
91,0,580.547,0,60,1,0.25,2,90,0.0,0.0,6,45.0,20.0,9,0.8009999999999999,1.0,581.826,0.15,1,2019-06-17 16:02:49.000,27,2019-06-17 16:12:29.547,0.25,-90,0,-60,-150,1
92,0,586.178,1,60,1,0.25,2,90,0.0,0.0,6,45.0,20.0,9,0.601,1.0,586.876,0.15,1,2019-06-17 16:02:49.000,27,2019-06-17 16:12:35.178,0.25,-90,0,-60,-150,1
93,0,588.2669999999999,1,60,1,0.25,2,90,0.0,0.0,6,45.0,20.0,9,0.6509999999999999,1.0,589.55,0.15,1,2019-06-17 16:02:49.000,27,2019-06-17 16:12:37.267,0.25,-90,0,-60,-150,1
94,0,591.2090000000001,0,60,1,0.25,2,90,0.0,0.0,6,45.0,20.0,9,0.701,1.0,593.7,0.15,1,2019-06-17 16:02:49.000,27,2019-06-17 16:12:40.209,0.25,-90,0,-60,-150,1
95,0,604.951,1,60,1,0.25,2,30,0.0,0.0,12,45.0,20.0,3,0.7509999999999999,0.0,605.433,0.15,1,2019-06-17 16:02:49.000,27,2019-06-17 16:12:53.951,0.25,90,-180,120,30,1
96,0,606.887,0,60,1,0.25,2,30,0.0,0.0,12,45.0,20.0,3,0.8009999999999999,1.0,609.082,0.0,0,2019-06-17 16:02:49.000,27,2019-06-17 16:12:55.887,0.25,-90,-180,120,-150,1
1,0,49.049,0,30,1,0.25,2,30,0.0,0.0,12,45.0,20.0,3,0.6509999999999999,0.0,49.236000000000004,0.15,1,2019-06-18 09:56:06.000,19,2019-06-18 09:56:55.049,0.25,90,-180,150,60,1
2,0,54.343,0,30,1,0.25,2,90,0.0,0.0,6,45.0,20.0,9,0.701,0.0,54.907,0.0,0,2019-06-18 09:56:06.000,19,2019-06-18 09:57:00.343,0.25,90,0,-30,60,1
5,0,75.747,0,30,1,0.25,2,90,0.0,0.0,6,45.0,20.0,9,0.601,0.0,77.20100000000001,0.0,0,2019-06-18 09:56:06.000,19,2019-06-18 09:57:21.747,0.25,90,0,-30,60,1
7,0,83.26799999999999,0,30,1,0.25,2,30,0.0,0.0,12,45.0,20.0,3,0.8009999999999999,1.0,85.384,0.0,0,2019-06-18 09:56:06.000,19,2019-06-18 09:57:29.268,0.25,-90,-180,150,-120,1
9,0,91.354,1,30,1,0.25,2,90,0.0,0.0,6,45.0,20.0,9,0.7509999999999999,1.0,93.579,0.15,1,2019-06-18 09:56:06.000,19,2019-06-18 09:57:37.354,0.25,-90,0,-30,-120,1
10,0,94.91799999999999,1,30,1,0.25,2,90,0.0,0.0,6,45.0,20.0,9,0.601,1.0,97.015,0.15,1,2019-06-18 09:56:06.000,19,2019-06-18 09:57:40.918,0.25,-90,0,-30,-120,1
11,0,105.804,0,30,1,0.25,2,30,0.0,0.0,12,45.0,20.0,3,0.6509999999999999,1.0,106.544,0.0,0,2019-06-18 09:56:06.000,19,2019-06-18 09:57:51.804,0.25,-90,-180,150,-120,1
14,0,121.29299999999999,0,30,1,0.25,2,90,0.0,0.0,6,45.0,20.0,9,0.8009999999999999,0.0,122.416,0.0,0,2019-06-18 09:56:06.000,19,2019-06-18 09:58:07.293,0.25,90,0,-30,60,1
16,0,149.714,0,30,1,0.25,2,90,0.0,0.0,6,45.0,20.0,9,0.7509999999999999,1.0,150.085,0.15,1,2019-06-18 09:56:06.000,19,2019-06-18 09:58:35.714,0.25,-90,0,-30,-120,1
17,0,153.579,0,30,1,0.25,2,90,0.0,0.0,6,45.0,20.0,9,0.701,1.0,153.81799999999998,0.15,1,2019-06-18 09:56:06.000,19,2019-06-18 09:58:39.579,0.25,-90,0,-30,-120,1
18,0,158.467,0,30,1,0.25,2,90,0.0,0.0,6,45.0,20.0,9,0.601,1.0,158.761,0.15,1,2019-06-18 09:56:06.000,19,2019-06-18 09:58:44.467,0.25,-90,0,-30,-120,1
19,0,162.38299999999998,0,30,1,0.25,2,30,0.0,0.0,12,45.0,20.0,3,0.7509999999999999,1.0,162.842,0.0,0,2019-06-18 09:56:06.000,19,2019-06-18 09:58:48.383,0.25,-90,-180,150,-120,1
21,0,177.97299999999998,1,30,1,0.25,2,30,0.0,0.0,12,45.0,20.0,3,0.701,0.0,178.687,0.15,1,2019-06-18 09:56:06.000,19,2019-06-18 09:59:03.973,0.25,90,-180,150,60,1
22,0,180.949,0,30,1,0.25,2,90,0.0,0.0,6,45.0,20.0,9,0.8009999999999999,1.0,182.07,0.15,1,2019-06-18 09:56:06.000,19,2019-06-18 09:59:06.949,0.25,-90,0,-30,-120,1
23,0,190.333,0,30,1,0.25,2,30,0.0,0.0,12,45.0,20.0,3,0.6509999999999999,0.0,190.976,0.15,1,2019-06-18 09:56:06.000,19,2019-06-18 09:59:16.333,0.25,90,-180,150,60,1
24,0,194.261,0,30,1,0.25,2,30,0.0,0.0,12,45.0,20.0,3,0.6509999999999999,0.0,194.60299999999998,0.15,1,2019-06-18 09:56:06.000,19,2019-06-18 09:59:20.261,0.25,90,-180,150,60,1
25,0,197.38099999999997,0,30,1,0.25,2,90,0.0,0.0,6,45.0,20.0,9,0.8009999999999999,0.0,198.50900000000001,0.0,0,2019-06-18 09:56:06.000,19,2019-06-18 09:59:23.381,0.25,90,0,-30,60,1
28,0,215.358,0,30,1,0.25,2,30,0.0,0.0,12,45.0,20.0,3,0.601,1.0,216.952,0.0,0,2019-06-18 09:56:06.000,19,2019-06-18 09:59:41.358,0.25,-90,-180,150,-120,1
32,0,240.15900000000002,1,30,1,0.25,2,30,0.0,0.0,12,45.0,20.0,3,0.701,0.0,241.81599999999997,0.15,1,2019-06-18 09:56:06.000,19,2019-06-18 10:00:06.159,0.25,90,-180,150,60,1
33,0,243.293,0,30,1,0.25,2,30,0.0,0.0,12,45.0,20.0,3,0.7509999999999999,1.0,245.142,0.0,0,2019-06-18 09:56:06.000,19,2019-06-18 10:00:09.293,0.25,-90,-180,150,-120,1
35,0,256.35200000000003,1,30,1,0.25,2,30,0.0,0.0,12,45.0,20.0,3,0.8009999999999999,0.0,257.395,0.15,1,2019-06-18 09:56:06.000,19,2019-06-18 10:00:22.352,0.25,90,-180,150,60,1
36,0,258.86,0,30,1,0.25,2,90,0.0,0.0,6,45.0,20.0,9,0.6509999999999999,0.0,260.767,0.0,0,2019-06-18 09:56:06.000,19,2019-06-18 10:00:24.860,0.25,90,0,-30,60,1
38,0,269.933,0,30,1,0.25,2,30,0.0,0.0,12,45.0,20.0,3,0.601,1.0,270.19599999999997,0.0,0,2019-06-18 09:56:06.000,19,2019-06-18 10:00:35.933,0.25,-90,-180,150,-120,1
41,0,294.837,1,30,1,0.25,2,30,0.0,0.0,12,45.0,20.0,3,0.7509999999999999,0.0,295.496,0.15,1,2019-06-18 09:56:06.000,19,2019-06-18 10:01:00.837,0.25,90,-180,150,60,1
42,0,296.899,0,30,1,0.25,2,90,0.0,0.0,6,45.0,20.0,9,0.701,0.0,298.851,0.0,0,2019-06-18 09:56:06.000,19,2019-06-18 10:01:02.899,0.25,90,0,-30,60,1
44,0,312.638,0,30,1,0.25,2,30,0.0,0.0,12,45.0,20.0,3,0.701,1.0,313.253,0.0,0,2019-06-18 09:56:06.000,19,2019-06-18 10:01:18.638,0.25,-90,-180,150,-120,1
46,0,338.69800000000004,0,30,1,0.25,2,30,0.0,0.0,12,45.0,20.0,3,0.8009999999999999,0.0,339.01800000000003,0.15,1,2019-06-18 09:56:06.000,19,2019-06-18 10:01:44.698,0.25,90,-180,150,60,1
47,0,377.042,0,30,1,0.25,2,30,0.0,0.0,12,45.0,20.0,3,0.601,1.0,377.66900000000004,0.0,0,2019-06-18 09:56:06.000,19,2019-06-18 10:02:23.042,0.25,-90,-180,150,-120,1
49,0,389.603,1,30,1,0.25,2,30,0.0,0.0,12,45.0,20.0,3,0.7509999999999999,0.0,390.54900000000004,0.15,1,2019-06-18 09:56:06.000,19,2019-06-18 10:02:35.603,0.25,90,-180,150,60,1
50,0,391.92,0,30,1,0.25,2,90,0.0,0.0,6,45.0,20.0,9,0.6509999999999999,0.0,393.54400000000004,0.0,0,2019-06-18 09:56:06.000,19,2019-06-18 10:02:37.920,0.25,90,0,-30,60,1
1,0,36.923,0,90,1,0.25,2,30,0.0,0.0,12,45.0,20.0,3,0.6509999999999999,0.0,37.218,0.15,1,2019-06-18 15:59:17.000,37,2019-06-18 15:59:53.923,0.25,90,-180,90,0,1
2,0,43.216,1,90,1,0.25,2,90,0.0,0.0,6,45.0,20.0,9,0.8009999999999999,1.0,43.961999999999996,0.15,1,2019-06-18 15:59:17.000,37,2019-06-18 16:00:00.216,0.25,-90,0,-90,-180,1
3,0,45.201,1,90,1,0.25,2,30,0.0,0.0,12,45.0,20.0,3,0.601,0.0,47.911,0.15,1,2019-06-18 15:59:17.000,37,2019-06-18 16:00:02.201,0.25,90,-180,90,0,1
4,0,49.201,0,90,1,0.25,2,90,0.0,0.0,6,45.0,20.0,9,0.701,0.0,51.943000000000005,0.0,0,2019-06-18 15:59:17.000,37,2019-06-18 16:00:06.201,0.25,90,0,-90,0,1
7,0,75.056,1,90,1,0.25,2,90,0.0,0.0,6,45.0,20.0,9,0.7509999999999999,1.0,75.529,0.15,1,2019-06-18 15:59:17.000,37,2019-06-18 16:00:32.056,0.25,-90,0,-90,-180,1
8,0,77.008,0,90,1,0.25,2,30,0.0,0.0,12,45.0,20.0,3,0.601,1.0,78.877,0.0,0,2019-06-18 15:59:17.000,37,2019-06-18 16:00:34.008,0.25,-90,-180,90,-180,1
12,0,108.556,1,90,1,0.25,2,90,0.0,0.0,6,45.0,20.0,9,0.6509999999999999,1.0,108.927,0.15,1,2019-06-18 15:59:17.000,37,2019-06-18 16:01:05.556,0.25,-90,0,-90,-180,1
13,0,123.28399999999999,0,90,1,0.25,2,90,0.0,0.0,6,45.0,20.0,9,0.7509999999999999,1.0,124.105,0.15,1,2019-06-18 15:59:17.000,37,2019-06-18 16:01:20.284,0.25,-90,0,-90,-180,1
14,0,128.341,1,90,1,0.25,2,90,0.0,0.0,6,45.0,20.0,9,0.8009999999999999,1.0,128.674,0.15,1,2019-06-18 15:59:17.000,37,2019-06-18 16:01:25.341,0.25,-90,0,-90,-180,1
15,0,130.341,0,90,1,0.25,2,90,0.0,0.0,6,45.0,20.0,9,0.701,1.0,132.02,0.15,1,2019-06-18 15:59:17.000,37,2019-06-18 16:01:27.341,0.25,-90,0,-90,-180,1
16,0,138.24200000000002,0,90,1,0.25,2,90,0.0,0.0,6,45.0,20.0,9,0.8009999999999999,1.0,138.751,0.15,1,2019-06-18 15:59:17.000,37,2019-06-18 16:01:35.242,0.25,-90,0,-90,-180,1
17,0,143.251,0,90,1,0.25,2,30,0.0,0.0,12,45.0,20.0,3,0.7509999999999999,0.0,143.496,0.15,1,2019-06-18 15:59:17.000,37,2019-06-18 16:01:40.251,0.25,90,-180,90,0,1
18,0,147.305,0,90,1,0.25,2,90,0.0,0.0,6,45.0,20.0,9,0.601,1.0,148.016,0.15,1,2019-06-18 15:59:17.000,37,2019-06-18 16:01:44.305,0.25,-90,0,-90,-180,1
19,0,155.105,0,90,1,0.25,2,30,0.0,0.0,12,45.0,20.0,3,0.701,0.0,155.763,0.15,1,2019-06-18 15:59:17.000,37,2019-06-18 16:01:52.105,0.25,90,-180,90,0,1
20,0,159.122,0,90,1,0.25,2,30,0.0,0.0,12,45.0,20.0,3,0.6509999999999999,0.0,160.02200000000002,0.15,1,2019-06-18 15:59:17.000,37,2019-06-18 16:01:56.122,0.25,90,-180,90,0,1
21,0,163.378,0,90,1,0.25,2,90,0.0,0.0,6,45.0,20.0,9,0.8009999999999999,1.0,163.862,0.15,1,2019-06-18 15:59:17.000,37,2019-06-18 16:02:00.378,0.25,-90,0,-90,-180,1
22,0,168.28400000000002,1,90,1,0.25,2,30,0.0,0.0,12,45.0,20.0,3,0.701,0.0,168.65900000000002,0.15,1,2019-06-18 15:59:17.000,37,2019-06-18 16:02:05.284,0.25,90,-180,90,0,1
23,0,170.033,0,90,1,0.25,2,30,0.0,0.0,12,45.0,20.0,3,0.601,0.0,172.236,0.15,1,2019-06-18 15:59:17.000,37,2019-06-18 16:02:07.033,0.25,90,-180,90,0,1
24,0,175.238,0,90,1,0.25,2,30,0.0,0.0,12,45.0,20.0,3,0.6509999999999999,0.0,175.93,0.15,1,2019-06-18 15:59:17.000,37,2019-06-18 16:02:12.238,0.25,90,-180,90,0,1
25,0,179.21900000000002,1,90,1,0.25,2,30,0.0,0.0,12,45.0,20.0,3,0.7509999999999999,0.0,180.467,0.15,1,2019-06-18 15:59:17.000,37,2019-06-18 16:02:16.219,0.25,90,-180,90,0,1
26,0,181.949,0,90,1,0.25,2,30,0.0,0.0,12,45.0,20.0,3,0.7509999999999999,1.0,184.801,0.0,0,2019-06-18 15:59:17.000,37,2019-06-18 16:02:18.949,0.25,-90,-180,90,-180,1
28,0,194.62599999999998,0,90,1,0.25,2,90,0.0,0.0,6,45.0,20.0,9,0.6509999999999999,1.0,196.891,0.15,1,2019-06-18 15:59:17.000,37,2019-06-18 16:02:31.626,0.25,-90,0,-90,-180,1
29,0,201.22099999999998,1,90,1,0.25,2,90,0.0,0.0,6,45.0,20.0,9,0.601,1.0,202.13400000000001,0.15,1,2019-06-18 15:59:17.000,37,2019-06-18 16:02:38.221,0.25,-90,0,-90,-180,1
30,0,203.792,0,90,1,0.25,2,90,0.0,0.0,6,45.0,20.0,9,0.701,1.0,205.13400000000001,0.15,1,2019-06-18 15:59:17.000,37,2019-06-18 16:02:40.792,0.25,-90,0,-90,-180,1
31,0,210.842,1,90,1,0.25,2,90,0.0,0.0,6,45.0,20.0,9,0.8009999999999999,1.0,211.15099999999998,0.15,1,2019-06-18 15:59:17.000,37,2019-06-18 16:02:47.842,0.25,-90,0,-90,-180,1
32,0,212.97299999999998,0,90,1,0.25,2,30,0.0,0.0,12,45.0,20.0,3,0.701,1.0,214.91400000000002,0.0,0,2019-06-18 15:59:17.000,37,2019-06-18 16:02:49.973,0.25,-90,-180,90,-180,1
34,0,224.072,0,90,1,0.25,2,30,0.0,0.0,12,45.0,20.0,3,0.7509999999999999,0.0,224.613,0.15,1,2019-06-18 15:59:17.000,37,2019-06-18 16:03:01.072,0.25,90,-180,90,0,1
35,0,227.968,0,90,1,0.25,2,30,0.0,0.0,12,45.0,20.0,3,0.601,0.0,228.957,0.15,1,2019-06-18 15:59:17.000,37,2019-06-18 16:03:04.968,0.25,90,-180,90,0,1
36,0,232.912,0,90,1,0.25,2,90,0.0,0.0,6,45.0,20.0,9,0.8009999999999999,1.0,233.453,0.15,1,2019-06-18 15:59:17.000,37,2019-06-18 16:03:09.912,0.25,-90,0,-90,-180,1
37,0,237.085,0,90,1,0.25,2,30,0.0,0.0,12,45.0,20.0,3,0.6509999999999999,0.0,237.727,0.15,1,2019-06-18 15:59:17.000,37,2019-06-18 16:03:14.085,0.25,90,-180,90,0,1
38,0,240.215,1,90,1,0.25,2,90,0.0,0.0,6,45.0,20.0,9,0.6509999999999999,1.0,240.495,0.15,1,2019-06-18 15:59:17.000,37,2019-06-18 16:03:17.215,0.25,-90,0,-90,-180,1
39,0,242.11700000000002,0,90,1,0.25,2,30,0.0,0.0,12,45.0,20.0,3,0.601,1.0,244.641,0.0,0,2019-06-18 15:59:17.000,37,2019-06-18 16:03:19.117,0.25,-90,-180,90,-180,1
41,0,252.3,0,90,1,0.25,2,30,0.0,0.0,12,45.0,20.0,3,0.701,1.0,254.063,0.0,0,2019-06-18 15:59:17.000,37,2019-06-18 16:03:29.300,0.25,-90,-180,90,-180,1
44,0,267.883,0,90,1,0.25,2,30,0.0,0.0,12,45.0,20.0,3,0.7509999999999999,0.0,268.809,0.15,1,2019-06-18 15:59:17.000,37,2019-06-18 16:03:44.883,0.25,90,-180,90,0,1
45,0,272.14599999999996,1,90,1,0.25,2,30,0.0,0.0,12,45.0,20.0,3,0.8009999999999999,0.0,272.98,0.15,1,2019-06-18 15:59:17.000,37,2019-06-18 16:03:49.146,0.25,90,-180,90,0,1
46,0,274.75,0,90,1,0.25,2,90,0.0,0.0,6,45.0,20.0,9,0.701,0.0,277.866,0.0,0,2019-06-18 15:59:17.000,37,2019-06-18 16:03:51.750,0.25,90,0,-90,0,1
48,0,302.409,0,90,1,0.25,2,90,0.0,0.0,6,45.0,20.0,9,0.8009999999999999,0.0,303.92400000000004,0.0,0,2019-06-18 15:59:17.000,37,2019-06-18 16:04:19.409,0.25,90,0,-90,0,1
50,0,333.327,0,90,1,0.25,2,90,0.0,0.0,6,45.0,20.0,9,0.7509999999999999,1.0,333.66,0.15,1,2019-06-18 15:59:17.000,37,2019-06-18 16:04:50.327,0.25,-90,0,-90,-180,1
51,0,339.365,1,90,1,0.25,2,30,0.0,0.0,12,45.0,20.0,3,0.601,0.0,339.664,0.15,1,2019-06-18 15:59:17.000,37,2019-06-18 16:04:56.365,0.25,90,-180,90,0,1
52,0,341.005,0,90,1,0.25,2,90,0.0,0.0,6,45.0,20.0,9,0.6509999999999999,0.0,343.24699999999996,0.0,0,2019-06-18 15:59:17.000,37,2019-06-18 16:04:58.005,0.25,90,0,-90,0,1
54,0,355.67,1,90,1,0.25,2,30,0.0,0.0,12,45.0,20.0,3,0.8009999999999999,0.0,356.06199999999995,0.15,1,2019-06-18 15:59:17.000,37,2019-06-18 16:05:12.670,0.25,90,-180,90,0,1
55,0,357.681,1,90,1,0.25,2,90,0.0,0.0,6,45.0,20.0,9,0.7509999999999999,1.0,359.50800000000004,0.15,1,2019-06-18 15:59:17.000,37,2019-06-18 16:05:14.681,0.25,-90,0,-90,-180,1
56,0,361.029,1,90,1,0.25,2,30,0.0,0.0,12,45.0,20.0,3,0.601,0.0,364.55199999999996,0.15,1,2019-06-18 15:59:17.000,37,2019-06-18 16:05:18.029,0.25,90,-180,90,0,1
57,0,365.94800000000004,0,90,1,0.25,2,90,0.0,0.0,6,45.0,20.0,9,0.701,1.0,369.421,0.15,1,2019-06-18 15:59:17.000,37,2019-06-18 16:05:22.948,0.25,-90,0,-90,-180,1
58,0,373.67800000000005,0,90,1,0.25,2,30,0.0,0.0,12,45.0,20.0,3,0.6509999999999999,0.0,373.903,0.15,1,2019-06-18 15:59:17.000,37,2019-06-18 16:05:30.678,0.25,90,-180,90,0,1
59,0,377.37800000000004,0,90,1,0.25,2,90,0.0,0.0,6,45.0,20.0,9,0.8009999999999999,0.0,378.227,0.0,0,2019-06-18 15:59:17.000,37,2019-06-18 16:05:34.378,0.25,90,0,-90,0,1
61,0,388.006,0,90,1,0.25,2,90,0.0,0.0,6,45.0,20.0,9,0.701,1.0,388.465,0.15,1,2019-06-18 15:59:17.000,37,2019-06-18 16:05:45.006,0.25,-90,0,-90,-180,1
62,0,392.809,0,90,1,0.25,2,30,0.0,0.0,12,45.0,20.0,3,0.601,0.0,393.574,0.15,1,2019-06-18 15:59:17.000,37,2019-06-18 16:05:49.809,0.25,90,-180,90,0,1
63,0,397.80400000000003,1,90,1,0.25,2,30,0.0,0.0,12,45.0,20.0,3,0.6509999999999999,0.0,398.778,0.15,1,2019-06-18 15:59:17.000,37,2019-06-18 16:05:54.804,0.25,90,-180,90,0,1
64,0,400.35699999999997,0,90,1,0.25,2,90,0.0,0.0,6,45.0,20.0,9,0.7509999999999999,1.0,402.588,0.15,1,2019-06-18 15:59:17.000,37,2019-06-18 16:05:57.357,0.25,-90,0,-90,-180,1
65,0,406.76199999999994,0,90,1,0.25,2,90,0.0,0.0,6,45.0,20.0,9,0.601,1.0,407.51599999999996,0.15,1,2019-06-18 15:59:17.000,37,2019-06-18 16:06:03.762,0.25,-90,0,-90,-180,1
66,0,411.55800000000005,0,90,1,0.25,2,30,0.0,0.0,12,45.0,20.0,3,0.6509999999999999,0.0,412.23400000000004,0.15,1,2019-06-18 15:59:17.000,37,2019-06-18 16:06:08.558,0.25,90,-180,90,0,1
67,0,415.879,0,90,1,0.25,2,90,0.0,0.0,6,45.0,20.0,9,0.7509999999999999,0.0,416.55400000000003,0.0,0,2019-06-18 15:59:17.000,37,2019-06-18 16:06:12.879,0.25,90,0,-90,0,1
71,0,445.20300000000003,0,90,1,0.25,2,30,0.0,0.0,12,45.0,20.0,3,0.8009999999999999,1.0,446.61400000000003,0.0,0,2019-06-18 15:59:17.000,37,2019-06-18 16:06:42.203,0.25,-90,-180,90,-180,1
73,0,465.523,1,90,1,0.25,2,90,0.0,0.0,6,45.0,20.0,9,0.701,1.0,465.92900000000003,0.15,1,2019-06-18 15:59:17.000,37,2019-06-18 16:07:02.523,0.25,-90,0,-90,-180,1
74,0,467.49699999999996,0,90,1,0.25,2,30,0.0,0.0,12,45.0,20.0,3,0.701,1.0,469.281,0.0,0,2019-06-18 15:59:17.000,37,2019-06-18 16:07:04.497,0.25,-90,-180,90,-180,1
76,0,479.565,0,90,1,0.25,2,30,0.0,0.0,12,45.0,20.0,3,0.8009999999999999,1.0,480.13300000000004,0.0,0,2019-06-18 15:59:17.000,37,2019-06-18 16:07:16.565,0.25,-90,-180,90,-180,1
78,0,513.097,1,90,1,0.25,2,90,0.0,0.0,6,45.0,20.0,9,0.601,1.0,514.428,0.15,1,2019-06-18 15:59:17.000,37,2019-06-18 16:07:50.097,0.25,-90,0,-90,-180,1
79,0,516.211,0,90,1,0.25,2,90,0.0,0.0,6,45.0,20.0,9,0.7509999999999999,1.0,517.941,0.15,1,2019-06-18 15:59:17.000,37,2019-06-18 16:07:53.211,0.25,-90,0,-90,-180,1
80,0,521.591,1,90,1,0.25,2,30,0.0,0.0,12,45.0,20.0,3,0.6509999999999999,0.0,521.932,0.15,1,2019-06-18 15:59:17.000,37,2019-06-18 16:07:58.591,0.25,90,-180,90,0,1
81,0,523.653,0,90,1,0.25,2,90,0.0,0.0,6,45.0,20.0,9,0.701,1.0,525.328,0.15,1,2019-06-18 15:59:17.000,37,2019-06-18 16:08:00.653,0.25,-90,0,-90,-180,1
82,0,529.345,0,90,1,0.25,2,90,0.0,0.0,6,45.0,20.0,9,0.601,1.0,529.899,0.15,1,2019-06-18 15:59:17.000,37,2019-06-18 16:08:06.345,0.25,-90,0,-90,-180,1
83,0,532.994,1,90,1,0.25,2,30,0.0,0.0,12,45.0,20.0,3,0.6509999999999999,0.0,533.2669999999999,0.15,1,2019-06-18 15:59:17.000,37,2019-06-18 16:08:09.994,0.25,90,-180,90,0,1
84,0,534.675,0,90,1,0.25,2,90,0.0,0.0,6,45.0,20.0,9,0.7509999999999999,1.0,536.1619999999999,0.15,1,2019-06-18 15:59:17.000,37,2019-06-18 16:08:11.675,0.25,-90,0,-90,-180,1
85,0,541.471,0,90,1,0.25,2,90,0.0,0.0,6,45.0,20.0,9,0.8009999999999999,1.0,542.007,0.15,1,2019-06-18 15:59:17.000,37,2019-06-18 16:08:18.471,0.25,-90,0,-90,-180,1
86,0,549.188,0,90,1,0.25,2,30,0.0,0.0,12,45.0,20.0,3,0.701,0.0,551.909,0.15,1,2019-06-18 15:59:17.000,37,2019-06-18 16:08:26.188,0.25,90,-180,90,0,1
87,0,558.701,1,90,1,0.25,2,90,0.0,0.0,6,45.0,20.0,9,0.601,1.0,559.367,0.15,1,2019-06-18 15:59:17.000,37,2019-06-18 16:08:35.701,0.25,-90,0,-90,-180,1
88,0,562.111,0,90,1,0.25,2,30,0.0,0.0,12,45.0,20.0,3,0.8009999999999999,1.0,563.562,0.0,0,2019-06-18 15:59:17.000,37,2019-06-18 16:08:39.111,0.25,-90,-180,90,-180,1
90,0,580.511,0,90,1,0.25,2,30,0.0,0.0,12,45.0,20.0,3,0.6509999999999999,1.0,582.645,0.0,0,2019-06-18 15:59:17.000,37,2019-06-18 16:08:57.511,0.25,-90,-180,90,-180,1
92,0,591.164,0,90,1,0.25,2,30,0.0,0.0,12,45.0,20.0,3,0.7509999999999999,1.0,593.155,0.0,0,2019-06-18 15:59:17.000,37,2019-06-18 16:09:08.164,0.25,-90,-180,90,-180,1
94,0,604.3380000000001,0,90,1,0.25,2,30,0.0,0.0,12,45.0,20.0,3,0.6509999999999999,0.0,604.82,0.15,1,2019-06-18 15:59:17.000,37,2019-06-18 16:09:21.338,0.25,90,-180,90,0,1
95,0,609.193,1,90,1,0.25,2,30,0.0,0.0,12,45.0,20.0,3,0.8009999999999999,0.0,610.499,0.15,1,2019-06-18 15:59:17.000,37,2019-06-18 16:09:26.193,0.25,90,-180,90,0,1
96,0,612.019,0,90,1,0.25,2,90,0.0,0.0,6,45.0,20.0,9,0.7509999999999999,0.0,614.636,0.0,0,2019-06-18 15:59:17.000,37,2019-06-18 16:09:29.019,0.25,90,0,-90,0,1
98,0,633.487,0,90,1,0.25,2,30,0.0,0.0,12,45.0,20.0,3,0.601,1.0,634.245,0.0,0,2019-06-18 15:59:17.000,37,2019-06-18 16:09:50.487,0.25,-90,-180,90,-180,1
100,0,643.2769999999999,0,90,1,0.25,2,30,0.0,0.0,12,45.0,20.0,3,0.701,0.0,643.674,0.15,1,2019-06-18 15:59:17.000,37,2019-06-18 16:10:00.277,0.25,90,-180,90,0,1
101,0,651.9119999999999,0,90,1,0.25,2,90,0.0,0.0,6,45.0,20.0,9,0.701,1.0,652.106,0.15,1,2019-06-18 15:59:17.000,37,2019-06-18 16:10:08.912,0.25,-90,0,-90,-180,1
102,0,656.043,0,90,1,0.25,2,30,0.0,0.0,12,45.0,20.0,3,0.601,0.0,656.6619999999999,0.15,1,2019-06-18 15:59:17.000,37,2019-06-18 16:10:13.043,0.25,90,-180,90,0,1
103,0,661.341,1,90,1,0.25,2,90,0.0,0.0,6,45.0,20.0,9,0.7509999999999999,1.0,662.133,0.15,1,2019-06-18 15:59:17.000,37,2019-06-18 16:10:18.341,0.25,-90,0,-90,-180,1
104,0,663.7280000000001,0,90,1,0.25,2,90,0.0,0.0,6,45.0,20.0,9,0.6509999999999999,1.0,665.296,0.15,1,2019-06-18 15:59:17.000,37,2019-06-18 16:10:20.728,0.25,-90,0,-90,-180,1
105,0,669.98,0,90,1,0.25,2,90,0.0,0.0,6,45.0,20.0,9,0.8009999999999999,1.0,670.558,0.15,1,2019-06-18 15:59:17.000,37,2019-06-18 16:10:26.980,0.25,-90,0,-90,-180,1
106,0,674.395,0,90,1,0.25,2,90,0.0,0.0,6,45.0,20.0,9,0.601,1.0,675.029,0.15,1,2019-06-18 15:59:17.000,37,2019-06-18 16:10:31.395,0.25,-90,0,-90,-180,1
107,0,679.355,1,90,1,0.25,2,30,0.0,0.0,12,45.0,20.0,3,0.7509999999999999,0.0,679.6510000000001,0.15,1,2019-06-18 15:59:17.000,37,2019-06-18 16:10:36.355,0.25,90,-180,90,0,1
108,0,681.405,0,90,1,0.25,2,90,0.0,0.0,6,45.0,20.0,9,0.701,1.0,682.908,0.15,1,2019-06-18 15:59:17.000,37,2019-06-18 16:10:38.405,0.25,-90,0,-90,-180,1
109,0,686.955,0,90,1,0.25,2,30,0.0,0.0,12,45.0,20.0,3,0.6509999999999999,0.0,687.171,0.15,1,2019-06-18 15:59:17.000,37,2019-06-18 16:10:43.955,0.25,90,-180,90,0,1
110,0,691.097,0,90,1,0.25,2,90,0.0,0.0,6,45.0,20.0,9,0.8009999999999999,0.0,691.553,0.0,0,2019-06-18 15:59:17.000,37,2019-06-18 16:10:48.097,0.25,90,0,-90,0,1
1,0,35.249,0,120,1,0.25,2,90,0.0,0.0,6,45.0,20.0,9,0.7509999999999999,0.0,35.407,0.0,0,2019-06-19 10:30:14.000,36,2019-06-19 10:30:49.249,0.25,90,0,-120,-30,1
3,0,52.852,0,120,1,0.25,2,30,0.0,0.0,12,45.0,20.0,3,0.601,1.0,53.34,0.0,0,2019-06-19 10:30:14.000,36,2019-06-19 10:31:06.852,0.25,-90,-180,60,150,1
5,0,67.562,0,120,1,0.25,2,30,0.0,0.0,12,45.0,20.0,3,0.6509999999999999,1.0,71.675,0.0,0,2019-06-19 10:30:14.000,36,2019-06-19 10:31:21.562,0.25,-90,-180,60,150,1
8,0,92.27799999999999,1,120,1,0.25,2,90,0.0,0.0,6,45.0,20.0,9,0.701,1.0,92.681,0.15,1,2019-06-19 10:30:14.000,36,2019-06-19 10:31:46.278,0.25,-90,0,-120,150,1
9,0,94.488,0,120,1,0.25,2,30,0.0,0.0,12,45.0,20.0,3,0.8009999999999999,1.0,96.573,0.0,0,2019-06-19 10:30:14.000,36,2019-06-19 10:31:48.488,0.25,-90,-180,60,150,1
11,0,107.165,0,120,1,0.25,2,30,0.0,0.0,12,45.0,20.0,3,0.601,0.0,108.02600000000001,0.15,1,2019-06-19 10:30:14.000,36,2019-06-19 10:32:01.165,0.25,90,-180,60,-30,1
12,0,111.72399999999999,1,120,1,0.25,2,30,0.0,0.0,12,45.0,20.0,3,0.8009999999999999,0.0,112.54,0.15,1,2019-06-19 10:30:14.000,36,2019-06-19 10:32:05.724,0.25,90,-180,60,-30,1
13,0,114.03399999999999,0,120,1,0.25,2,30,0.0,0.0,12,45.0,20.0,3,0.701,1.0,116.48200000000001,0.0,0,2019-06-19 10:30:14.000,36,2019-06-19 10:32:08.034,0.25,-90,-180,60,150,1
15,0,127.046,0,120,1,0.25,2,90,0.0,0.0,6,45.0,20.0,9,0.7509999999999999,1.0,127.52600000000001,0.15,1,2019-06-19 10:30:14.000,36,2019-06-19 10:32:21.046,0.25,-90,0,-120,150,1
16,0,130.822,0,120,1,0.25,2,30,0.0,0.0,12,45.0,20.0,3,0.6509999999999999,0.0,131.393,0.15,1,2019-06-19 10:30:14.000,36,2019-06-19 10:32:24.822,0.25,90,-180,60,-30,1
17,0,134.945,0,120,1,0.25,2,30,0.0,0.0,12,45.0,20.0,3,0.8009999999999999,0.0,135.507,0.15,1,2019-06-19 10:30:14.000,36,2019-06-19 10:32:28.945,0.25,90,-180,60,-30,1
18,0,138.577,1,120,1,0.25,2,90,0.0,0.0,6,45.0,20.0,9,0.7509999999999999,1.0,139.08700000000002,0.15,1,2019-06-19 10:30:14.000,36,2019-06-19 10:32:32.577,0.25,-90,0,-120,150,1
19,0,140.701,1,120,1,0.25,2,90,0.0,0.0,6,45.0,20.0,9,0.6509999999999999,1.0,141.97,0.15,1,2019-06-19 10:30:14.000,36,2019-06-19 10:32:34.701,0.25,-90,0,-120,150,1
20,0,143.319,0,120,1,0.25,2,30,0.0,0.0,12,45.0,20.0,3,0.601,1.0,145.42,0.0,0,2019-06-19 10:30:14.000,36,2019-06-19 10:32:37.319,0.25,-90,-180,60,150,1
23,0,163.053,1,120,1,0.25,2,90,0.0,0.0,6,45.0,20.0,9,0.701,1.0,163.493,0.15,1,2019-06-19 10:30:14.000,36,2019-06-19 10:32:57.053,0.25,-90,0,-120,150,1
24,0,167.44799999999998,1,120,1,0.25,2,90,0.0,0.0,6,45.0,20.0,9,0.7509999999999999,1.0,168.52599999999998,0.15,1,2019-06-19 10:30:14.000,36,2019-06-19 10:33:01.448,0.25,-90,0,-120,150,1
25,0,170.114,0,120,1,0.25,2,90,0.0,0.0,6,45.0,20.0,9,0.8009999999999999,1.0,172.455,0.15,1,2019-06-19 10:30:14.000,36,2019-06-19 10:33:04.114,0.25,-90,0,-120,150,1
26,0,176.03400000000002,0,120,1,0.25,2,90,0.0,0.0,6,45.0,20.0,9,0.601,1.0,176.43400000000003,0.15,1,2019-06-19 10:30:14.000,36,2019-06-19 10:33:10.034,0.25,-90,0,-120,150,1
27,0,180.12099999999998,1,120,1,0.25,2,30,0.0,0.0,12,45.0,20.0,3,0.6509999999999999,0.0,180.63299999999998,0.15,1,2019-06-19 10:30:14.000,36,2019-06-19 10:33:14.121,0.25,90,-180,60,-30,1
28,0,182.263,0,120,1,0.25,2,90,0.0,0.0,6,45.0,20.0,9,0.701,1.0,183.87599999999998,0.15,1,2019-06-19 10:30:14.000,36,2019-06-19 10:33:16.263,0.25,-90,0,-120,150,1
29,0,187.787,0,120,1,0.25,2,30,0.0,0.0,12,45.0,20.0,3,0.701,0.0,188.222,0.15,1,2019-06-19 10:30:14.000,36,2019-06-19 10:33:21.787,0.25,90,-180,60,-30,1
30,0,191.09900000000002,0,120,1,0.25,2,90,0.0,0.0,6,45.0,20.0,9,0.6509999999999999,1.0,191.602,0.15,1,2019-06-19 10:30:14.000,36,2019-06-19 10:33:25.099,0.25,-90,0,-120,150,1
31,0,195.328,0,120,1,0.25,2,30,0.0,0.0,12,45.0,20.0,3,0.8009999999999999,0.0,195.833,0.15,1,2019-06-19 10:30:14.000,36,2019-06-19 10:33:29.328,0.25,90,-180,60,-30,1
32,0,199.13400000000001,0,120,1,0.25,2,90,0.0,0.0,6,45.0,20.0,9,0.7509999999999999,0.0,200.03099999999998,0.0,0,2019-06-19 10:30:14.000,36,2019-06-19 10:33:33.134,0.25,90,0,-120,-30,1
35,0,230.27,0,120,1,0.25,2,90,0.0,0.0,6,45.0,20.0,9,0.601,0.0,230.80599999999998,0.0,0,2019-06-19 10:30:14.000,36,2019-06-19 10:34:04.270,0.25,90,0,-120,-30,1
37,0,239.285,0,120,1,0.25,2,90,0.0,0.0,6,45.0,20.0,9,0.601,1.0,239.655,0.15,1,2019-06-19 10:30:14.000,36,2019-06-19 10:34:13.285,0.25,-90,0,-120,150,1
38,0,246.17,1,120,1,0.25,2,90,0.0,0.0,6,45.0,20.0,9,0.8009999999999999,1.0,246.729,0.15,1,2019-06-19 10:30:14.000,36,2019-06-19 10:34:20.170,0.25,-90,0,-120,150,1
39,0,248.299,0,120,1,0.25,2,30,0.0,0.0,12,45.0,20.0,3,0.6509999999999999,1.0,249.77,0.0,0,2019-06-19 10:30:14.000,36,2019-06-19 10:34:22.299,0.25,-90,-180,60,150,1
41,0,259.658,1,120,1,0.25,2,90,0.0,0.0,6,45.0,20.0,9,0.7509999999999999,1.0,260.861,0.15,1,2019-06-19 10:30:14.000,36,2019-06-19 10:34:33.658,0.25,-90,0,-120,150,1
42,0,262.119,0,120,1,0.25,2,90,0.0,0.0,6,45.0,20.0,9,0.701,1.0,263.765,0.15,1,2019-06-19 10:30:14.000,36,2019-06-19 10:34:36.119,0.25,-90,0,-120,150,1
43,0,266.981,0,120,1,0.25,2,90,0.0,0.0,6,45.0,20.0,9,0.701,1.0,267.41200000000003,0.15,1,2019-06-19 10:30:14.000,36,2019-06-19 10:34:40.981,0.25,-90,0,-120,150,1
44,0,270.664,0,120,1,0.25,2,30,0.0,0.0,12,45.0,20.0,3,0.7509999999999999,0.0,271.047,0.15,1,2019-06-19 10:30:14.000,36,2019-06-19 10:34:44.664,0.25,90,-180,60,-30,1
45,0,274.192,0,120,1,0.25,2,90,0.0,0.0,6,45.0,20.0,9,0.601,0.0,275.119,0.0,0,2019-06-19 10:30:14.000,36,2019-06-19 10:34:48.192,0.25,90,0,-120,-30,1
47,0,284.673,1,120,1,0.25,2,30,0.0,0.0,12,45.0,20.0,3,0.6509999999999999,0.0,285.661,0.15,1,2019-06-19 10:30:14.000,36,2019-06-19 10:34:58.673,0.25,90,-180,60,-30,1
48,0,287.504,0,120,1,0.25,2,30,0.0,0.0,12,45.0,20.0,3,0.8009999999999999,1.0,289.466,0.0,0,2019-06-19 10:30:14.000,36,2019-06-19 10:35:01.504,0.25,-90,-180,60,150,1
50,0,332.968,1,120,1,0.25,2,30,0.0,0.0,12,45.0,20.0,3,0.8009999999999999,0.0,333.51599999999996,0.15,1,2019-06-19 10:30:14.000,36,2019-06-19 10:35:46.968,0.25,90,-180,60,-30,1
51,0,334.93300000000005,0,120,1,0.25,2,30,0.0,0.0,12,45.0,20.0,3,0.6509999999999999,1.0,336.751,0.0,0,2019-06-19 10:30:14.000,36,2019-06-19 10:35:48.933,0.25,-90,-180,60,150,1
53,0,356.866,0,120,1,0.25,2,90,0.0,0.0,6,45.0,20.0,9,0.601,1.0,357.395,0.15,1,2019-06-19 10:30:14.000,36,2019-06-19 10:36:10.866,0.25,-90,0,-120,150,1
54,0,365.38699999999994,0,120,1,0.25,2,30,0.0,0.0,12,45.0,20.0,3,0.7509999999999999,1.0,365.849,0.0,0,2019-06-19 10:30:14.000,36,2019-06-19 10:36:19.387,0.25,-90,-180,60,150,1
1,0,54.082,0,120,1,0.25,2,90,0.0,0.0,6,45.0,20.0,9,0.7509999999999999,1.0,55.681000000000004,0.15,1,2019-06-19 15:57:39.000,20,2019-06-19 15:58:33.082,0.25,-90,0,-120,150,1
2,0,57.253,1,120,1,0.25,2,30,0.0,0.0,12,45.0,20.0,3,0.8009999999999999,0.0,57.783,0.15,1,2019-06-19 15:57:39.000,20,2019-06-19 15:58:36.253,0.25,90,-180,60,-30,1
3,0,59.555,0,120,1,0.25,2,30,0.0,0.0,12,45.0,20.0,3,0.701,1.0,61.907,0.0,0,2019-06-19 15:57:39.000,20,2019-06-19 15:58:38.555,0.25,-90,-180,60,150,1
5,0,73.149,0,120,1,0.25,2,90,0.0,0.0,6,45.0,20.0,9,0.6509999999999999,0.0,73.678,0.0,0,2019-06-19 15:57:39.000,20,2019-06-19 15:58:52.149,0.25,90,0,-120,-30,1
7,0,92.303,1,120,1,0.25,2,30,0.0,0.0,12,45.0,20.0,3,0.601,0.0,92.96700000000001,0.15,1,2019-06-19 15:57:39.000,20,2019-06-19 15:59:11.303,0.25,90,-180,60,-30,1
8,0,94.73899999999999,0,120,1,0.25,2,30,0.0,0.0,12,45.0,20.0,3,0.8009999999999999,1.0,97.277,0.0,0,2019-06-19 15:57:39.000,20,2019-06-19 15:59:13.739,0.25,-90,-180,60,150,1
12,0,124.015,1,120,1,0.25,2,90,0.0,0.0,6,45.0,20.0,9,0.701,1.0,124.304,0.15,1,2019-06-19 15:57:39.000,20,2019-06-19 15:59:43.015,0.25,-90,0,-120,150,1
13,0,125.57700000000001,0,120,1,0.25,2,90,0.0,0.0,6,45.0,20.0,9,0.6509999999999999,1.0,126.725,0.15,1,2019-06-19 15:57:39.000,20,2019-06-19 15:59:44.577,0.25,-90,0,-120,150,1
14,0,134.411,1,120,1,0.25,2,30,0.0,0.0,12,45.0,20.0,3,0.7509999999999999,0.0,135.46200000000002,0.15,1,2019-06-19 15:57:39.000,20,2019-06-19 15:59:53.411,0.25,90,-180,60,-30,1
15,0,136.687,0,120,1,0.25,2,30,0.0,0.0,12,45.0,20.0,3,0.601,1.0,137.83700000000002,0.0,0,2019-06-19 15:57:39.000,20,2019-06-19 15:59:55.687,0.25,-90,-180,60,150,1
17,0,147.39600000000002,1,120,1,0.25,2,30,0.0,0.0,12,45.0,20.0,3,0.8009999999999999,0.0,147.773,0.15,1,2019-06-19 15:57:39.000,20,2019-06-19 16:00:06.396,0.25,90,-180,60,-30,1
18,0,149.204,1,120,1,0.25,2,90,0.0,0.0,6,45.0,20.0,9,0.601,1.0,151.279,0.15,1,2019-06-19 15:57:39.000,20,2019-06-19 16:00:08.204,0.25,-90,0,-120,150,1
19,0,152.72899999999998,0,120,1,0.25,2,90,0.0,0.0,6,45.0,20.0,9,0.6509999999999999,1.0,154.119,0.15,1,2019-06-19 15:57:39.000,20,2019-06-19 16:00:11.729,0.25,-90,0,-120,150,1
20,0,159.533,0,120,1,0.25,2,30,0.0,0.0,12,45.0,20.0,3,0.7509999999999999,0.0,160.058,0.15,1,2019-06-19 15:57:39.000,20,2019-06-19 16:00:18.533,0.25,90,-180,60,-30,1
21,0,162.833,0,120,1,0.25,2,90,0.0,0.0,6,45.0,20.0,9,0.701,1.0,163.94099999999997,0.15,1,2019-06-19 15:57:39.000,20,2019-06-19 16:00:21.833,0.25,-90,0,-120,150,1
22,0,173.048,1,120,1,0.25,2,90,0.0,0.0,6,45.0,20.0,9,0.8009999999999999,1.0,173.39700000000002,0.15,1,2019-06-19 15:57:39.000,20,2019-06-19 16:00:32.048,0.25,-90,0,-120,150,1
23,0,174.995,0,120,1,0.25,2,30,0.0,0.0,12,45.0,20.0,3,0.701,1.0,176.642,0.0,0,2019-06-19 15:57:39.000,20,2019-06-19 16:00:33.995,0.25,-90,-180,60,150,1
25,0,183.046,0,120,1,0.25,2,30,0.0,0.0,12,45.0,20.0,3,0.601,1.0,184.595,0.0,0,2019-06-19 15:57:39.000,20,2019-06-19 16:00:42.046,0.25,-90,-180,60,150,1
27,0,191.169,0,120,1,0.25,2,90,0.0,0.0,6,45.0,20.0,9,0.7509999999999999,0.0,193.378,0.0,0,2019-06-19 15:57:39.000,20,2019-06-19 16:00:50.169,0.25,90,0,-120,-30,1
29,0,206.774,1,120,1,0.25,2,90,0.0,0.0,6,45.0,20.0,9,0.6509999999999999,1.0,207.542,0.15,1,2019-06-19 15:57:39.000,20,2019-06-19 16:01:05.774,0.25,-90,0,-120,150,1
30,0,209.139,0,120,1,0.25,2,90,0.0,0.0,6,45.0,20.0,9,0.7509999999999999,1.0,210.785,0.15,1,2019-06-19 15:57:39.000,20,2019-06-19 16:01:08.139,0.25,-90,0,-120,150,1
31,0,211.94099999999997,1,120,1,0.25,2,90,0.0,0.0,6,45.0,20.0,9,0.601,1.0,212.385,0.15,1,2019-06-19 15:57:39.000,20,2019-06-19 16:01:10.941,0.25,-90,0,-120,150,1
32,0,214.512,0,120,1,0.25,2,30,0.0,0.0,12,45.0,20.0,3,0.6509999999999999,1.0,216.05,0.0,0,2019-06-19 15:57:39.000,20,2019-06-19 16:01:13.512,0.25,-90,-180,60,150,1
34,0,223.167,1,120,1,0.25,2,90,0.0,0.0,6,45.0,20.0,9,0.701,1.0,223.511,0.15,1,2019-06-19 15:57:39.000,20,2019-06-19 16:01:22.167,0.25,-90,0,-120,150,1
35,0,225.05900000000003,0,120,1,0.25,2,30,0.0,0.0,12,45.0,20.0,3,0.8009999999999999,1.0,226.235,0.0,0,2019-06-19 15:57:39.000,20,2019-06-19 16:01:24.059,0.25,-90,-180,60,150,1
38,0,242.852,0,120,1,0.25,2,90,0.0,0.0,6,45.0,20.0,9,0.8009999999999999,1.0,243.639,0.15,1,2019-06-19 15:57:39.000,20,2019-06-19 16:01:41.852,0.25,-90,0,-120,150,1
39,0,246.856,0,120,1,0.25,2,90,0.0,0.0,6,45.0,20.0,9,0.601,0.0,248.502,0.0,0,2019-06-19 15:57:39.000,20,2019-06-19 16:01:45.856,0.25,90,0,-120,-30,1
41,0,259.911,0,120,1,0.25,2,30,0.0,0.0,12,45.0,20.0,3,0.7509999999999999,0.0,260.23400000000004,0.15,1,2019-06-19 15:57:39.000,20,2019-06-19 16:01:58.911,0.25,90,-180,60,-30,1
42,0,263.95,0,120,1,0.25,2,30,0.0,0.0,12,45.0,20.0,3,0.701,0.0,264.853,0.15,1,2019-06-19 15:57:39.000,20,2019-06-19 16:02:02.950,0.25,90,-180,60,-30,1
43,0,268.14,1,120,1,0.25,2,30,0.0,0.0,12,45.0,20.0,3,0.6509999999999999,0.0,269.73400000000004,0.15,1,2019-06-19 15:57:39.000,20,2019-06-19 16:02:07.140,0.25,90,-180,60,-30,1
44,0,271.525,0,120,1,0.25,2,30,0.0,0.0,12,45.0,20.0,3,0.7509999999999999,1.0,273.45,0.0,0,2019-06-19 15:57:39.000,20,2019-06-19 16:02:10.525,0.25,-90,-180,60,150,1
46,0,282.843,0,120,1,0.25,2,30,0.0,0.0,12,45.0,20.0,3,0.6509999999999999,0.0,283.788,0.15,1,2019-06-19 15:57:39.000,20,2019-06-19 16:02:21.843,0.25,90,-180,60,-30,1
47,0,287.332,0,120,1,0.25,2,90,0.0,0.0,6,45.0,20.0,9,0.701,1.0,287.755,0.15,1,2019-06-19 15:57:39.000,20,2019-06-19 16:02:26.332,0.25,-90,0,-120,150,1
48,0,294.10400000000004,0,120,1,0.25,2,30,0.0,0.0,12,45.0,20.0,3,0.8009999999999999,0.0,294.702,0.15,1,2019-06-19 15:57:39.000,20,2019-06-19 16:02:33.104,0.25,90,-180,60,-30,1
49,0,298.818,0,120,1,0.25,2,90,0.0,0.0,6,45.0,20.0,9,0.601,1.0,299.401,0.15,1,2019-06-19 15:57:39.000,20,2019-06-19 16:02:37.818,0.25,-90,0,-120,150,1
50,0,303.952,1,120,1,0.25,2,30,0.0,0.0,12,45.0,20.0,3,0.8009999999999999,0.0,304.154,0.15,1,2019-06-19 15:57:39.000,20,2019-06-19 16:02:42.952,0.25,90,-180,60,-30,1
51,0,305.863,0,120,1,0.25,2,30,0.0,0.0,12,45.0,20.0,3,0.701,1.0,308.658,0.0,0,2019-06-19 15:57:39.000,20,2019-06-19 16:02:44.863,0.25,-90,-180,60,150,1
53,0,318.715,0,120,1,0.25,2,90,0.0,0.0,6,45.0,20.0,9,0.601,1.0,319.60900000000004,0.15,1,2019-06-19 15:57:39.000,20,2019-06-19 16:02:57.715,0.25,-90,0,-120,150,1
54,0,330.337,0,120,1,0.25,2,90,0.0,0.0,6,45.0,20.0,9,0.6509999999999999,1.0,330.899,0.15,1,2019-06-19 15:57:39.000,20,2019-06-19 16:03:09.337,0.25,-90,0,-120,150,1
55,0,334.699,0,120,1,0.25,2,90,0.0,0.0,6,45.0,20.0,9,0.7509999999999999,1.0,335.37800000000004,0.15,1,2019-06-19 15:57:39.000,20,2019-06-19 16:03:13.699,0.25,-90,0,-120,150,1
56,0,341.905,1,120,1,0.25,2,30,0.0,0.0,12,45.0,20.0,3,0.7509999999999999,0.0,342.525,0.15,1,2019-06-19 15:57:39.000,20,2019-06-19 16:03:20.905,0.25,90,-180,60,-30,1
57,0,344.18800000000005,0,120,1,0.25,2,30,0.0,0.0,12,45.0,20.0,3,0.701,1.0,346.355,0.0,0,2019-06-19 15:57:39.000,20,2019-06-19 16:03:23.188,0.25,-90,-180,60,150,1
59,0,355.032,0,120,1,0.25,2,90,0.0,0.0,6,45.0,20.0,9,0.8009999999999999,1.0,355.491,0.15,1,2019-06-19 15:57:39.000,20,2019-06-19 16:03:34.032,0.25,-90,0,-120,150,1
60,0,359.298,0,120,1,0.25,2,90,0.0,0.0,6,45.0,20.0,9,0.601,1.0,359.99199999999996,0.15,1,2019-06-19 15:57:39.000,20,2019-06-19 16:03:38.298,0.25,-90,0,-120,150,1
61,0,363.661,0,120,1,0.25,2,30,0.0,0.0,12,45.0,20.0,3,0.6509999999999999,0.0,364.829,0.15,1,2019-06-19 15:57:39.000,20,2019-06-19 16:03:42.661,0.25,90,-180,60,-30,1
62,0,369.272,0,120,1,0.25,2,30,0.0,0.0,12,45.0,20.0,3,0.7509999999999999,0.0,369.965,0.15,1,2019-06-19 15:57:39.000,20,2019-06-19 16:03:48.272,0.25,90,-180,60,-30,1
63,0,377.059,1,120,1,0.25,2,30,0.0,0.0,12,45.0,20.0,3,0.601,0.0,378.094,0.15,1,2019-06-19 15:57:39.000,20,2019-06-19 16:03:56.059,0.25,90,-180,60,-30,1
64,0,384.02099999999996,0,120,1,0.25,2,30,0.0,0.0,12,45.0,20.0,3,0.701,0.0,384.402,0.15,1,2019-06-19 15:57:39.000,20,2019-06-19 16:04:03.021,0.25,90,-180,60,-30,1
65,0,393.425,1,120,1,0.25,2,30,0.0,0.0,12,45.0,20.0,3,0.6509999999999999,0.0,393.907,0.15,1,2019-06-19 15:57:39.000,20,2019-06-19 16:04:12.425,0.25,90,-180,60,-30,1
66,0,395.648,0,120,1,0.25,2,90,0.0,0.0,6,45.0,20.0,9,0.8009999999999999,1.0,396.793,0.15,1,2019-06-19 15:57:39.000,20,2019-06-19 16:04:14.648,0.25,-90,0,-120,150,1
67,0,400.385,0,120,1,0.25,2,90,0.0,0.0,6,45.0,20.0,9,0.701,1.0,400.949,0.15,1,2019-06-19 15:57:39.000,20,2019-06-19 16:04:19.385,0.25,-90,0,-120,150,1
68,0,404.51800000000003,0,120,1,0.25,2,90,0.0,0.0,6,45.0,20.0,9,0.7509999999999999,1.0,405.255,0.15,1,2019-06-19 15:57:39.000,20,2019-06-19 16:04:23.518,0.25,-90,0,-120,150,1
69,0,408.371,0,120,1,0.25,2,30,0.0,0.0,12,45.0,20.0,3,0.601,0.0,408.70099999999996,0.15,1,2019-06-19 15:57:39.000,20,2019-06-19 16:04:27.371,0.25,90,-180,60,-30,1
70,0,414.754,0,120,1,0.25,2,30,0.0,0.0,12,45.0,20.0,3,0.8009999999999999,0.0,415.76300000000003,0.15,1,2019-06-19 15:57:39.000,20,2019-06-19 16:04:33.754,0.25,90,-180,60,-30,1
71,0,421.163,0,120,1,0.25,2,90,0.0,0.0,6,45.0,20.0,9,0.6509999999999999,1.0,421.779,0.15,1,2019-06-19 15:57:39.000,20,2019-06-19 16:04:40.163,0.25,-90,0,-120,150,1
72,0,424.76099999999997,0,120,1,0.25,2,90,0.0,0.0,6,45.0,20.0,9,0.701,1.0,425.39099999999996,0.15,1,2019-06-19 15:57:39.000,20,2019-06-19 16:04:43.761,0.25,-90,0,-120,150,1
73,0,431.952,0,120,1,0.25,2,90,0.0,0.0,6,45.0,20.0,9,0.7509999999999999,0.0,432.784,0.0,0,2019-06-19 15:57:39.000,20,2019-06-19 16:04:50.952,0.25,90,0,-120,-30,1
75,0,444.528,0,120,1,0.25,2,90,0.0,0.0,6,45.0,20.0,9,0.601,1.0,445.314,0.15,1,2019-06-19 15:57:39.000,20,2019-06-19 16:05:03.528,0.25,-90,0,-120,150,1
76,0,448.981,0,120,1,0.25,2,90,0.0,0.0,6,45.0,20.0,9,0.8009999999999999,1.0,449.241,0.15,1,2019-06-19 15:57:39.000,20,2019-06-19 16:05:07.981,0.25,-90,0,-120,150,1
77,0,452.791,0,120,1,0.25,2,30,0.0,0.0,12,45.0,20.0,3,0.6509999999999999,0.0,453.43300000000005,0.15,1,2019-06-19 15:57:39.000,20,2019-06-19 16:05:11.791,0.25,90,-180,60,-30,1
78,0,459.25,1,120,1,0.25,2,30,0.0,0.0,12,45.0,20.0,3,0.7509999999999999,0.0,459.875,0.15,1,2019-06-19 15:57:39.000,20,2019-06-19 16:05:18.250,0.25,90,-180,60,-30,1
79,0,461.44599999999997,0,120,1,0.25,2,90,0.0,0.0,6,45.0,20.0,9,0.701,1.0,462.68300000000005,0.15,1,2019-06-19 15:57:39.000,20,2019-06-19 16:05:20.446,0.25,-90,0,-120,150,1
80,0,465.754,0,120,1,0.25,2,90,0.0,0.0,6,45.0,20.0,9,0.6509999999999999,1.0,466.874,0.15,1,2019-06-19 15:57:39.000,20,2019-06-19 16:05:24.754,0.25,-90,0,-120,150,1
81,0,470.327,0,120,1,0.25,2,90,0.0,0.0,6,45.0,20.0,9,0.601,1.0,470.75800000000004,0.15,1,2019-06-19 15:57:39.000,20,2019-06-19 16:05:29.327,0.25,-90,0,-120,150,1
82,0,474.235,0,120,1,0.25,2,90,0.0,0.0,6,45.0,20.0,9,0.8009999999999999,1.0,474.861,0.15,1,2019-06-19 15:57:39.000,20,2019-06-19 16:05:33.235,0.25,-90,0,-120,150,1
83,0,478.57099999999997,0,120,1,0.25,2,90,0.0,0.0,6,45.0,20.0,9,0.7509999999999999,1.0,479.019,0.15,1,2019-06-19 15:57:39.000,20,2019-06-19 16:05:37.571,0.25,-90,0,-120,150,1
84,0,482.778,1,120,1,0.25,2,90,0.0,0.0,6,45.0,20.0,9,0.6509999999999999,1.0,483.51599999999996,0.15,1,2019-06-19 15:57:39.000,20,2019-06-19 16:05:41.778,0.25,-90,0,-120,150,1
85,0,485.034,1,120,1,0.25,2,90,0.0,0.0,6,45.0,20.0,9,0.701,1.0,486.719,0.15,1,2019-06-19 15:57:39.000,20,2019-06-19 16:05:44.034,0.25,-90,0,-120,150,1
86,0,488.30199999999996,0,120,1,0.25,2,30,0.0,0.0,12,45.0,20.0,3,0.8009999999999999,1.0,489.63599999999997,0.0,0,2019-06-19 15:57:39.000,20,2019-06-19 16:05:47.302,0.25,-90,-180,60,150,1
88,0,535.1669999999999,0,120,1,0.25,2,30,0.0,0.0,12,45.0,20.0,3,0.601,1.0,536.529,0.0,0,2019-06-19 15:57:39.000,20,2019-06-19 16:06:34.167,0.25,-90,-180,60,150,1
90,0,543.3290000000001,0,120,1,0.25,2,90,0.0,0.0,6,45.0,20.0,9,0.701,1.0,544.7130000000001,0.15,1,2019-06-19 15:57:39.000,20,2019-06-19 16:06:42.329,0.25,-90,0,-120,150,1
91,0,549.007,1,120,1,0.25,2,30,0.0,0.0,12,45.0,20.0,3,0.7509999999999999,0.0,550.0880000000001,0.15,1,2019-06-19 15:57:39.000,20,2019-06-19 16:06:48.007,0.25,90,-180,60,-30,1
92,0,551.678,0,120,1,0.25,2,30,0.0,0.0,12,45.0,20.0,3,0.8009999999999999,1.0,552.989,0.0,0,2019-06-19 15:57:39.000,20,2019-06-19 16:06:50.678,0.25,-90,-180,60,150,1
94,0,560.681,0,120,1,0.25,2,30,0.0,0.0,12,45.0,20.0,3,0.601,1.0,561.844,0.0,0,2019-06-19 15:57:39.000,20,2019-06-19 16:06:59.681,0.25,-90,-180,60,150,1
96,0,637.372,0,120,1,0.25,2,30,0.0,0.0,12,45.0,20.0,3,0.6509999999999999,0.0,639.0980000000001,0.15,1,2019-06-19 15:57:39.000,20,2019-06-19 16:08:16.372,0.25,90,-180,60,-30,1
97,0,641.575,0,120,1,0.25,2,30,0.0,0.0,12,45.0,20.0,3,0.701,0.0,642.22,0.15,1,2019-06-19 15:57:39.000,20,2019-06-19 16:08:20.575,0.25,90,-180,60,-30,1
98,0,648.472,0,120,1,0.25,2,30,0.0,0.0,12,45.0,20.0,3,0.7509999999999999,0.0,648.8430000000001,0.15,1,2019-06-19 15:57:39.000,20,2019-06-19 16:08:27.472,0.25,90,-180,60,-30,1
1,0,59.308,0,150,1,0.25,2,30,0.0,0.0,12,45.0,20.0,3,0.601,1.0,61.375,0.0,0,2019-06-20 09:37:06.000,30,2019-06-20 09:38:05.308,0.25,-90,-180,30,120,1
3,0,72.331,0,150,1,0.25,2,30,0.0,0.0,12,45.0,20.0,3,0.6509999999999999,1.0,73.116,0.0,0,2019-06-20 09:37:06.000,30,2019-06-20 09:38:18.331,0.25,-90,-180,30,120,1
5,0,84.04,1,150,1,0.25,2,30,0.0,0.0,12,45.0,20.0,3,0.8009999999999999,0.0,84.389,0.15,1,2019-06-20 09:37:06.000,30,2019-06-20 09:38:30.040,0.25,90,-180,30,-60,1
6,0,86.12700000000001,0,150,1,0.25,2,90,0.0,0.0,6,45.0,20.0,9,0.701,1.0,87.963,0.15,1,2019-06-20 09:37:06.000,30,2019-06-20 09:38:32.127,0.25,-90,0,-150,120,1
7,0,89.45700000000001,0,150,1,0.25,2,90,0.0,0.0,6,45.0,20.0,9,0.7509999999999999,1.0,90.325,0.15,1,2019-06-20 09:37:06.000,30,2019-06-20 09:38:35.457,0.25,-90,0,-150,120,1
8,0,98.39399999999999,1,150,1,0.25,2,30,0.0,0.0,12,45.0,20.0,3,0.7509999999999999,0.0,99.26299999999999,0.15,1,2019-06-20 09:37:06.000,30,2019-06-20 09:38:44.394,0.25,90,-180,30,-60,1
9,0,100.971,0,150,1,0.25,2,30,0.0,0.0,12,45.0,20.0,3,0.8009999999999999,1.0,102.693,0.0,0,2019-06-20 09:37:06.000,30,2019-06-20 09:38:46.971,0.25,-90,-180,30,120,1
11,0,109.791,1,150,1,0.25,2,30,0.0,0.0,12,45.0,20.0,3,0.601,0.0,110.525,0.15,1,2019-06-20 09:37:06.000,30,2019-06-20 09:38:55.791,0.25,90,-180,30,-60,1
12,0,112.31299999999999,0,150,1,0.25,2,30,0.0,0.0,12,45.0,20.0,3,0.701,1.0,113.595,0.0,0,2019-06-20 09:37:06.000,30,2019-06-20 09:38:58.313,0.25,-90,-180,30,120,1
14,0,125.54799999999999,0,150,1,0.25,2,90,0.0,0.0,6,45.0,20.0,9,0.6509999999999999,1.0,126.314,0.15,1,2019-06-20 09:37:06.000,30,2019-06-20 09:39:11.548,0.25,-90,0,-150,120,1
15,0,129.559,0,150,1,0.25,2,90,0.0,0.0,6,45.0,20.0,9,0.701,1.0,130.028,0.15,1,2019-06-20 09:37:06.000,30,2019-06-20 09:39:15.559,0.25,-90,0,-150,120,1
16,0,133.372,0,150,1,0.25,2,90,0.0,0.0,6,45.0,20.0,9,0.6509999999999999,1.0,133.942,0.15,1,2019-06-20 09:37:06.000,30,2019-06-20 09:39:19.372,0.25,-90,0,-150,120,1
17,0,137.471,0,150,1,0.25,2,90,0.0,0.0,6,45.0,20.0,9,0.7509999999999999,0.0,137.666,0.0,0,2019-06-20 09:37:06.000,30,2019-06-20 09:39:23.471,0.25,90,0,-150,-60,1
21,0,165.692,0,150,1,0.25,2,30,0.0,0.0,12,45.0,20.0,3,0.601,1.0,166.09900000000002,0.0,0,2019-06-20 09:37:06.000,30,2019-06-20 09:39:51.692,0.25,-90,-180,30,120,1
23,0,179.082,1,150,1,0.25,2,30,0.0,0.0,12,45.0,20.0,3,0.8009999999999999,0.0,179.68400000000003,0.15,1,2019-06-20 09:37:06.000,30,2019-06-20 09:40:05.082,0.25,90,-180,30,-60,1
24,0,181.176,0,150,1,0.25,2,90,0.0,0.0,6,45.0,20.0,9,0.6509999999999999,0.0,183.005,0.0,0,2019-06-20 09:37:06.000,30,2019-06-20 09:40:07.176,0.25,90,0,-150,-60,1
26,0,192.567,0,150,1,0.25,2,90,0.0,0.0,6,45.0,20.0,9,0.7509999999999999,0.0,193.44299999999998,0.0,0,2019-06-20 09:37:06.000,30,2019-06-20 09:40:18.567,0.25,90,0,-150,-60,1
28,0,200.446,1,150,1,0.25,2,90,0.0,0.0,6,45.0,20.0,9,0.701,1.0,201.641,0.15,1,2019-06-20 09:37:06.000,30,2019-06-20 09:40:26.446,0.25,-90,0,-150,120,1
29,0,203.95,1,150,1,0.25,2,90,0.0,0.0,6,45.0,20.0,9,0.601,1.0,205.71200000000002,0.15,1,2019-06-20 09:37:06.000,30,2019-06-20 09:40:29.950,0.25,-90,0,-150,120,1
30,0,208.222,0,150,1,0.25,2,30,0.0,0.0,12,45.0,20.0,3,0.8009999999999999,1.0,213.048,0.0,0,2019-06-20 09:37:06.000,30,2019-06-20 09:40:34.222,0.25,-90,-180,30,120,1
34,0,234.287,1,150,1,0.25,2,30,0.0,0.0,12,45.0,20.0,3,0.6509999999999999,0.0,236.123,0.15,1,2019-06-20 09:37:06.000,30,2019-06-20 09:41:00.287,0.25,90,-180,30,-60,1
35,0,237.565,0,150,1,0.25,2,30,0.0,0.0,12,45.0,20.0,3,0.601,1.0,239.52599999999998,0.0,0,2019-06-20 09:37:06.000,30,2019-06-20 09:41:03.565,0.25,-90,-180,30,120,1
37,0,251.368,1,150,1,0.25,2,30,0.0,0.0,12,45.0,20.0,3,0.7509999999999999,0.0,251.858,0.15,1,2019-06-20 09:37:06.000,30,2019-06-20 09:41:17.368,0.25,90,-180,30,-60,1
38,0,253.481,1,150,1,0.25,2,90,0.0,0.0,6,45.0,20.0,9,0.8009999999999999,1.0,255.199,0.15,1,2019-06-20 09:37:06.000,30,2019-06-20 09:41:19.481,0.25,-90,0,-150,120,1
39,0,256.70799999999997,0,150,1,0.25,2,30,0.0,0.0,12,45.0,20.0,3,0.701,1.0,258.408,0.0,0,2019-06-20 09:37:06.000,30,2019-06-20 09:41:22.708,0.25,-90,-180,30,120,1
41,0,265.14599999999996,0,150,1,0.25,2,90,0.0,0.0,6,45.0,20.0,9,0.701,1.0,266.969,0.15,1,2019-06-20 09:37:06.000,30,2019-06-20 09:41:31.146,0.25,-90,0,-150,120,1
42,0,270.87,0,150,1,0.25,2,90,0.0,0.0,6,45.0,20.0,9,0.6509999999999999,1.0,271.653,0.15,1,2019-06-20 09:37:06.000,30,2019-06-20 09:41:36.870,0.25,-90,0,-150,120,1
43,0,277.11400000000003,0,150,1,0.25,2,30,0.0,0.0,12,45.0,20.0,3,0.8009999999999999,0.0,277.464,0.15,1,2019-06-20 09:37:06.000,30,2019-06-20 09:41:43.114,0.25,90,-180,30,-60,1
44,0,282.221,0,150,1,0.25,2,90,0.0,0.0,6,45.0,20.0,9,0.7509999999999999,1.0,282.83299999999997,0.15,1,2019-06-20 09:37:06.000,30,2019-06-20 09:41:48.221,0.25,-90,0,-150,120,1
45,0,286.355,1,150,1,0.25,2,90,0.0,0.0,6,45.0,20.0,9,0.601,1.0,286.89599999999996,0.15,1,2019-06-20 09:37:06.000,30,2019-06-20 09:41:52.355,0.25,-90,0,-150,120,1
46,0,288.298,0,150,1,0.25,2,90,0.0,0.0,6,45.0,20.0,9,0.601,1.0,290.20799999999997,0.15,1,2019-06-20 09:37:06.000,30,2019-06-20 09:41:54.298,0.25,-90,0,-150,120,1
47,0,294.281,1,150,1,0.25,2,90,0.0,0.0,6,45.0,20.0,9,0.7509999999999999,1.0,294.47,0.15,1,2019-06-20 09:37:06.000,30,2019-06-20 09:42:00.281,0.25,-90,0,-150,120,1
48,0,296.187,0,150,1,0.25,2,90,0.0,0.0,6,45.0,20.0,9,0.8009999999999999,1.0,298.05400000000003,0.15,1,2019-06-20 09:37:06.000,30,2019-06-20 09:42:02.187,0.25,-90,0,-150,120,1
49,0,302.643,0,150,1,0.25,2,30,0.0,0.0,12,45.0,20.0,3,0.6509999999999999,0.0,302.937,0.15,1,2019-06-20 09:37:06.000,30,2019-06-20 09:42:08.643,0.25,90,-180,30,-60,1
50,0,307.438,0,150,1,0.25,2,90,0.0,0.0,6,45.0,20.0,9,0.701,1.0,307.894,0.15,1,2019-06-20 09:37:06.000,30,2019-06-20 09:42:13.438,0.25,-90,0,-150,120,1
51,0,311.774,0,150,1,0.25,2,30,0.0,0.0,12,45.0,20.0,3,0.601,1.0,311.962,0.0,0,2019-06-20 09:37:06.000,30,2019-06-20 09:42:17.774,0.25,-90,-180,30,120,1
53,0,326.66700000000003,1,150,1,0.25,2,30,0.0,0.0,12,45.0,20.0,3,0.701,0.0,327.08299999999997,0.15,1,2019-06-20 09:37:06.000,30,2019-06-20 09:42:32.667,0.25,90,-180,30,-60,1
54,0,328.541,0,150,1,0.25,2,90,0.0,0.0,6,45.0,20.0,9,0.7509999999999999,1.0,329.755,0.15,1,2019-06-20 09:37:06.000,30,2019-06-20 09:42:34.541,0.25,-90,0,-150,120,1
55,0,333.56199999999995,1,150,1,0.25,2,30,0.0,0.0,12,45.0,20.0,3,0.6509999999999999,0.0,334.35699999999997,0.15,1,2019-06-20 09:37:06.000,30,2019-06-20 09:42:39.562,0.25,90,-180,30,-60,1
56,0,338.403,0,150,1,0.25,2,30,0.0,0.0,12,45.0,20.0,3,0.8009999999999999,1.0,340.86400000000003,0.0,0,2019-06-20 09:37:06.000,30,2019-06-20 09:42:44.403,0.25,-90,-180,30,120,1
58,0,350.43800000000005,0,150,1,0.25,2,30,0.0,0.0,12,45.0,20.0,3,0.601,0.0,351.29,0.15,1,2019-06-20 09:37:06.000,30,2019-06-20 09:42:56.438,0.25,90,-180,30,-60,1
59,0,355.284,0,150,1,0.25,2,90,0.0,0.0,6,45.0,20.0,9,0.701,1.0,355.624,0.15,1,2019-06-20 09:37:06.000,30,2019-06-20 09:43:01.284,0.25,-90,0,-150,120,1
60,0,361.45599999999996,0,150,1,0.25,2,90,0.0,0.0,6,45.0,20.0,9,0.8009999999999999,1.0,361.94800000000004,0.15,1,2019-06-20 09:37:06.000,30,2019-06-20 09:43:07.456,0.25,-90,0,-150,120,1
61,0,365.50300000000004,0,150,1,0.25,2,30,0.0,0.0,12,45.0,20.0,3,0.7509999999999999,0.0,365.849,0.15,1,2019-06-20 09:37:06.000,30,2019-06-20 09:43:11.503,0.25,90,-180,30,-60,1
62,0,370.83,0,150,1,0.25,2,90,0.0,0.0,6,45.0,20.0,9,0.6509999999999999,1.0,371.231,0.15,1,2019-06-20 09:37:06.000,30,2019-06-20 09:43:16.830,0.25,-90,0,-150,120,1
63,0,374.93300000000005,0,150,1,0.25,2,30,0.0,0.0,12,45.0,20.0,3,0.7509999999999999,0.0,375.23699999999997,0.15,1,2019-06-20 09:37:06.000,30,2019-06-20 09:43:20.933,0.25,90,-180,30,-60,1
64,0,379.464,0,150,1,0.25,2,90,0.0,0.0,6,45.0,20.0,9,0.8009999999999999,0.0,380.153,0.0,0,2019-06-20 09:37:06.000,30,2019-06-20 09:43:25.464,0.25,90,0,-150,-60,1
66,0,391.385,0,150,1,0.25,2,30,0.0,0.0,12,45.0,20.0,3,0.701,1.0,391.723,0.0,0,2019-06-20 09:37:06.000,30,2019-06-20 09:43:37.385,0.25,-90,-180,30,120,1
68,0,399.648,0,150,1,0.25,2,30,0.0,0.0,12,45.0,20.0,3,0.6509999999999999,1.0,401.949,0.0,0,2019-06-20 09:37:06.000,30,2019-06-20 09:43:45.648,0.25,-90,-180,30,120,1
70,0,417.301,0,150,1,0.25,2,90,0.0,0.0,6,45.0,20.0,9,0.601,0.0,417.816,0.0,0,2019-06-20 09:37:06.000,30,2019-06-20 09:44:03.301,0.25,90,0,-150,-60,1
72,0,424.24800000000005,1,150,1,0.25,2,90,0.0,0.0,6,45.0,20.0,9,0.7509999999999999,1.0,425.805,0.15,1,2019-06-20 09:37:06.000,30,2019-06-20 09:44:10.248,0.25,-90,0,-150,120,1
73,0,427.994,0,150,1,0.25,2,30,0.0,0.0,12,45.0,20.0,3,0.601,1.0,429.1,0.0,0,2019-06-20 09:37:06.000,30,2019-06-20 09:44:13.994,0.25,-90,-180,30,120,1
75,0,435.963,0,150,1,0.25,2,30,0.0,0.0,12,45.0,20.0,3,0.6509999999999999,1.0,438.19599999999997,0.0,0,2019-06-20 09:37:06.000,30,2019-06-20 09:44:21.963,0.25,-90,-180,30,120,1
77,0,447.214,0,150,1,0.25,2,90,0.0,0.0,6,45.0,20.0,9,0.8009999999999999,1.0,447.603,0.15,1,2019-06-20 09:37:06.000,30,2019-06-20 09:44:33.214,0.25,-90,0,-150,120,1
78,0,450.695,1,150,1,0.25,2,30,0.0,0.0,12,45.0,20.0,3,0.701,0.0,451.202,0.15,1,2019-06-20 09:37:06.000,30,2019-06-20 09:44:36.695,0.25,90,-180,30,-60,1
79,0,452.67199999999997,0,150,1,0.25,2,90,0.0,0.0,6,45.0,20.0,9,0.6509999999999999,0.0,454.25699999999995,0.0,0,2019-06-20 09:37:06.000,30,2019-06-20 09:44:38.672,0.25,90,0,-150,-60,1
81,0,466.55400000000003,0,150,1,0.25,2,30,0.0,0.0,12,45.0,20.0,3,0.7509999999999999,1.0,467.028,0.0,0,2019-06-20 09:37:06.000,30,2019-06-20 09:44:52.554,0.25,-90,-180,30,120,1
83,0,476.81199999999995,1,150,1,0.25,2,90,0.0,0.0,6,45.0,20.0,9,0.601,1.0,477.017,0.15,1,2019-06-20 09:37:06.000,30,2019-06-20 09:45:02.812,0.25,-90,0,-150,120,1
84,0,478.668,0,150,1,0.25,2,90,0.0,0.0,6,45.0,20.0,9,0.8009999999999999,1.0,481.19699999999995,0.15,1,2019-06-20 09:37:06.000,30,2019-06-20 09:45:04.668,0.25,-90,0,-150,120,1
85,0,484.92,1,150,1,0.25,2,30,0.0,0.0,12,45.0,20.0,3,0.701,0.0,485.56,0.15,1,2019-06-20 09:37:06.000,30,2019-06-20 09:45:10.920,0.25,90,-180,30,-60,1
86,0,487.214,0,150,1,0.25,2,90,0.0,0.0,6,45.0,20.0,9,0.701,1.0,489.25699999999995,0.15,1,2019-06-20 09:37:06.000,30,2019-06-20 09:45:13.214,0.25,-90,0,-150,120,1
87,0,493.31800000000004,0,150,1,0.25,2,90,0.0,0.0,6,45.0,20.0,9,0.7509999999999999,1.0,493.527,0.15,1,2019-06-20 09:37:06.000,30,2019-06-20 09:45:19.318,0.25,-90,0,-150,120,1
88,0,496.704,1,150,1,0.25,2,30,0.0,0.0,12,45.0,20.0,3,0.601,0.0,497.384,0.15,1,2019-06-20 09:37:06.000,30,2019-06-20 09:45:22.704,0.25,90,-180,30,-60,1
89,0,498.724,0,150,1,0.25,2,90,0.0,0.0,6,45.0,20.0,9,0.8009999999999999,1.0,500.44199999999995,0.15,1,2019-06-20 09:37:06.000,30,2019-06-20 09:45:24.724,0.25,-90,0,-150,120,1
90,0,503.911,0,150,1,0.25,2,30,0.0,0.0,12,45.0,20.0,3,0.6509999999999999,0.0,504.211,0.15,1,2019-06-20 09:37:06.000,30,2019-06-20 09:45:29.911,0.25,90,-180,30,-60,1
91,0,507.74800000000005,0,150,1,0.25,2,30,0.0,0.0,12,45.0,20.0,3,0.701,1.0,508.25199999999995,0.0,0,2019-06-20 09:37:06.000,30,2019-06-20 09:45:33.748,0.25,-90,-180,30,120,1
94,0,522.962,0,150,1,0.25,2,90,0.0,0.0,6,45.0,20.0,9,0.8009999999999999,0.0,523.491,0.0,0,2019-06-20 09:37:06.000,30,2019-06-20 09:45:48.962,0.25,90,0,-150,-60,1
96,0,533.161,1,150,1,0.25,2,90,0.0,0.0,6,45.0,20.0,9,0.7509999999999999,1.0,533.408,0.15,1,2019-06-20 09:37:06.000,30,2019-06-20 09:45:59.161,0.25,-90,0,-150,120,1
97,0,534.906,0,150,1,0.25,2,90,0.0,0.0,6,45.0,20.0,9,0.601,1.0,536.485,0.15,1,2019-06-20 09:37:06.000,30,2019-06-20 09:46:00.906,0.25,-90,0,-150,120,1
98,0,540.805,0,150,1,0.25,2,30,0.0,0.0,12,45.0,20.0,3,0.6509999999999999,0.0,541.523,0.15,1,2019-06-20 09:37:06.000,30,2019-06-20 09:46:06.805,0.25,90,-180,30,-60,1
99,0,545.05,0,150,1,0.25,2,30,0.0,0.0,12,45.0,20.0,3,0.7509999999999999,1.0,545.453,0.0,0,2019-06-20 09:37:06.000,30,2019-06-20 09:46:11.050,0.25,-90,-180,30,120,1
101,0,560.002,0,150,1,0.25,2,30,0.0,0.0,12,45.0,20.0,3,0.6509999999999999,1.0,560.5740000000001,0.0,0,2019-06-20 09:37:06.000,30,2019-06-20 09:46:26.002,0.25,-90,-180,30,120,1
103,0,587.448,0,150,1,0.25,2,90,0.0,0.0,6,45.0,20.0,9,0.701,0.0,587.888,0.0,0,2019-06-20 09:37:06.000,30,2019-06-20 09:46:53.448,0.25,90,0,-150,-60,1
105,0,593.812,0,150,1,0.25,2,30,0.0,0.0,12,45.0,20.0,3,0.8009999999999999,1.0,594.8580000000001,0.0,0,2019-06-20 09:37:06.000,30,2019-06-20 09:46:59.812,0.25,-90,-180,30,120,1
107,0,628.5509999999999,0,150,1,0.25,2,90,0.0,0.0,6,45.0,20.0,9,0.601,0.0,629.357,0.0,0,2019-06-20 09:37:06.000,30,2019-06-20 09:47:34.551,0.25,90,0,-150,-60,1
109,0,643.004,0,150,1,0.25,2,90,0.0,0.0,6,45.0,20.0,9,0.701,1.0,643.54,0.15,1,2019-06-20 09:37:06.000,30,2019-06-20 09:47:49.004,0.25,-90,0,-150,120,1
110,0,648.992,0,150,1,0.25,2,30,0.0,0.0,12,45.0,20.0,3,0.7509999999999999,0.0,649.365,0.15,1,2019-06-20 09:37:06.000,30,2019-06-20 09:47:54.992,0.25,90,-180,30,-60,1
111,0,652.42,0,150,1,0.25,2,30,0.0,0.0,12,45.0,20.0,3,0.601,1.0,652.707,0.0,0,2019-06-20 09:37:06.000,30,2019-06-20 09:47:58.420,0.25,-90,-180,30,120,1
1,0,34.799,0,90,1,0.25,2,90,0.0,0.0,6,45.0,20.0,9,0.7509999999999999,1.0,35.857,0.15,1,2019-06-20 15:08:10.000,21,2019-06-20 15:08:44.799,0.25,-90,0,-90,-180,1
2,0,39.351,1,150,1,0.25,2,90,0.0,0.0,6,45.0,20.0,9,0.6509999999999999,1.0,45.262,0.15,1,2019-06-20 15:08:10.000,21,2019-06-20 15:08:49.351,0.25,-90,0,-150,120,1
3,0,46.86,0,150,1,0.25,2,30,0.0,0.0,12,45.0,20.0,3,0.601,1.0,49.28,0.0,0,2019-06-20 15:08:10.000,21,2019-06-20 15:08:56.860,0.25,-90,-180,30,120,1
5,0,58.188,1,150,1,0.25,2,90,0.0,0.0,6,45.0,20.0,9,0.8009999999999999,1.0,58.364,0.15,1,2019-06-20 15:08:10.000,21,2019-06-20 15:09:08.188,0.25,-90,0,-150,120,1
6,0,59.894,0,150,1,0.25,2,90,0.0,0.0,6,45.0,20.0,9,0.701,1.0,62.026,0.15,1,2019-06-20 15:08:10.000,21,2019-06-20 15:09:09.894,0.25,-90,0,-150,120,1
7,0,70.655,1,150,1,0.25,2,90,0.0,0.0,6,45.0,20.0,9,0.7509999999999999,1.0,71.1,0.15,1,2019-06-20 15:08:10.000,21,2019-06-20 15:09:20.655,0.25,-90,0,-150,120,1
8,0,72.654,1,150,1,0.25,2,90,0.0,0.0,6,45.0,20.0,9,0.6509999999999999,1.0,74.182,0.15,1,2019-06-20 15:08:10.000,21,2019-06-20 15:09:22.654,0.25,-90,0,-150,120,1
9,0,76.40100000000001,1,150,1,0.25,2,30,0.0,0.0,12,45.0,20.0,3,0.701,0.0,80.495,0.15,1,2019-06-20 15:08:10.000,21,2019-06-20 15:09:26.401,0.25,90,-180,30,-60,1
10,0,82.227,0,150,1,0.25,2,30,0.0,0.0,12,45.0,20.0,3,0.8009999999999999,1.0,84.23100000000001,0.0,0,2019-06-20 15:08:10.000,21,2019-06-20 15:09:32.227,0.25,-90,-180,30,120,1
12,0,90.75299999999999,0,150,1,0.25,2,30,0.0,0.0,12,45.0,20.0,3,0.601,1.0,92.87700000000001,0.0,0,2019-06-20 15:08:10.000,21,2019-06-20 15:09:40.753,0.25,-90,-180,30,120,1
14,0,106.65799999999999,0,150,1,0.25,2,30,0.0,0.0,12,45.0,20.0,3,0.7509999999999999,1.0,107.29700000000001,0.0,0,2019-06-20 15:08:10.000,21,2019-06-20 15:09:56.658,0.25,-90,-180,30,120,1
16,0,116.613,0,150,1,0.25,2,30,0.0,0.0,12,45.0,20.0,3,0.6509999999999999,1.0,118.662,0.0,0,2019-06-20 15:08:10.000,21,2019-06-20 15:10:06.613,0.25,-90,-180,30,120,1
18,0,127.654,0,150,1,0.25,2,90,0.0,0.0,6,45.0,20.0,9,0.8009999999999999,1.0,127.814,0.15,1,2019-06-20 15:08:10.000,21,2019-06-20 15:10:17.654,0.25,-90,0,-150,120,1
19,0,131.023,0,150,1,0.25,2,30,0.0,0.0,12,45.0,20.0,3,0.701,0.0,131.438,0.15,1,2019-06-20 15:08:10.000,21,2019-06-20 15:10:21.023,0.25,90,-180,30,-60,1
20,0,135.372,0,150,1,0.25,2,30,0.0,0.0,12,45.0,20.0,3,0.601,0.0,136.03799999999998,0.15,1,2019-06-20 15:08:10.000,21,2019-06-20 15:10:25.372,0.25,90,-180,30,-60,1
21,0,139.88299999999998,1,150,1,0.25,2,30,0.0,0.0,12,45.0,20.0,3,0.8009999999999999,0.0,140.266,0.15,1,2019-06-20 15:08:10.000,21,2019-06-20 15:10:29.883,0.25,90,-180,30,-60,1
22,0,141.61700000000002,0,150,1,0.25,2,30,0.0,0.0,12,45.0,20.0,3,0.6509999999999999,1.0,143.251,0.0,0,2019-06-20 15:08:10.000,21,2019-06-20 15:10:31.617,0.25,-90,-180,30,120,1
24,0,150.579,1,150,1,0.25,2,90,0.0,0.0,6,45.0,20.0,9,0.601,1.0,153.608,0.15,1,2019-06-20 15:08:10.000,21,2019-06-20 15:10:40.579,0.25,-90,0,-150,120,1
25,0,155.149,0,150,1,0.25,2,90,0.0,0.0,6,45.0,20.0,9,0.701,1.0,157.839,0.15,1,2019-06-20 15:08:10.000,21,2019-06-20 15:10:45.149,0.25,-90,0,-150,120,1
26,0,167.47799999999998,0,150,1,0.25,2,90,0.0,0.0,6,45.0,20.0,9,0.7509999999999999,0.0,168.127,0.0,0,2019-06-20 15:08:10.000,21,2019-06-20 15:10:57.478,0.25,90,0,-150,-60,1
28,0,183.295,0,150,1,0.25,2,30,0.0,0.0,12,45.0,20.0,3,0.601,0.0,184.204,0.15,1,2019-06-20 15:08:10.000,21,2019-06-20 15:11:13.295,0.25,90,-180,30,-60,1
29,0,187.983,0,150,1,0.25,2,30,0.0,0.0,12,45.0,20.0,3,0.6509999999999999,0.0,188.391,0.15,1,2019-06-20 15:08:10.000,21,2019-06-20 15:11:17.983,0.25,90,-180,30,-60,1
30,0,192.382,0,150,1,0.25,2,30,0.0,0.0,12,45.0,20.0,3,0.8009999999999999,0.0,192.838,0.15,1,2019-06-20 15:08:10.000,21,2019-06-20 15:11:22.382,0.25,90,-180,30,-60,1
31,0,196.352,0,150,1,0.25,2,90,0.0,0.0,6,45.0,20.0,9,0.701,0.0,196.99,0.0,0,2019-06-20 15:08:10.000,21,2019-06-20 15:11:26.352,0.25,90,0,-150,-60,1
33,0,209.487,0,150,1,0.25,2,90,0.0,0.0,6,45.0,20.0,9,0.7509999999999999,1.0,209.862,0.15,1,2019-06-20 15:08:10.000,21,2019-06-20 15:11:39.487,0.25,-90,0,-150,120,1
34,0,214.37099999999998,0,150,1,0.25,2,90,0.0,0.0,6,45.0,20.0,9,0.601,1.0,215.172,0.15,1,2019-06-20 15:08:10.000,21,2019-06-20 15:11:44.371,0.25,-90,0,-150,120,1
35,0,219.985,1,150,1,0.25,2,30,0.0,0.0,12,45.0,20.0,3,0.6509999999999999,0.0,220.65200000000002,0.15,1,2019-06-20 15:08:10.000,21,2019-06-20 15:11:49.985,0.25,90,-180,30,-60,1
36,0,222.222,1,150,1,0.25,2,90,0.0,0.0,6,45.0,20.0,9,0.701,1.0,224.852,0.15,1,2019-06-20 15:08:10.000,21,2019-06-20 15:11:52.222,0.25,-90,0,-150,120,1
37,0,226.748,0,150,1,0.25,2,90,0.0,0.0,6,45.0,20.0,9,0.8009999999999999,1.0,229.53799999999998,0.15,1,2019-06-20 15:08:10.000,21,2019-06-20 15:11:56.748,0.25,-90,0,-150,120,1
38,0,234.236,0,150,1,0.25,2,30,0.0,0.0,12,45.0,20.0,3,0.7509999999999999,0.0,234.895,0.15,1,2019-06-20 15:08:10.000,21,2019-06-20 15:12:04.236,0.25,90,-180,30,-60,1
39,0,239.55599999999998,0,150,1,0.25,2,90,0.0,0.0,6,45.0,20.0,9,0.601,1.0,240.146,0.15,1,2019-06-20 15:08:10.000,21,2019-06-20 15:12:09.556,0.25,-90,0,-150,120,1
40,0,244.30700000000002,0,150,1,0.25,2,90,0.0,0.0,6,45.0,20.0,9,0.8009999999999999,1.0,244.57,0.15,1,2019-06-20 15:08:10.000,21,2019-06-20 15:12:14.307,0.25,-90,0,-150,120,1
41,0,249.919,1,150,1,0.25,2,90,0.0,0.0,6,45.0,20.0,9,0.701,1.0,250.671,0.15,1,2019-06-20 15:08:10.000,21,2019-06-20 15:12:19.919,0.25,-90,0,-150,120,1
42,0,252.287,0,150,1,0.25,2,30,0.0,0.0,12,45.0,20.0,3,0.7509999999999999,1.0,254.321,0.0,0,2019-06-20 15:08:10.000,21,2019-06-20 15:12:22.287,0.25,-90,-180,30,120,1
44,0,263.77299999999997,1,150,1,0.25,2,30,0.0,0.0,12,45.0,20.0,3,0.6509999999999999,0.0,264.568,0.15,1,2019-06-20 15:08:10.000,21,2019-06-20 15:12:33.773,0.25,90,-180,30,-60,1
45,0,266.309,1,150,1,0.25,2,30,0.0,0.0,12,45.0,20.0,3,0.7509999999999999,0.0,268.04400000000004,0.15,1,2019-06-20 15:08:10.000,21,2019-06-20 15:12:36.309,0.25,90,-180,30,-60,1
46,0,269.741,0,150,1,0.25,2,90,0.0,0.0,6,45.0,20.0,9,0.6509999999999999,0.0,271.887,0.0,0,2019-06-20 15:08:10.000,21,2019-06-20 15:12:39.741,0.25,90,0,-150,-60,1
48,0,281.402,0,150,1,0.25,2,30,0.0,0.0,12,45.0,20.0,3,0.601,1.0,283.428,0.0,0,2019-06-20 15:08:10.000,21,2019-06-20 15:12:51.402,0.25,-90,-180,30,120,1
50,0,294.844,0,150,1,0.25,2,30,0.0,0.0,12,45.0,20.0,3,0.701,1.0,295.703,0.0,0,2019-06-20 15:08:10.000,21,2019-06-20 15:13:04.844,0.25,-90,-180,30,120,1
52,0,305.263,1,150,1,0.25,2,90,0.0,0.0,6,45.0,20.0,9,0.8009999999999999,1.0,306.399,0.15,1,2019-06-20 15:08:10.000,21,2019-06-20 15:13:15.263,0.25,-90,0,-150,120,1
53,0,307.73400000000004,0,150,1,0.25,2,30,0.0,0.0,12,45.0,20.0,3,0.601,1.0,309.5,0.0,0,2019-06-20 15:08:10.000,21,2019-06-20 15:13:17.734,0.25,-90,-180,30,120,1
55,0,320.48900000000003,0,150,1,0.25,2,90,0.0,0.0,6,45.0,20.0,9,0.7509999999999999,1.0,320.807,0.15,1,2019-06-20 15:08:10.000,21,2019-06-20 15:13:30.489,0.25,-90,0,-150,120,1
56,0,326.91700000000003,1,150,1,0.25,2,30,0.0,0.0,12,45.0,20.0,3,0.701,0.0,327.496,0.15,1,2019-06-20 15:08:10.000,21,2019-06-20 15:13:36.917,0.25,90,-180,30,-60,1
57,0,329.38800000000003,0,150,1,0.25,2,90,0.0,0.0,6,45.0,20.0,9,0.8009999999999999,1.0,331.3,0.15,1,2019-06-20 15:08:10.000,21,2019-06-20 15:13:39.388,0.25,-90,0,-150,120,1
58,0,334.70300000000003,1,150,1,0.25,2,90,0.0,0.0,6,45.0,20.0,9,0.6509999999999999,1.0,335.12,0.15,1,2019-06-20 15:08:10.000,21,2019-06-20 15:13:44.703,0.25,-90,0,-150,120,1
59,0,337.10699999999997,0,150,1,0.25,2,90,0.0,0.0,6,45.0,20.0,9,0.7509999999999999,1.0,338.80400000000003,0.15,1,2019-06-20 15:08:10.000,21,2019-06-20 15:13:47.107,0.25,-90,0,-150,120,1
60,0,342.974,0,150,1,0.25,2,30,0.0,0.0,12,45.0,20.0,3,0.701,1.0,343.221,0.0,0,2019-06-20 15:08:10.000,21,2019-06-20 15:13:52.974,0.25,-90,-180,30,120,1
62,0,355.205,0,150,1,0.25,2,90,0.0,0.0,6,45.0,20.0,9,0.8009999999999999,0.0,356.13300000000004,0.0,0,2019-06-20 15:08:10.000,21,2019-06-20 15:14:05.205,0.25,90,0,-150,-60,1
64,0,374.899,0,150,1,0.25,2,90,0.0,0.0,6,45.0,20.0,9,0.6509999999999999,1.0,375.343,0.15,1,2019-06-20 15:08:10.000,21,2019-06-20 15:14:24.899,0.25,-90,0,-150,120,1
65,0,378.82099999999997,1,150,1,0.25,2,30,0.0,0.0,12,45.0,20.0,3,0.601,0.0,379.462,0.15,1,2019-06-20 15:08:10.000,21,2019-06-20 15:14:28.821,0.25,90,-180,30,-60,1
66,0,381.226,0,150,1,0.25,2,90,0.0,0.0,6,45.0,20.0,9,0.7509999999999999,1.0,382.95099999999996,0.15,1,2019-06-20 15:08:10.000,21,2019-06-20 15:14:31.226,0.25,-90,0,-150,120,1
67,0,386.835,0,150,1,0.25,2,30,0.0,0.0,12,45.0,20.0,3,0.601,0.0,387.89599999999996,0.15,1,2019-06-20 15:08:10.000,21,2019-06-20 15:14:36.835,0.25,90,-180,30,-60,1
68,0,393.353,0,150,1,0.25,2,90,0.0,0.0,6,45.0,20.0,9,0.701,0.0,393.898,0.0,0,2019-06-20 15:08:10.000,21,2019-06-20 15:14:43.353,0.25,90,0,-150,-60,1
71,0,434.961,0,150,1,0.25,2,30,0.0,0.0,12,45.0,20.0,3,0.8009999999999999,0.0,435.22900000000004,0.15,1,2019-06-20 15:08:10.000,21,2019-06-20 15:15:24.961,0.25,90,-180,30,-60,1
72,0,439.407,1,150,1,0.25,2,30,0.0,0.0,12,45.0,20.0,3,0.6509999999999999,0.0,439.901,0.15,1,2019-06-20 15:08:10.000,21,2019-06-20 15:15:29.407,0.25,90,-180,30,-60,1
73,0,441.50699999999995,0,150,1,0.25,2,30,0.0,0.0,12,45.0,20.0,3,0.701,0.0,443.806,0.15,1,2019-06-20 15:08:10.000,21,2019-06-20 15:15:31.507,0.25,90,-180,30,-60,1
74,0,447.70300000000003,0,150,1,0.25,2,90,0.0,0.0,6,45.0,20.0,9,0.601,0.0,448.76199999999994,0.0,0,2019-06-20 15:08:10.000,21,2019-06-20 15:15:37.703,0.25,90,0,-150,-60,1
76,0,458.204,0,150,1,0.25,2,30,0.0,0.0,12,45.0,20.0,3,0.7509999999999999,0.0,458.6,0.15,1,2019-06-20 15:08:10.000,21,2019-06-20 15:15:48.204,0.25,90,-180,30,-60,1
77,0,463.435,0,150,1,0.25,2,30,0.0,0.0,12,45.0,20.0,3,0.6509999999999999,0.0,464.327,0.15,1,2019-06-20 15:08:10.000,21,2019-06-20 15:15:53.435,0.25,90,-180,30,-60,1
78,0,468.86300000000006,0,150,1,0.25,2,90,0.0,0.0,6,45.0,20.0,9,0.8009999999999999,1.0,469.483,0.15,1,2019-06-20 15:08:10.000,21,2019-06-20 15:15:58.863,0.25,-90,0,-150,120,1
79,0,473.756,1,150,1,0.25,2,90,0.0,0.0,6,45.0,20.0,9,0.8009999999999999,1.0,474.046,0.15,1,2019-06-20 15:08:10.000,21,2019-06-20 15:16:03.756,0.25,-90,0,-150,120,1
80,0,475.534,0,150,1,0.25,2,30,0.0,0.0,12,45.0,20.0,3,0.6509999999999999,1.0,477.284,0.0,0,2019-06-20 15:08:10.000,21,2019-06-20 15:16:05.534,0.25,-90,-180,30,120,1
82,0,487.533,0,150,1,0.25,2,90,0.0,0.0,6,45.0,20.0,9,0.701,0.0,489.211,0.0,0,2019-06-20 15:08:10.000,21,2019-06-20 15:16:17.533,0.25,90,0,-150,-60,1
1,0,50.253,0,180,1,0.25,2,30,0.0,0.0,12,45.0,20.0,3,0.6509999999999999,1.0,50.506,0.0,0,2019-06-21 08:46:55.000,38,2019-06-21 08:47:45.253,0.25,-90,-180,0,90,1
4,0,68.15,0,180,1,0.25,2,30,0.0,0.0,12,45.0,20.0,3,0.7509999999999999,1.0,68.9,0.0,0,2019-06-21 08:46:55.000,38,2019-06-21 08:48:03.150,0.25,-90,-180,0,90,1
6,0,83.309,1,180,1,0.25,2,90,0.0,0.0,6,45.0,20.0,9,0.701,1.0,83.92399999999999,0.15,1,2019-06-21 08:46:55.000,38,2019-06-21 08:48:18.309,0.25,-90,0,-180,90,1
7,0,85.48100000000001,0,180,1,0.25,2,90,0.0,0.0,6,45.0,20.0,9,0.8009999999999999,1.0,87.637,0.15,1,2019-06-21 08:46:55.000,38,2019-06-21 08:48:20.481,0.25,-90,0,-180,90,1
8,0,92.48899999999999,0,180,1,0.25,2,30,0.0,0.0,12,45.0,20.0,3,0.601,1.0,93.15700000000001,0.0,0,2019-06-21 08:46:55.000,38,2019-06-21 08:48:27.489,0.25,-90,-180,0,90,1
10,0,99.88,1,180,1,0.25,2,30,0.0,0.0,12,45.0,20.0,3,0.601,1.0,103.648,0.0,0,2019-06-21 08:46:55.000,38,2019-06-21 08:48:34.880,0.25,-90,-180,0,90,1
12,0,114.988,0,180,1,0.25,2,30,0.0,0.0,12,45.0,20.0,3,0.701,0.0,115.811,0.15,1,2019-06-21 08:46:55.000,38,2019-06-21 08:48:49.988,0.25,90,-180,0,-90,1
13,0,119.02600000000001,0,180,1,0.25,2,30,0.0,0.0,12,45.0,20.0,3,0.6509999999999999,0.0,119.646,0.15,1,2019-06-21 08:46:55.000,38,2019-06-21 08:48:54.026,0.25,90,-180,0,-90,1
14,0,123.05,0,180,1,0.25,2,90,0.0,0.0,6,45.0,20.0,9,0.8009999999999999,0.0,124.84,0.0,0,2019-06-21 08:46:55.000,38,2019-06-21 08:48:58.050,0.25,90,0,-180,-90,1
16,0,135.474,0,180,1,0.25,2,90,0.0,0.0,6,45.0,20.0,9,0.7509999999999999,1.0,135.766,0.15,1,2019-06-21 08:46:55.000,38,2019-06-21 08:49:10.474,0.25,-90,0,-180,90,1
17,0,139.52700000000002,0,180,1,0.25,2,90,0.0,0.0,6,45.0,20.0,9,0.701,1.0,140.25799999999998,0.15,1,2019-06-21 08:46:55.000,38,2019-06-21 08:49:14.527,0.25,-90,0,-180,90,1
18,0,144.795,0,180,1,0.25,2,90,0.0,0.0,6,45.0,20.0,9,0.6509999999999999,1.0,145.161,0.15,1,2019-06-21 08:46:55.000,38,2019-06-21 08:49:19.795,0.25,-90,0,-180,90,1
19,0,149.091,0,180,1,0.25,2,30,0.0,0.0,12,45.0,20.0,3,0.7509999999999999,1.0,149.52,0.0,0,2019-06-21 08:46:55.000,38,2019-06-21 08:49:24.091,0.25,-90,-180,0,90,1
21,0,157.863,0,180,1,0.25,2,30,0.0,0.0,12,45.0,20.0,3,0.8009999999999999,1.0,158.131,0.0,0,2019-06-21 08:46:55.000,38,2019-06-21 08:49:32.863,0.25,-90,-180,0,90,1
25,0,186.58,0,180,1,0.25,2,90,0.0,0.0,6,45.0,20.0,9,0.601,0.0,187.396,0.0,0,2019-06-21 08:46:55.000,38,2019-06-21 08:50:01.580,0.25,90,0,-180,-90,1
27,0,199.63099999999997,0,180,1,0.25,2,90,0.0,0.0,6,45.0,20.0,9,0.601,1.0,200.165,0.15,1,2019-06-21 08:46:55.000,38,2019-06-21 08:50:14.631,0.25,-90,0,-180,90,1
28,0,206.28799999999998,0,180,1,0.25,2,90,0.0,0.0,6,45.0,20.0,9,0.6509999999999999,1.0,206.896,0.15,1,2019-06-21 08:46:55.000,38,2019-06-21 08:50:21.288,0.25,-90,0,-180,90,1
29,0,216.104,0,180,1,0.25,2,90,0.0,0.0,6,45.0,20.0,9,0.7509999999999999,1.0,216.505,0.15,1,2019-06-21 08:46:55.000,38,2019-06-21 08:50:31.104,0.25,-90,0,-180,90,1
30,0,235.172,0,180,1,0.25,2,30,0.0,0.0,12,45.0,20.0,3,0.8009999999999999,1.0,235.377,0.0,0,2019-06-21 08:46:55.000,38,2019-06-21 08:50:50.172,0.25,-90,-180,0,90,1
33,0,254.859,0,180,1,0.25,2,30,0.0,0.0,12,45.0,20.0,3,0.701,1.0,255.421,0.0,0,2019-06-21 08:46:55.000,38,2019-06-21 08:51:09.859,0.25,-90,-180,0,90,1
36,0,284.867,1,180,1,0.25,2,90,0.0,0.0,6,45.0,20.0,9,0.601,0.0,289.218,0.0,0,2019-06-21 08:46:55.000,38,2019-06-21 08:51:39.867,0.25,90,0,-180,-90,1
40,0,312.168,0,180,1,0.25,2,30,0.0,0.0,12,45.0,20.0,3,0.8009999999999999,0.0,312.936,0.15,1,2019-06-21 08:46:55.000,38,2019-06-21 08:52:07.168,0.25,90,-180,0,-90,1
41,0,316.895,0,180,1,0.25,2,90,0.0,0.0,6,45.0,20.0,9,0.7509999999999999,0.0,317.6,0.0,0,2019-06-21 08:46:55.000,38,2019-06-21 08:52:11.895,0.25,90,0,-180,-90,1
43,0,326.382,0,180,1,0.25,2,30,0.0,0.0,12,45.0,20.0,3,0.6509999999999999,1.0,328.602,0.0,0,2019-06-21 08:46:55.000,38,2019-06-21 08:52:21.382,0.25,-90,-180,0,90,1
46,0,345.402,0,180,1,0.25,2,90,0.0,0.0,6,45.0,20.0,9,0.701,0.0,346.404,0.0,0,2019-06-21 08:46:55.000,38,2019-06-21 08:52:40.402,0.25,90,0,-180,-90,1
49,0,361.551,0,180,1,0.25,2,90,0.0,0.0,6,45.0,20.0,9,0.701,1.0,361.86199999999997,0.15,1,2019-06-21 08:46:55.000,38,2019-06-21 08:52:56.551,0.25,-90,0,-180,90,1
50,0,367.43199999999996,0,180,1,0.25,2,30,0.0,0.0,12,45.0,20.0,3,0.7509999999999999,0.0,368.657,0.15,1,2019-06-21 08:46:55.000,38,2019-06-21 08:53:02.432,0.25,90,-180,0,-90,1
51,0,371.735,0,180,1,0.25,2,90,0.0,0.0,6,45.0,20.0,9,0.8009999999999999,0.0,372.33,0.0,0,2019-06-21 08:46:55.000,38,2019-06-21 08:53:06.735,0.25,90,0,-180,-90,1
53,0,390.57599999999996,0,180,1,0.25,2,90,0.0,0.0,6,45.0,20.0,9,0.6509999999999999,0.0,391.61199999999997,0.0,0,2019-06-21 08:46:55.000,38,2019-06-21 08:53:25.576,0.25,90,0,-180,-90,1
56,0,409.56199999999995,1,180,1,0.25,2,90,0.0,0.0,6,45.0,20.0,9,0.601,1.0,412.55199999999996,0.15,1,2019-06-21 08:46:55.000,38,2019-06-21 08:53:44.562,0.25,-90,0,-180,90,1
57,0,416.725,0,180,1,0.25,2,30,0.0,0.0,12,45.0,20.0,3,0.601,1.0,417.31300000000005,0.0,0,2019-06-21 08:46:55.000,38,2019-06-21 08:53:51.725,0.25,-90,-180,0,90,1
60,0,433.42,0,180,1,0.25,2,90,0.0,0.0,6,45.0,20.0,9,0.701,0.0,434.162,0.0,0,2019-06-21 08:46:55.000,38,2019-06-21 08:54:08.420,0.25,90,0,-180,-90,1
62,0,448.772,1,180,1,0.25,2,30,0.0,0.0,12,45.0,20.0,3,0.8009999999999999,1.0,449.48199999999997,0.0,0,2019-06-21 08:46:55.000,38,2019-06-21 08:54:23.772,0.25,-90,-180,0,90,1
64,0,460.894,0,180,1,0.25,2,90,0.0,0.0,6,45.0,20.0,9,0.7509999999999999,0.0,461.829,0.0,0,2019-06-21 08:46:55.000,38,2019-06-21 08:54:35.894,0.25,90,0,-180,-90,1
66,0,470.28,1,180,1,0.25,2,30,0.0,0.0,12,45.0,20.0,3,0.6509999999999999,1.0,473.037,0.0,0,2019-06-21 08:46:55.000,38,2019-06-21 08:54:45.280,0.25,-90,-180,0,90,1
75,0,538.634,1,180,1,0.25,2,30,0.0,0.0,12,45.0,20.0,3,0.8009999999999999,1.0,542.155,0.0,0,2019-06-21 08:46:55.000,38,2019-06-21 08:55:53.634,0.25,-90,-180,0,90,1
77,0,555.691,0,180,1,0.25,2,90,0.0,0.0,6,45.0,20.0,9,0.601,0.0,557.043,0.0,0,2019-06-21 08:46:55.000,38,2019-06-21 08:56:10.691,0.25,90,0,-180,-90,1
79,0,566.154,1,180,1,0.25,2,30,0.0,0.0,12,45.0,20.0,3,0.701,1.0,569.854,0.0,0,2019-06-21 08:46:55.000,38,2019-06-21 08:56:21.154,0.25,-90,-180,0,90,1
81,0,592.607,1,180,1,0.25,2,30,0.0,0.0,12,45.0,20.0,3,0.6509999999999999,1.0,596.866,0.0,0,2019-06-21 08:46:55.000,38,2019-06-21 08:56:47.607,0.25,-90,-180,0,90,1
84,0,618.211,0,180,1,0.25,2,30,0.0,0.0,12,45.0,20.0,3,0.7509999999999999,1.0,619.52,0.0,0,2019-06-21 08:46:55.000,38,2019-06-21 08:57:13.211,0.25,-90,-180,0,90,1
87,0,637.727,1,180,1,0.25,2,90,0.0,0.0,6,45.0,20.0,9,0.8009999999999999,0.0,641.105,0.0,0,2019-06-21 08:46:55.000,38,2019-06-21 08:57:32.727,0.25,90,0,-180,-90,1
90,0,659.9060000000001,0,180,1,0.25,2,90,0.0,0.0,6,45.0,20.0,9,0.6509999999999999,1.0,660.988,0.15,1,2019-06-21 08:46:55.000,38,2019-06-21 08:57:54.906,0.25,-90,0,-180,90,1
91,0,667.308,0,180,1,0.25,2,90,0.0,0.0,6,45.0,20.0,9,0.701,1.0,668.612,0.15,1,2019-06-21 08:46:55.000,38,2019-06-21 08:58:02.308,0.25,-90,0,-180,90,1
92,0,672.3969999999999,0,180,1,0.25,2,90,0.0,0.0,6,45.0,20.0,9,0.601,1.0,673.158,0.15,1,2019-06-21 08:46:55.000,38,2019-06-21 08:58:07.397,0.25,-90,0,-180,90,1
93,0,677.237,0,180,1,0.25,2,30,0.0,0.0,12,45.0,20.0,3,0.7509999999999999,1.0,677.6360000000001,0.0,0,2019-06-21 08:46:55.000,38,2019-06-21 08:58:12.237,0.25,-90,-180,0,90,1
95,0,692.581,0,180,1,0.25,2,90,0.0,0.0,6,45.0,20.0,9,0.7509999999999999,1.0,695.207,0.15,1,2019-06-21 08:46:55.000,38,2019-06-21 08:58:27.581,0.25,-90,0,-180,90,1
96,0,699.033,0,180,1,0.25,2,90,0.0,0.0,6,45.0,20.0,9,0.701,0.0,700.495,0.0,0,2019-06-21 08:46:55.000,38,2019-06-21 08:58:34.033,0.25,90,0,-180,-90,1
100,0,730.2539999999999,0,180,1,0.25,2,30,0.0,0.0,12,45.0,20.0,3,0.8009999999999999,0.0,732.3389999999999,0.15,1,2019-06-21 08:46:55.000,38,2019-06-21 08:59:05.254,0.25,90,-180,0,-90,1
101,0,735.802,0,180,1,0.25,2,90,0.0,0.0,6,45.0,20.0,9,0.601,0.0,739.2560000000001,0.0,0,2019-06-21 08:46:55.000,38,2019-06-21 08:59:10.802,0.25,90,0,-180,-90,1
1,0,47.216,0,90,1,0.25,2,90,0.0,0.0,6,45.0,20.0,9,0.6509999999999999,1.0,53.037,0.15,1,2019-06-21 15:59:19.000,5,2019-06-21 16:00:06.216,0.25,-90,0,-90,-180,1
2,0,57.28,1,90,1,0.25,2,30,0.0,0.0,12,45.0,20.0,3,0.7509999999999999,1.0,61.504,0.0,0,2019-06-21 15:59:19.000,5,2019-06-21 16:00:16.280,0.25,-90,-180,90,-180,1
4,0,71.581,0,90,1,0.25,2,90,0.0,0.0,6,45.0,20.0,9,0.701,1.0,72.523,0.15,1,2019-06-21 15:59:19.000,5,2019-06-21 16:00:30.581,0.25,-90,0,-90,-180,1
5,0,76.155,0,90,1,0.25,2,90,0.0,0.0,6,45.0,20.0,9,0.601,0.0,76.712,0.0,0,2019-06-21 15:59:19.000,5,2019-06-21 16:00:35.155,0.25,90,0,-90,0,1
8,0,100.061,0,90,1,0.25,2,30,0.0,0.0,12,45.0,20.0,3,0.8009999999999999,0.0,100.65,0.15,1,2019-06-21 15:59:19.000,5,2019-06-21 16:00:59.061,0.25,90,-180,90,0,1
9,0,104.88,1,90,1,0.25,2,90,0.0,0.0,6,45.0,20.0,9,0.8009999999999999,1.0,105.515,0.15,1,2019-06-21 15:59:19.000,5,2019-06-21 16:01:03.880,0.25,-90,0,-90,-180,1
10,0,108.75299999999999,1,90,1,0.25,2,90,0.0,0.0,6,45.0,20.0,9,0.7509999999999999,1.0,111.51799999999999,0.15,1,2019-06-21 15:59:19.000,5,2019-06-21 16:01:07.753,0.25,-90,0,-90,-180,1
11,0,115.243,0,90,1,0.25,2,30,0.0,0.0,12,45.0,20.0,3,0.601,0.0,115.566,0.15,1,2019-06-21 15:59:19.000,5,2019-06-21 16:01:14.243,0.25,90,-180,90,0,1
12,0,118.59299999999999,0,90,1,0.25,2,90,0.0,0.0,6,45.0,20.0,9,0.701,1.0,119.01299999999999,0.15,1,2019-06-21 15:59:19.000,5,2019-06-21 16:01:17.593,0.25,-90,0,-90,-180,1
13,0,122.363,1,90,1,0.25,2,90,0.0,0.0,6,45.0,20.0,9,0.6509999999999999,1.0,125.285,0.15,1,2019-06-21 15:59:19.000,5,2019-06-21 16:01:21.363,0.25,-90,0,-90,-180,1
14,0,131.059,1,90,1,0.25,2,30,0.0,0.0,12,45.0,20.0,3,0.8009999999999999,1.0,133.875,0.0,0,2019-06-21 15:59:19.000,5,2019-06-21 16:01:30.059,0.25,-90,-180,90,-180,1
17,0,153.649,1,90,1,0.25,2,90,0.0,0.0,6,45.0,20.0,9,0.701,1.0,156.548,0.15,1,2019-06-21 15:59:19.000,5,2019-06-21 16:01:52.649,0.25,-90,0,-90,-180,1
18,0,160.247,1,90,1,0.25,2,30,0.0,0.0,12,45.0,20.0,3,0.601,1.0,163.297,0.0,0,2019-06-21 15:59:19.000,5,2019-06-21 16:01:59.247,0.25,-90,-180,90,-180,1
20,0,173.643,1,90,1,0.25,2,30,0.0,0.0,12,45.0,20.0,3,0.7509999999999999,1.0,176.69099999999997,0.0,0,2019-06-21 15:59:19.000,5,2019-06-21 16:02:12.643,0.25,-90,-180,90,-180,1
22,0,186.75799999999998,0,90,1,0.25,2,90,0.0,0.0,6,45.0,20.0,9,0.6509999999999999,1.0,187.274,0.15,1,2019-06-21 15:59:19.000,5,2019-06-21 16:02:25.758,0.25,-90,0,-90,-180,1
23,0,190.889,1,90,1,0.25,2,30,0.0,0.0,12,45.0,20.0,3,0.8009999999999999,0.0,191.50400000000002,0.15,1,2019-06-21 15:59:19.000,5,2019-06-21 16:02:29.889,0.25,90,-180,90,0,1
24,0,194.8,0,90,1,0.25,2,30,0.0,0.0,12,45.0,20.0,3,0.7509999999999999,1.0,196.935,0.0,0,2019-06-21 15:59:19.000,5,2019-06-21 16:02:33.800,0.25,-90,-180,90,-180,1
28,0,225.203,0,90,1,0.25,2,90,0.0,0.0,6,45.0,20.0,9,0.6509999999999999,0.0,226.327,0.0,0,2019-06-21 15:59:19.000,5,2019-06-21 16:03:04.203,0.25,90,0,-90,0,1
30,0,236.665,0,90,1,0.25,2,30,0.0,0.0,12,45.0,20.0,3,0.701,0.0,239.207,0.15,1,2019-06-21 15:59:19.000,5,2019-06-21 16:03:15.665,0.25,90,-180,90,0,1
31,0,241.52,0,90,1,0.25,2,30,0.0,0.0,12,45.0,20.0,3,0.601,0.0,243.149,0.15,1,2019-06-21 15:59:19.000,5,2019-06-21 16:03:20.520,0.25,90,-180,90,0,1
32,0,246.49599999999998,0,90,1,0.25,2,30,0.0,0.0,12,45.0,20.0,3,0.601,0.0,247.282,0.15,1,2019-06-21 15:59:19.000,5,2019-06-21 16:03:25.496,0.25,90,-180,90,0,1
33,0,250.74099999999999,0,90,1,0.25,2,90,0.0,0.0,6,45.0,20.0,9,0.701,1.0,251.65400000000002,0.15,1,2019-06-21 15:59:19.000,5,2019-06-21 16:03:29.741,0.25,-90,0,-90,-180,1
34,0,255.388,0,90,1,0.25,2,30,0.0,0.0,12,45.0,20.0,3,0.6509999999999999,0.0,256.013,0.15,1,2019-06-21 15:59:19.000,5,2019-06-21 16:03:34.388,0.25,90,-180,90,0,1
35,0,259.58299999999997,1,90,1,0.25,2,30,0.0,0.0,12,45.0,20.0,3,0.8009999999999999,1.0,262.58299999999997,0.0,0,2019-06-21 15:59:19.000,5,2019-06-21 16:03:38.583,0.25,-90,-180,90,-180,1
37,0,272.32099999999997,0,90,1,0.25,2,30,0.0,0.0,12,45.0,20.0,3,0.7509999999999999,0.0,273.344,0.15,1,2019-06-21 15:59:19.000,5,2019-06-21 16:03:51.321,0.25,90,-180,90,0,1
38,0,277.922,0,90,1,0.25,2,30,0.0,0.0,12,45.0,20.0,3,0.8009999999999999,0.0,278.534,0.15,1,2019-06-21 15:59:19.000,5,2019-06-21 16:03:56.922,0.25,90,-180,90,0,1
39,0,282.425,0,90,1,0.25,2,90,0.0,0.0,6,45.0,20.0,9,0.7509999999999999,0.0,283.695,0.0,0,2019-06-21 15:59:19.000,5,2019-06-21 16:04:01.425,0.25,90,0,-90,0,1
42,0,307.427,0,90,1,0.25,2,30,0.0,0.0,12,45.0,20.0,3,0.601,0.0,309.061,0.15,1,2019-06-21 15:59:19.000,5,2019-06-21 16:04:26.427,0.25,90,-180,90,0,1
43,0,317.302,0,90,1,0.25,2,90,0.0,0.0,6,45.0,20.0,9,0.701,1.0,317.953,0.15,1,2019-06-21 15:59:19.000,5,2019-06-21 16:04:36.302,0.25,-90,0,-90,-180,1
44,0,321.36400000000003,0,90,1,0.25,2,90,0.0,0.0,6,45.0,20.0,9,0.6509999999999999,1.0,322.245,0.15,1,2019-06-21 15:59:19.000,5,2019-06-21 16:04:40.364,0.25,-90,0,-90,-180,1
45,0,325.545,0,90,1,0.25,2,90,0.0,0.0,6,45.0,20.0,9,0.7509999999999999,1.0,326.714,0.15,1,2019-06-21 15:59:19.000,5,2019-06-21 16:04:44.545,0.25,-90,0,-90,-180,1
46,0,331.714,0,90,1,0.25,2,30,0.0,0.0,12,45.0,20.0,3,0.8009999999999999,0.0,332.152,0.15,1,2019-06-21 15:59:19.000,5,2019-06-21 16:04:50.714,0.25,90,-180,90,0,1
47,0,335.73699999999997,0,90,1,0.25,2,90,0.0,0.0,6,45.0,20.0,9,0.6509999999999999,1.0,336.38800000000003,0.15,1,2019-06-21 15:59:19.000,5,2019-06-21 16:04:54.737,0.25,-90,0,-90,-180,1
48,0,340.26199999999994,1,90,1,0.25,2,90,0.0,0.0,6,45.0,20.0,9,0.701,1.0,340.658,0.15,1,2019-06-21 15:59:19.000,5,2019-06-21 16:04:59.262,0.25,-90,0,-90,-180,1
49,0,344.87300000000005,0,90,1,0.25,2,90,0.0,0.0,6,45.0,20.0,9,0.601,0.0,347.18199999999996,0.0,0,2019-06-21 15:59:19.000,5,2019-06-21 16:05:03.873,0.25,90,0,-90,0,1
51,0,360.019,1,90,1,0.25,2,90,0.0,0.0,6,45.0,20.0,9,0.6509999999999999,1.0,360.61800000000005,0.15,1,2019-06-21 15:59:19.000,5,2019-06-21 16:05:19.019,0.25,-90,0,-90,-180,1
52,0,363.579,0,90,1,0.25,2,30,0.0,0.0,12,45.0,20.0,3,0.701,1.0,365.921,0.0,0,2019-06-21 15:59:19.000,5,2019-06-21 16:05:22.579,0.25,-90,-180,90,-180,1
55,0,386.38699999999994,0,90,1,0.25,2,90,0.0,0.0,6,45.0,20.0,9,0.601,1.0,389.151,0.15,1,2019-06-21 15:59:19.000,5,2019-06-21 16:05:45.387,0.25,-90,0,-90,-180,1
56,0,392.69300000000004,0,90,1,0.25,2,30,0.0,0.0,12,45.0,20.0,3,0.8009999999999999,0.0,393.17900000000003,0.15,1,2019-06-21 15:59:19.000,5,2019-06-21 16:05:51.693,0.25,90,-180,90,0,1
57,0,397.358,0,90,1,0.25,2,30,0.0,0.0,12,45.0,20.0,3,0.7509999999999999,1.0,398.43800000000005,0.0,0,2019-06-21 15:59:19.000,5,2019-06-21 16:05:56.358,0.25,-90,-180,90,-180,1
59,0,419.814,0,90,1,0.25,2,30,0.0,0.0,12,45.0,20.0,3,0.701,1.0,420.774,0.0,0,2019-06-21 15:59:19.000,5,2019-06-21 16:06:18.814,0.25,-90,-180,90,-180,1
61,0,436.13300000000004,0,90,1,0.25,2,30,0.0,0.0,12,45.0,20.0,3,0.7509999999999999,0.0,437.157,0.15,1,2019-06-21 15:59:19.000,5,2019-06-21 16:06:35.133,0.25,90,-180,90,0,1
62,0,440.773,1,90,1,0.25,2,30,0.0,0.0,12,45.0,20.0,3,0.8009999999999999,1.0,443.522,0.0,0,2019-06-21 15:59:19.000,5,2019-06-21 16:06:39.773,0.25,-90,-180,90,-180,1
65,0,468.55199999999996,0,90,1,0.25,2,90,0.0,0.0,6,45.0,20.0,9,0.6509999999999999,1.0,469.101,0.15,1,2019-06-21 15:59:19.000,5,2019-06-21 16:07:07.552,0.25,-90,0,-90,-180,1
66,0,472.369,1,90,1,0.25,2,30,0.0,0.0,12,45.0,20.0,3,0.601,1.0,475.459,0.0,0,2019-06-21 15:59:19.000,5,2019-06-21 16:07:11.369,0.25,-90,-180,90,-180,1
68,0,483.94800000000004,0,90,1,0.25,2,30,0.0,0.0,12,45.0,20.0,3,0.701,0.0,484.965,0.15,1,2019-06-21 15:59:19.000,5,2019-06-21 16:07:22.948,0.25,90,-180,90,0,1
69,0,489.32599999999996,0,90,1,0.25,2,90,0.0,0.0,6,45.0,20.0,9,0.601,1.0,490.24300000000005,0.15,1,2019-06-21 15:59:19.000,5,2019-06-21 16:07:28.326,0.25,-90,0,-90,-180,1
70,0,493.714,0,90,1,0.25,2,90,0.0,0.0,6,45.0,20.0,9,0.6509999999999999,1.0,494.19800000000004,0.15,1,2019-06-21 15:59:19.000,5,2019-06-21 16:07:32.714,0.25,-90,0,-90,-180,1
